"Time (s)"	"Acceleration x (m/s^2)"	"Acceleration y (m/s^2)"	"Acceleration z (m/s^2)"
3.168098900E-2	-1.384846091E0	9.404391289E0	3.194418252E-1
4.008401000E-2	-1.465603828E0	9.566504478E0	-1.962114573E-1
4.848703000E-2	-2.027917147E0	9.775876999E0	9.571290575E-3
5.689005100E-2	-2.298306227E0	9.690931320E0	5.144568533E-2
6.529307200E-2	-2.260020971E0	9.535398483E0	-7.178467698E-3
7.369609300E-2	-2.019542217E0	9.427123070E0	1.914258115E-2
8.209911400E-2	-1.759322882E0	9.552745819E0	1.040877849E-1
9.050213500E-2	-1.727617979E0	9.645467758E0	1.465603858E-1
9.890515500E-2	-1.902294040E0	9.613762856E0	1.794617027E-1
1.073081760E-1	-2.029113531E0	9.585647583E0	1.477568001E-1
1.157111970E-1	-2.042274237E0	9.578469276E0	9.571290761E-2
1.241142180E-1	-2.001596212E0	9.585049629E0	8.793623000E-2
1.325172390E-1	-1.977069736E0	9.593423843E0	8.793623000E-2
1.409202600E-1	-1.928016901E0	9.597611427E0	1.004985496E-1
1.493232800E-1	-1.887937069E0	9.577870369E0	8.135596663E-2
1.577263010E-1	-1.871785522E0	9.585049629E0	8.434699476E-2
1.661293220E-1	-1.917847395E0	9.563513756E0	6.221338734E-2
1.745323430E-1	-1.969891191E0	9.559925079E0	1.495514158E-2
1.829353640E-1	-1.954936147E0	9.569496155E0	8.973085321E-3
1.913383850E-1	-1.959123492E0	9.547960281E0	3.589233849E-3
1.997414050E-1	-1.990230203E0	9.561120987E0	-1.196411345E-2
2.081444260E-1	-1.996212244E0	9.592227936E0	-1.316052489E-2
2.165474470E-1	-1.959721804E0	9.620343208E0	-1.555334684E-2
2.249504680E-1	-1.854437590E0	9.648459435E0	1.094716340E-1
2.333534890E-1	-1.860419631E0	9.592227936E0	1.842473447E-1
2.417565100E-1	-1.901097536E0	9.511469841E0	8.075776696E-2
2.501595300E-1	-1.912463546E0	9.498309135E0	4.546362907E-2
2.585625510E-1	-1.904088616E0	9.519845009E0	4.845465720E-2
2.669655720E-1	-1.841875196E0	9.562915802E0	2.153540403E-2
2.753685930E-1	-1.816152334E0	9.565308571E0	1.974078640E-2
2.837716140E-1	-1.804786444E0	9.622735977E0	6.101697683E-2
2.921746350E-1	-1.844268084E0	9.665806770E0	1.393819153E-1
3.005776550E-1	-1.929213285E0	9.644869804E0	2.159522474E-1
3.089806760E-1	-2.011167526E0	9.579067230E0	2.398804724E-1
3.173836970E-1	-2.024926186E0	9.507282257E0	1.537388563E-1
3.257867180E-1	-1.973480463E0	9.513862610E0	1.405783296E-1
3.341897390E-1	-1.936391711E0	9.570094109E0	1.686939895E-1
3.425927600E-1	-1.944766641E0	9.594022751E0	1.477568001E-1
3.509957800E-1	-1.953739643E0	9.575477600E0	1.459621787E-1
3.593988010E-1	-1.977667928E0	9.520442963E0	1.310070455E-1
3.678018220E-1	-1.984846354E0	9.542576790E0	6.340979785E-2
3.762048430E-1	-1.977667928E0	9.614361763E0	8.315058798E-2
3.846078640E-1	-1.972882271E0	9.659825325E0	1.633101404E-1
3.930108850E-1	-2.009970903E0	9.637093544E0	2.374876440E-1
4.014139050E-1	-2.037488461E0	9.548559189E0	2.165504545E-1
4.098169260E-1	-2.061416626E0	9.511469841E0	2.231307179E-1
4.182199470E-1	-2.085345030E0	9.535996437E0	3.026920557E-1
4.266229680E-1	-2.081755638E0	9.604191780E0	3.547359705E-1
4.350259890E-1	-2.035095692E0	9.564111710E0	2.536391914E-1
4.434290100E-1	-2.050648928E0	9.526425362E0	1.405783296E-1
4.518320300E-1	-2.033301115E0	9.552147865E0	9.152546525E-2
4.602350510E-1	-1.973480463E0	9.583852768E0	1.866401732E-1
4.686380720E-1	-1.987239242E0	9.554540634E0	1.824527234E-1
4.770410930E-1	-2.044068813E0	9.541978836E0	6.161518395E-2
4.854441140E-1	-2.093121529E0	9.570094109E0	-1.016949583E-2
4.938471350E-1	-2.068595171E0	9.582656860E0	5.264209956E-2
5.022501550E-1	-2.055434704E0	9.579665184E0	1.100698411E-1
5.106531760E-1	-2.115255117E0	9.551549911E0	1.256231815E-1
5.190561970E-1	-2.167299032E0	9.490532875E0	1.136590764E-1
5.274592180E-1	-2.222334146E0	9.468399048E0	1.190429255E-1
5.358622390E-1	-2.225923300E0	9.510871887E0	1.148554832E-1
5.442652600E-1	-2.224726915E0	9.553344727E0	1.202393398E-1
5.526682800E-1	-2.204986095E0	9.535996437E0	5.922235921E-2
5.610713010E-1	-2.224726915E0	9.502496719E0	-1.136590727E-2
5.694743220E-1	-2.286940336E0	9.488140106E0	-2.273181453E-2
5.778773430E-1	-2.397010088E0	9.510273933E0	1.375873014E-2
5.862803640E-1	-2.558525562E0	9.555138588E0	7.896314561E-2
5.946833850E-1	-2.703291416E0	9.531808853E0	1.244267747E-1
6.030864050E-1	-2.839682341E0	9.446265221E0	1.770688742E-1
6.114894260E-1	-2.892324448E0	9.387042999E0	2.500499785E-1
6.198924470E-1	-2.839682341E0	9.393025398E0	3.385843933E-1
6.282954680E-1	-2.822932482E0	9.457631111E0	4.534398913E-1
6.366984890E-1	-2.900100946E0	9.467801094E0	6.155536175E-1
6.451015100E-1	-3.089133978E0	9.329615593E0	7.698906660E-1
6.535045300E-1	-3.152543783E0	9.282955170E0	8.075776696E-1
6.619075510E-1	-3.132204771E0	9.343972206E0	7.896314859E-1
6.703105720E-1	-3.167499065E0	9.424132347E0	9.152546525E-1
6.787135930E-1	-3.294318676E0	9.444471359E0	9.571290612E-1
6.871166140E-1	-3.307479143E0	9.606584549E0	9.882357717E-1
6.955196350E-1	-3.236292601E0	9.839286804E0	9.284151793E-1
7.039226550E-1	-3.105285645E0	1.002951622E1	9.349954724E-1
7.123256760E-1	-2.849851847E0	1.022512913E1	8.356932998E-1
7.207286970E-1	-2.682952404E0	1.063669491E1	6.574280262E-1
7.291317180E-1	-2.541177750E0	1.112662506E1	5.569294691E-1
7.375347390E-1	-2.325225353E0	1.171884918E1	4.504488707E-1
7.459377600E-1	-2.066202402E0	1.218425274E1	4.091726840E-1
7.543407800E-1	-1.839482427E0	1.244566917E1	1.878365725E-1
7.627438010E-1	-1.718046665E0	1.263290691E1	-1.064806059E-1
7.711468220E-1	-1.758126378E0	1.306959724E1	-3.409772217E-1
7.795498430E-1	-1.971685886E0	1.317009544E1	3.206382394E-1
7.879528640E-1	-2.065604210E0	1.267956734E1	5.413761139E-1
7.963558850E-1	-2.225325108E0	1.199043465E1	1.776670814E-1
8.047589050E-1	-2.474776745E0	1.141256714E1	-1.980060786E-1
8.131619260E-1	-2.712264538E0	1.075633621E1	2.626122832E-1
8.215649470E-1	-3.145963669E0	9.834501266E0	6.705885530E-1
8.299679680E-1	-4.003790379E0	9.052646637E0	1.495514158E-2
8.383709890E-1	-4.705485821E0	8.713463783E0	-8.057830334E-1
8.467740100E-1	-4.792823792E0	8.607581139E0	-1.138385415E0
8.551770300E-1	-4.445864677E0	8.442476273E0	-1.052243710E0
8.635800510E-1	-4.239483356E0	8.085946083E0	-8.464609981E-1
8.719830720E-1	-4.118047714E0	7.723433495E0	-6.628118753E-1
8.803860930E-1	-3.865006685E0	7.409375191E0	-8.315058947E-1
8.887891140E-1	-3.409772158E0	7.447062492E0	-1.018744230E0
8.971921350E-1	-3.037688255E0	7.858627796E0	-1.005583763E0
9.055951550E-1	-2.825923443E0	8.478368759E0	-4.055834413E-1
9.139981760E-1	-2.334198475E0	8.340183258E0	-1.746760458E-1
9.224011970E-1	-2.423929453E0	8.280363083E0	-9.619147182E-1
9.308042180E-1	-2.767897606E0	8.199007034E0	-1.618744493E0
9.392072390E-1	-2.834896564E0	8.301898003E0	-1.350150228E0
9.476102600E-1	-2.757129908E0	8.505288124E0	-6.711867452E-1
9.560132800E-1	-2.620140791E0	8.770891190E0	-7.304090858E-1
9.644163010E-1	-2.461018085E0	9.114859581E0	-1.052243710E0
9.728193220E-1	-2.284547329E0	9.341579437E0	-1.127617717E0
9.812223430E-1	-2.219342947E0	9.416355133E0	-9.750752449E-1
9.896253640E-1	-2.226521492E0	9.446864128E0	-8.997012973E-1
9.980283850E-1	-2.240878344E0	9.535398483E0	-8.793623447E-1
1.006431405E0	-2.224726915E0	9.650253296E0	-6.975077987E-1
1.014834426E0	-2.200798512E0	9.732208252E0	-5.670989752E-1
1.023237447E0	-2.266003132E0	9.824930191E0	-5.437689424E-1
1.031640468E0	-2.394019127E0	9.915857315E0	-5.539384484E-1
1.040043489E0	-2.417947292E0	9.979865074E0	-6.209374666E-1
1.048446510E0	-2.389233351E0	9.975677490E0	-5.282155871E-1
1.056849530E0	-2.283350945E0	9.919445992E0	-2.979064286E-1
1.065252551E0	-1.984846354E0	9.887741089E0	-3.732803464E-1
1.073655572E0	-1.637887120E0	9.939187050E0	-4.468596280E-1
1.082058593E0	-1.436890006E0	1.007797050E1	-3.098705411E-1
1.090461614E0	-1.320239902E0	1.023170948E1	-2.757728100E-1
1.098864635E0	-1.339382529E0	1.028255749E1	-3.918247223E-1
1.107267655E0	-1.518844128E0	1.018804073E1	-2.949153781E-1
1.115670676E0	-1.810768485E0	9.934999466E0	-1.184447184E-1
1.124073697E0	-2.079961061E0	9.653842926E0	6.221338734E-2
1.132476718E0	-2.054238319E0	9.495916367E0	-1.256231871E-2
1.140879739E0	-1.871187329E0	9.463613510E0	-2.422732860E-1
1.149282760E0	-1.759921074E0	9.526425362E0	-1.238285750E-1
1.157685780E0	-1.700698733E0	9.601201057E0	-5.982056726E-3
1.166088801E0	-1.609771490E0	9.582656860E0	-6.640082598E-2
1.174491822E0	-1.607378602E0	9.490532875E0	-1.615155339E-1
1.182894843E0	-1.704886079E0	9.464211464E0	-1.680957973E-1
1.191297864E0	-1.808973908E0	9.472586632E0	-1.184447184E-1
1.199700885E0	-1.849053741E0	9.509675026E0	2.991028316E-2
1.208103905E0	-1.520040631E0	9.614959717E0	1.938186288E-1
1.216506926E0	-1.098305583E0	9.737591743E0	5.210371017E-1
1.224909947E0	-8.081758618E-1	9.801599503E0	6.873382926E-1
1.233312968E0	-6.155536175E-1	9.827322960E0	5.258227587E-1
1.241715989E0	-6.975077987E-1	9.709476471E0	3.337987661E-1
1.250119010E0	-9.499505758E-1	9.571888924E0	8.973085135E-2
1.258522030E0	-1.064207911E0	9.459425926E0	2.213360965E-1
1.266925051E0	-9.230313301E-1	9.383454323E0	3.774677813E-1
1.275328072E0	-6.161518097E-1	9.347561836E0	2.823530734E-1
1.283731093E0	-3.571287692E-1	9.279366493E0	8.554340899E-2
1.292134114E0	-3.170489892E-2	9.236893654E0	-2.662015259E-1
1.300537135E0	1.274178028E-1	9.278169632E0	-5.395814776E-1
1.308940155E0	1.100698411E-1	9.582656860E0	-1.244267821E0
1.317343176E0	1.776670814E-1	1.033400249E1	-1.971087694E0
1.325746197E0	6.418746710E-1	1.194855976E1	-2.781656265E0
1.334149218E0	1.359123230E0	1.371984673E1	-3.299702406E0
1.342552239E0	-8.303094506E-1	1.428574944E1	3.936193287E-1
1.350955260E0	-4.597808838E0	1.310788250E1	1.624128342E0
1.359358280E0	-8.724231720E0	1.128096199E1	1.646261930E0
1.367761301E0	-1.162193966E1	9.869196892E0	1.550549030E0
1.376164322E0	-1.194377422E1	9.572486877E0	6.179464459E-1
1.384567343E0	-9.632308006E0	1.028554821E1	1.104287624E0
1.392970364E0	-6.220740795E0	1.069711399E1	5.467599630E-1
1.401373385E0	-2.656033039E0	1.063669491E1	-4.803591371E-1
1.409776405E0	4.486542568E-2	1.021974564E1	2.087737769E-1
1.418179426E0	4.444667995E-1	9.229117393E0	9.463613629E-1
1.426582447E0	-1.356132269E0	8.081160545E0	8.249256015E-1
1.434985468E0	-3.656233072E0	7.643273830E0	9.607182741E-1
1.443388489E0	-5.068596363E0	7.785646915E0	1.403988719E0
1.451791510E0	-5.699703693E0	8.044071198E0	1.995614052E0
1.460194530E0	-5.764907837E0	8.097909927E0	2.479562521E0
1.468597551E0	-5.271388054E0	7.938787460E0	2.230708838E0
1.477000572E0	-4.367499352E0	7.800601959E0	1.540977836E0
1.485403593E0	-3.514458179E0	7.726424217E0	6.861419082E-1
1.493806614E0	-2.994019270E0	7.852645874E0	-1.232303679E-1
1.502209635E0	-2.824128866E0	8.183453560E0	-6.550351977E-1
1.510612655E0	-2.836092949E0	8.739186287E0	-8.111668825E-1
1.519015676E0	-2.930011272E0	9.280562401E0	-6.969096065E-1
1.527418697E0	-3.065205812E0	9.542576790E0	-7.268198729E-1
1.535821718E0	-3.297309637E0	9.468399048E0	-9.858429432E-1
1.544224739E0	-3.544966698E0	9.162715912E0	-1.095314622E0
1.552627760E0	-3.710669756E0	8.952746391E0	-7.549355626E-1
1.561030780E0	-3.647858143E0	9.037691116E0	-3.218346536E-1
1.569433801E0	-3.408575773E0	9.227920532E0	2.297109663E-1
1.577836822E0	-3.085544825E0	9.480961800E0	7.968099117E-1
1.586239843E0	-2.996412039E0	9.505488396E0	1.109671474E0
1.594642864E0	-3.065804005E0	9.374481201E0	1.329811215E0
1.603045885E0	-3.128615618E0	9.344570160E0	1.607378602E0
1.611448905E0	-2.842673302E0	9.492925644E0	2.224726915E0
1.619851926E0	-2.540579557E0	9.585049629E0	2.831307411E0
1.628254947E0	-2.455035925E0	9.458230019E0	3.026920557E0
1.636657968E0	-2.452044964E0	9.181260109E0	2.627917528E0
1.645060989E0	-2.330609322E0	9.135198593E0	2.065006018E0
1.653464010E0	-2.033899307E0	9.367900848E0	1.536790371E0
1.661867030E0	-1.721037745E0	9.623334885E0	1.185643673E0
1.670270051E0	-1.685145378E0	9.681360245E0	1.020538807E0
1.678673072E0	-1.763510346E0	9.748957634E0	7.950153351E-1
1.687076093E0	-1.820937991E0	9.842875481E0	8.111668825E-1
1.695479114E0	-1.985444546E0	9.796813965E0	8.572286963E-1
1.703882135E0	-1.965703845E0	9.613164902E0	1.055832982E0
1.712285155E0	-2.005783558E0	9.472586632E0	1.310070395E0
1.720688176E0	-2.053640127E0	9.392427444E0	1.558923960E0
1.729091197E0	-2.227119684E0	9.319445610E0	1.709073544E0
1.737494218E0	-2.409572363E0	9.296713829E0	1.844268084E0
1.745897239E0	-2.497508526E0	9.283554077E0	1.768295884E0
1.754300260E0	-2.528615236E0	9.204590797E0	1.728216171E0
1.762703280E0	-2.467000246E0	9.222537041E0	1.543968797E0
1.771106301E0	-2.429313183E0	9.287142754E0	1.118046403E0
1.779509322E0	-2.466402054E0	9.402596474E0	9.098708034E-1
1.787912343E0	-2.404188633E0	9.491728783E0	9.786644578E-1
1.796315364E0	-2.378465652E0	9.465408325E0	1.192223907E0
1.804718385E0	-2.356930256E0	9.307481766E0	1.412961721E0
1.813121405E0	-2.464009047E0	9.196215630E0	1.429711580E0
1.821524426E0	-2.469991207E0	9.217152596E0	1.528415442E0
1.829927447E0	-2.413759947E0	9.247661591E0	1.620539188E0
1.838330468E0	-2.179263115E0	9.220742226E0	1.808375716E0
1.846733489E0	-1.852044702E0	9.240483284E0	1.616949916E0
1.855136510E0	-1.635494232E0	9.457631111E0	1.342373490E0
1.863539530E0	-1.487139225E0	9.507881165E0	1.383051515E0
1.871942551E0	-1.460818172E0	9.406186104E0	1.198205948E0
1.880345572E0	-1.630110383E0	9.577272415E0	1.139581800E0
1.888748593E0	-1.582253933E0	9.625128746E0	1.267597795E0
1.897151614E0	-1.554736495E0	9.597013474E0	1.007378340E0
1.905554635E0	-1.655235052E0	9.555737495E0	1.048654556E0
1.913957655E0	-1.498505235E0	9.564710617E0	8.410771489E-1
1.922360676E0	-1.369292736E0	9.812367439E0	9.026923180E-1
1.930763697E0	-1.237687469E0	9.875777245E0	1.007976532E0
1.939166718E0	-1.116850019E0	9.752547264E0	1.027119160E0
1.947569739E0	-1.059422255E0	9.683753014E0	9.008977413E-1
1.955972760E0	-1.019940615E0	9.632308006E0	9.373882413E-1
1.964375780E0	-1.088734269E0	9.608977318E0	7.016952634E-1
1.972778801E0	-1.145563841E0	9.649057388E0	9.589236975E-1
1.981181822E0	-1.147358418E0	9.765707016E0	9.637092948E-1
1.989584843E0	-1.197009563E0	9.923035622E0	9.421738982E-1
1.997987864E0	-1.317847013E0	1.002233791E1	8.111668825E-1
2.006390885E0	-1.344168067E0	1.002592659E1	7.758727670E-1
2.014793905E0	-1.651645780E0	9.772287369E0	8.093722463E-1
2.023196926E0	-1.950150490E0	9.649655342E0	6.364908218E-1
2.031599947E0	-1.952543259E0	9.802198410E0	6.837490797E-1
2.040002968E0	-1.874776483E0	9.967901230E0	6.364908218E-1
2.048405989E0	-1.810170293E0	1.010130119E1	6.735795736E-1
2.056809010E0	-1.674975872E0	1.015334511E1	1.123430252E0
2.065212030E0	-1.411765337E0	1.001815033E1	1.613360643E0
2.073615051E0	-1.168295622E0	9.815957069E0	1.777867198E0
2.082018072E0	-1.063609719E0	9.943374634E0	1.353141189E0
2.090421093E0	-8.231309652E-1	9.990034103E0	6.496513486E-1
2.098824114E0	-6.969096065E-1	1.023111153E1	1.167099237E0
2.107227135E0	-5.395814776E-1	1.052243805E1	1.046261668E0
2.115630155E0	-6.143572330E-1	1.134018517E1	1.044467092E0
2.124033176E0	-8.303094506E-1	1.232004547E1	1.078564763E0
2.132436197E0	-1.065404296E0	1.305643654E1	1.161715388E0
2.140839218E0	-1.724626899E0	1.343151188E1	1.102493048E0
2.149242239E0	-2.556730986E0	1.366840076E1	6.771687865E-1
2.157645260E0	-2.772084951E0	1.369831181E1	-4.785645287E-3
2.166048280E0	-2.441277266E0	1.339143181E1	-5.395814776E-1
2.174451301E0	-1.674377680E0	1.315932846E1	-9.182456732E-1
2.182854322E0	-1.032503009E0	1.324427319E1	-8.907282352E-1
2.191257343E0	-1.039083242E0	1.341356564E1	-5.844469070E-1
2.199660364E0	-1.590030670E0	1.337228966E1	-3.481557071E-1
2.208063385E0	-2.349153519E0	1.316172123E1	-7.238288224E-2
2.216466405E0	-2.851048231E0	1.316172123E1	1.663011760E-1
2.224869426E0	-2.904288530E0	1.349073410E1	4.695914388E-1
2.233272447E0	-2.148754835E0	1.389811230E1	6.574280262E-1
2.241675468E0	-1.632503271E0	1.405543995E1	1.154536963E0
2.250078489E0	-1.756331801E0	1.347577858E1	1.211964726E0
2.258481510E0	-1.571486235E0	1.315035534E1	8.231309652E-1
2.266884530E0	-1.268794179E0	1.337228966E1	9.439685345E-1
2.275287551E0	-1.204786181E0	1.361994648E1	1.375274777E0
2.283690572E0	-1.537986755E0	1.340578842E1	1.531406522E0
2.292093593E0	-1.877169371E0	1.282134151E1	1.403988719E0
2.300496614E0	-1.987837434E0	1.212144089E1	1.342971683E0
2.308899635E0	-1.753939033E0	1.150349522E1	1.636092424E0
2.317302655E0	-1.167697430E0	1.117627621E1	1.442273855E0
2.325705676E0	-6.400800347E-1	1.098544884E1	9.349954724E-1
2.334108697E0	-2.620140910E-1	1.093340492E1	6.053841114E-1
2.342511718E0	2.991028363E-3	1.064865875E1	7.016952634E-1
2.350914739E0	7.537391037E-2	9.936794281E0	9.816554785E-1
2.359317760E0	1.154536903E-1	9.029315948E0	8.464609981E-1
2.367720780E0	2.446661144E-1	8.167900085E0	5.611169338E-1
2.376123801E0	8.973084688E-1	7.687541008E0	1.310070455E-1
2.384526822E0	1.545165181E0	8.162516594E0	3.361915946E-1
2.392929843E0	2.968296528E0	9.067003250E0	1.567298770E-1
2.401332864E0	4.770092010E0	8.879166603E0	5.347958803E-1
2.409735885E0	4.585246563E0	7.474579811E0	6.765705943E-1
2.418138905E0	2.845066071E0	5.812764645E0	-2.153540403E-2
2.426541926E0	8.398807645E-1	4.876572609E0	1.680957973E-1
2.434944947E0	-8.679963946E-1	4.548755646E0	5.916253924E-1
2.443347968E0	-1.814955950E0	4.540380955E0	6.658028960E-1
2.451750989E0	-1.804188251E0	4.828716278E0	5.419743061E-1
2.460154010E0	-1.190429211E0	5.246263504E0	4.677968323E-1
2.468557030E0	-5.353940725E-1	5.566901684E0	4.486542568E-2
2.476960051E0	-2.542374134E-1	5.334797859E0	-1.698904037E-1
2.485363072E0	-2.009970993E-1	4.847858906E0	-1.226321608E-1
2.493766093E0	-1.824527234E-1	4.557728767E0	-2.111666054E-1
2.502169114E0	-1.812563092E-1	4.549354076E0	-3.248256743E-1
2.510572135E0	-1.160518974E-1	4.785645485E0	-1.322034448E-1
2.518975155E0	8.973085135E-2	5.197809219E0	-1.034895778E-1
2.527378176E0	2.889333367E-1	5.607579708E0	-2.997010350E-1
2.535781197E0	3.236292601E-1	5.943771362E0	-4.331009090E-1
2.544184218E0	2.572284341E-1	6.194419384E0	-4.713860750E-1
2.552587239E0	1.501496136E-1	6.494719028E0	-2.919243574E-1
2.560990260E0	1.274178028E-1	6.841079712E0	-2.027917206E-1
2.569393280E0	1.316052526E-1	7.293323517E0	-1.944168359E-1
2.577796301E0	1.974078640E-2	7.778468132E0	4.187439568E-3
2.586199322E0	-1.477568001E-1	8.259425163E0	2.231307179E-1
2.594602343E0	-2.943171859E-1	8.812167168E0	3.984049559E-1
2.603005364E0	-3.762713671E-1	9.484550476E0	4.809573591E-1
2.611408385E0	-4.151547253E-1	1.020538902E1	5.994020700E-1
2.619811405E0	-4.821537733E-1	1.075872898E1	8.195417523E-1
2.628214426E0	-5.509474277E-1	1.114038372E1	1.069591761E0
2.636617447E0	-6.568298340E-1	1.138086224E1	1.214357495E0
2.645020468E0	-5.988038778E-1	1.164945698E1	1.073779106E0
2.653423489E0	-3.744767308E-1	1.199880886E1	8.895317912E-1
2.661826510E0	-1.136590764E-1	1.235773277E1	8.069794178E-1
2.670229530E0	1.800599098E-1	1.270229912E1	8.027920127E-1
2.678632551E0	4.594219327E-1	1.295833111E1	9.092726111E-1
2.687035572E0	4.031906128E-1	1.319402409E1	9.996016622E-1
2.695438593E0	-9.272187948E-2	1.330170155E1	6.664010882E-1
2.703841614E0	-3.990031779E-1	1.333161163E1	3.116651475E-1
2.712244635E0	-4.797609448E-1	1.366840076E1	1.998006850E-1
2.720647655E0	-2.853440940E-1	1.450887966E1	2.829512656E-1
2.729050676E0	6.041877344E-2	1.531645775E1	2.368894368E-1
2.737453697E0	5.916253924E-1	1.583988762E1	-2.452643216E-2
2.745856718E0	1.138983607E0	1.601994705E1	-1.986042857E-1
2.754259739E0	1.555932879E0	1.562872124E1	-1.136590727E-2
2.762662760E0	2.151147604E0	1.495274830E1	2.327020019E-1
2.771065780E0	2.807977438E0	1.442273808E1	3.463610709E-1
2.779468801E0	3.452244759E0	1.409372520E1	3.655036688E-1
2.787871822E0	3.896113396E0	1.377667618E1	4.749752879E-1
2.796274843E0	3.970290899E0	1.323230934E1	7.878368497E-1
2.804677864E0	3.626920938E0	1.247318649E1	8.919246197E-1
2.813080885E0	2.848057270E0	1.169671535E1	8.847461939E-1
2.821483905E0	2.164308071E0	1.087657547E1	7.692924738E-1
2.829886926E0	2.068595171E0	1.002831936E1	3.816552162E-1
2.838289947E0	2.453839540E0	9.269794464E0	2.213360965E-1
2.846692968E0	3.109472990E0	8.895915985E0	5.605186820E-1
2.855095989E0	3.839283943E0	8.976076126E0	7.088736892E-1
2.863499010E0	4.130609989E0	9.203393936E0	6.759724021E-1
2.871902030E0	3.669991732E0	9.428318977E0	3.302095234E-1
2.880305051E0	2.868994236E0	9.716055870E0	-2.530409992E-1
2.888708072E0	2.303689957E0	1.012702370E1	-9.116654396E-1
2.897111093E0	1.955534339E0	1.053141022E1	-1.210768223E0
2.905514114E0	1.823929071E0	1.088076305E1	-9.481559992E-1
2.913917135E0	1.829312921E0	1.107518005E1	-5.324030519E-1
2.922320155E0	1.786242127E0	1.096570778E1	-3.553341627E-1
2.930723176E0	1.145563841E0	1.068514919E1	-6.215356588E-1
2.939126197E0	-1.304088354E0	1.070369434E1	-1.162911773E0
2.947529218E0	-6.756732941E0	1.069292641E1	-4.095914364E0
2.955932239E0	-1.699980927E1	1.121336555E1	7.645068169E-1
2.964335260E0	-3.791128540E1	7.480561733E0	7.596015453E0
2.972738280E0	-4.267240143E1	4.411766529E0	-7.494320393E0
2.981141301E0	-2.533759880E1	6.908677101E0	-4.533800602E0
2.989544322E0	-9.822537422E0	1.298644638E1	1.148554921E0
2.997947343E0	4.750350952E0	1.859941101E1	-7.429714203E-1
3.006350364E0	1.435274887E1	1.932264137E1	1.716850251E-1
3.014753385E0	1.573520184E1	1.694597054E1	-2.225325108E-1
3.023156405E0	1.102493000E1	1.323948765E1	-2.880958557E0
3.031559426E0	4.494318962E0	8.740383148E0	-3.488137245E0
3.039962447E0	1.830509305E-1	7.100701332E0	-3.290131092E-1
3.048365468E0	-2.478964329E0	7.291528702E0	3.743571043E0
3.056768489E0	-4.188037872E0	7.931010723E0	4.350749969E0
3.065171510E0	-5.803791523E0	8.415556908E0	2.849253654E0
3.073574530E0	-7.427321434E0	8.185248375E0	2.800200701E0
3.081977551E0	-8.469993591E0	7.642077446E0	4.366302967E0
3.090380572E0	-7.199405193E0	8.075776100E0	3.957728624E0
3.098783593E0	-4.487739086E0	9.014361382E0	1.534397483E0
3.107186614E0	-1.406979680E0	9.993025780E0	-1.525424421E-1
3.115589635E0	9.529415965E-1	1.075633621E1	-8.554340899E-2
3.123992655E0	1.208375454E0	1.064327526E1	7.806583643E-1
3.132395676E0	1.417747438E-1	1.015992451E1	1.381256819E0
3.140798697E0	-1.324427366E0	9.760921478E0	1.366301775E0
3.149201718E0	-2.489732027E0	9.490532875E0	7.716853023E-1
3.157604739E0	-3.107678413E0	9.363115311E0	8.087740541E-1
3.166007760E0	-3.197409153E0	9.351150513E0	1.316052437E0
3.174410780E0	-2.901895761E0	9.299106598E0	1.718644857E0
3.182813801E0	-2.328814745E0	9.266205788E0	1.891526341E0
3.191216822E0	-1.859821439E0	9.193822861E0	2.200200319E0
3.199619843E0	-1.817348838E0	9.043074608E0	2.437688112E0
3.208022864E0	-2.035095692E0	8.973683357E0	2.441277266E0
3.216425885E0	-2.209173441E0	9.090332985E0	2.350350142E0
3.224828905E0	-2.225923300E0	9.316454887E0	2.167897224E0
3.233231926E0	-2.139183521E0	9.490532875E0	2.220539331E0
3.241634947E0	-2.056032896E0	9.515657425E0	2.187638044E0
3.250037968E0	-1.911267042E0	9.453444481E0	2.087737799E0
3.258440989E0	-1.789233088E0	9.424730301E0	2.000998020E0
3.266844010E0	-1.875374794E0	9.426525116E0	1.970489502E0
3.275247030E0	-1.932802439E0	9.371489525E0	2.071586132E0
3.283650051E0	-1.960918188E0	9.357132912E0	1.972284079E0
3.292053072E0	-2.063809633E0	9.319445610E0	1.908874273E0
3.300456093E0	-2.121835470E0	9.239884377E0	2.149353027E0
3.308859114E0	-2.216950178E0	9.097511292E0	2.266601324E0
3.317262135E0	-2.300100803E0	9.024530411E0	2.300698996E0
3.325665155E0	-2.180459738E0	9.059226990E0	2.024926186E0
3.334068176E0	-2.019542217E0	9.259027481E0	1.789233088E0
3.342471197E0	-1.782054663E0	9.512067795E0	1.798804402E0
3.350874218E0	-1.639681697E0	9.574879646E0	1.881955028E0
3.359277239E0	-1.592423439E0	9.486345291E0	1.878365755E0
3.367680260E0	-1.599003673E0	9.387641907E0	1.874178290E0
3.376083280E0	-1.486541033E0	9.368498802E0	1.747358680E0
3.384486301E0	-1.269990563E0	9.431908607E0	1.657627940E0
3.392889322E0	-1.152144074E0	9.429515839E0	1.768295884E0
3.401292343E0	-1.383051515E0	9.615557671E0	1.602592945E0
3.409695364E0	-1.336989641E0	9.635896683E0	1.639681697E0
3.418098385E0	-1.077368379E0	9.506684303E0	1.842473388E0
3.426501405E0	-8.273184299E-1	9.406186104E0	1.747956991E0
3.434904426E0	-7.878368497E-1	9.551549911E0	1.375274777E0
3.443307447E0	-8.871390224E-1	9.844072342E0	1.376471281E0
3.451710468E0	-1.087537885E0	9.896116257E0	1.250249863E0
3.460113489E0	-1.114457130E0	9.857233047E0	1.169492126E0
3.468516510E0	-1.102493048E0	9.796216011E0	1.142572761E0
3.476919530E0	-1.355534077E0	9.739984512E0	8.063812256E-1
3.485322551E0	-1.226919770E0	9.824930191E0	7.495517135E-1
3.493725572E0	-9.954141974E-1	9.789037704E0	7.806583643E-1
3.502128593E0	-6.448656917E-1	9.944570541E0	9.266205430E-1
3.510531614E0	-5.605186820E-1	1.011087227E1	1.212562919E0
3.518934635E0	-6.867401004E-1	1.013121128E1	1.438684583E0
3.527337655E0	-9.631111026E-1	9.952945709E0	1.578664780E0
3.535740676E0	-1.287338614E0	9.718449593E0	1.624128342E0
3.544143697E0	-1.449452281E0	9.606584549E0	1.518844128E0
3.552546718E0	-1.217946768E0	9.594022751E0	1.585843205E0
3.560949739E0	-1.171286702E0	9.612566948E0	1.567298889E0
3.569352760E0	-1.006780148E0	9.903294563E0	1.816152334E0
3.577755780E0	-1.017547846E0	9.929018021E0	1.816750646E0
3.586158801E0	-1.304088354E0	1.013121128E1	1.704886079E0
3.594561822E0	-1.286142230E0	1.024128056E1	1.823929071E0
3.602964843E0	-1.546361685E0	1.020598698E1	1.390229940E0
3.611367864E0	-1.658226132E0	1.040937710E1	1.214357495E0
3.619770885E0	-1.698305845E0	1.055474091E1	1.287338614E0
3.628173905E0	-1.554736495E0	1.080778122E1	1.260419369E0
3.636576926E0	-1.417747378E0	1.122114182E1	1.497906923E0
3.644979947E0	-1.387238979E0	1.169492054E1	1.430309772E0
3.653382968E0	-1.511067510E0	1.226501083E1	1.266999602E0
3.661785989E0	-1.744965911E0	1.297986603E1	1.212562919E0
3.670189010E0	-1.679761529E0	1.399083424E1	1.433300734E0
3.678592030E0	-1.761715651E0	1.484267902E1	1.088734269E0
3.686995051E0	-2.657827854E0	1.483250904E1	6.095715761E-1
3.695398072E0	-3.635894060E0	1.420559025E1	-5.144568533E-2
3.703801093E0	-4.050450325E0	1.383470249E1	-8.428717852E-1
3.712204114E0	-3.778865099E0	1.417388535E1	-1.385444283E0
3.720607135E0	-3.343969584E0	1.483310795E1	-1.688734531E0
3.729010155E0	-3.288934708E0	1.544148254E1	-2.142772675E0
3.737413176E0	-4.502095699E0	1.555454350E1	-2.279163599E0
3.745816197E0	-5.411368370E0	1.567597961E1	-2.501097918E0
3.754219218E0	-5.700301647E0	1.557847214E1	-3.108874798E0
3.762622239E0	-6.214758396E0	1.552882099E1	-2.228914261E0
3.771025260E0	-5.852844238E0	1.544746494E1	-1.815554142E0
3.779428280E0	-4.027120590E0	1.470150185E1	-7.740781307E-1
3.787831301E0	-1.519442350E-1	1.391665649E1	6.323033571E-1
3.796234322E0	3.921836376E0	1.357627773E1	2.537588358E0
3.804637343E0	5.911468506E0	1.345364571E1	4.479962349E0
3.813040364E0	4.820341110E0	1.258205986E1	4.332205296E0
3.821443385E0	3.159124136E0	1.192343521E1	3.522833109E0
3.829846405E0	2.304288149E0	1.158126163E1	2.962912560E0
3.838249426E0	2.191825628E0	1.089033413E1	2.575275421E0
3.846652447E0	2.191825628E0	9.664610863E0	2.432304144E0
3.855055468E0	2.162513494E0	8.237292290E0	2.464607239E0
3.863458489E0	2.462812662E0	6.965506554E0	2.356332064E0
3.871861510E0	2.014756680E0	5.701498032E0	1.818545222E0
3.880264530E0	1.238285661E0	4.617549419E0	6.987041831E-1
3.888667551E0	3.637090325E-1	5.270191669E0	-3.236292601E-1
3.897070572E0	1.610967875E0	6.362515450E0	-3.577269912E-1
3.905473593E0	3.361317635E0	6.000002861E0	7.704889178E-1
3.913876614E0	3.842873096E0	4.731806755E0	1.366899967E0
3.922279635E0	3.240479946E0	3.575475216E0	1.640279889E0
3.930682655E0	1.925624013E0	2.820539713E0	1.661217093E0
3.939085676E0	1.060618639E0	2.810968399E0	1.586441398E0
3.947488697E0	7.411768436E-1	3.155534744E0	1.281954765E0
3.955891718E0	8.189435601E-1	3.611367464E0	9.858429432E-1
3.964294739E0	1.144367456E0	4.030111313E0	9.750752449E-1
3.972697760E0	1.655235052E0	4.155136585E0	1.081555843E0
3.981100780E0	2.278565407E0	4.010370731E0	1.018744230E0
3.989503801E0	2.669193745E0	3.846462488E0	8.297112584E-1
3.997906822E0	2.671586514E0	3.960719585E0	5.688936114E-1
4.006309843E0	2.134995937E0	4.166502476E0	5.515456200E-1
4.014712864E0	1.389631748E0	4.344767570E0	8.512466550E-1
4.023115885E0	7.639086246E-1	4.503292084E0	1.235892892E0
4.031518905E0	2.841476798E-1	4.748556614E0	1.495514154E0
4.039921926E0	-6.580262445E-3	5.155336380E0	1.620539188E0
4.048324947E0	-1.363908947E-1	5.685346603E0	1.741974831E0
4.056727968E0	-1.854437590E-1	6.265007973E0	1.844866276E0
4.065130989E0	-2.183450609E-1	6.869793892E0	1.933400750E0
4.073534010E0	-3.026920557E-1	7.476972580E0	2.054238319E0
4.081937030E0	-3.840480447E-1	8.058428764E0	2.144567251E0
4.090340051E0	-3.858426511E-1	8.594420433E0	2.137388945E0
4.098743072E0	-2.943171859E-1	9.105288506E0	2.062014818E0
4.107146093E0	-5.024927482E-2	9.579067230E0	1.919043779E0
4.115549114E0	3.290131092E-1	1.004985523E1	1.734198213E0
4.123952135E0	7.226324677E-1	1.057926750E1	1.531406522E0
4.132355155E0	8.189435601E-1	1.103809071E1	1.471585870E0
4.140758176E0	5.162515044E-1	1.135573769E1	1.552343726E0
4.149161197E0	9.870393574E-2	1.156511021E1	1.560718536E0
4.157564218E0	-1.507478207E-1	1.176670551E1	1.462612867E0
4.165967239E0	-4.546362907E-2	1.201555920E1	1.289133191E0
4.174370260E0	4.253242314E-1	1.244925785E1	1.124028444E0
4.182773280E0	7.848458290E-1	1.300977707E1	1.116251707E0
4.191176301E0	7.686942816E-1	1.331246853E1	1.110269666E0
4.199579322E0	5.407779217E-1	1.334357548E1	1.385444283E0
4.207982343E0	5.473581553E-1	1.350509071E1	1.492523074E0
4.216385364E0	6.699903607E-1	1.387777328E1	1.179661512E0
4.224788385E0	6.927221417E-1	1.450828171E1	7.130611539E-1
4.233191405E0	6.861419082E-1	1.527697659E1	5.383851007E-3
4.241594426E0	7.555337548E-1	1.587398529E1	-3.146561682E-1
4.249997447E0	6.496513486E-1	1.595294857E1	-4.342973232E-1
4.258400468E0	6.394818425E-1	1.542832184E1	-7.298108935E-1
4.266803489E0	9.708877802E-1	1.494975758E1	-6.185446382E-1
4.275206510E0	2.185245275E0	1.511546040E1	-2.303091735E-1
4.283609530E0	3.450450182E0	1.569871140E1	-4.719842672E-1
4.292012551E0	4.063611031E0	1.569990730E1	-7.034898400E-1
4.300415572E0	4.405186653E0	1.491087437E1	-8.087740541E-1
4.308818593E0	4.373481750E0	1.351346588E1	1.070788130E-1
4.317221614E0	4.114458561E0	1.220937729E1	8.123632669E-1
4.325624635E0	3.923630953E0	1.117208862E1	4.809573591E-1
4.334027655E0	3.772284985E0	1.046441174E1	-2.769692242E-1
4.342430676E0	3.608974695E0	1.022812080E1	-4.109672904E-1
4.350833697E0	4.134199142E0	9.896116257E0	-4.319044948E-1
4.359236718E0	4.904688358E0	9.442078590E0	-5.970092416E-1
4.367639739E0	5.204389095E0	9.351749420E0	-2.626122832E-1
4.376042760E0	4.622334957E0	1.023470020E1	-1.531406522E0
4.384445780E0	1.222732425E0	1.360319710E1	-4.325026989E0
4.392848801E0	-5.009374142E0	1.546720600E1	-3.044866800E0
4.401251822E0	-1.311924839E1	1.476192093E1	2.956930637E0
4.409654843E0	-2.073679924E1	1.140957642E1	2.997010469E0
4.418057864E0	-2.139841461E1	7.489534855E0	-3.305684566E0
4.426460885E0	-1.520220089E1	7.264011383E0	-2.902493954E0
4.434863905E0	-8.263014793E0	1.026221848E1	-5.557330847E-1
4.443266926E0	-1.588834286E0	1.423849106E1	4.259224236E-1
4.451669947E0	2.963510752E0	1.592184162E1	1.064806104E0
4.460072968E0	4.951946259E0	1.482951832E1	1.479960799E0
4.468475989E0	4.753940582E0	1.184566879E1	1.103689432E0
4.476879010E0	2.309073925E0	8.802596092E0	1.089332461E0
4.485282030E0	-7.794619799E-1	6.827321053E0	1.276570916E0
4.493685051E0	-2.771486759E0	6.095117569E0	1.707278967E0
4.502088072E0	-3.884149313E0	6.009573936E0	2.869592667E0
4.510491093E0	-4.455435753E0	6.372086525E0	3.600001574E0
4.518894114E0	-4.591826439E0	7.113263607E0	3.416352510E0
4.527297135E0	-3.858426571E0	8.082356453E0	2.718246460E0
4.535700155E0	-2.308475733E0	9.007183075E0	2.274377823E0
4.544103176E0	-1.021137118E0	9.830313683E0	1.529013634E0
4.552506197E0	-2.871387303E-1	1.057149029E1	7.549355626E-1
4.560909218E0	-2.853440940E-1	1.110030460E1	1.932204217E-1
4.569312239E0	-1.036690354E0	1.134796143E1	-3.571287692E-1
4.577715260E0	-2.133201361E0	1.125045395E1	-5.844469070E-1
4.586118280E0	-3.134597778E0	1.071864891E1	-3.870390654E-1
4.594521301E0	-3.672384501E0	1.002114105E1	1.932204217E-1
4.602924322E0	-3.908077478E0	9.381061554E0	1.016351461E0
4.611327343E0	-3.866203070E0	8.944371223E0	1.776072621E0
4.619730364E0	-3.297907829E0	8.840283394E0	2.063211441E0
4.628133385E0	-2.484946251E0	8.918049812E0	2.179861546E0
4.636536405E0	-1.921436548E0	9.051449776E0	2.292324066E0
4.644939426E0	-1.782054663E0	9.139386177E0	2.130210400E0
4.653342447E0	-2.012962103E0	9.195018768E0	2.072782516E0
4.661745468E0	-2.416152716E0	9.191430092E0	2.177468538E0
4.670148489E0	-2.837887764E0	9.140582085E0	2.179861546E0
4.678551510E0	-3.113062143E0	9.090931892E0	2.187039852E0
4.686954530E0	-3.137588739E0	9.160323143E0	2.332403898E0
4.695357551E0	-2.898306370E0	9.157332420E0	2.282752752E0
4.703760572E0	-2.676970243E0	9.192028046E0	2.030908108E0
4.712163593E0	-2.515454769E0	9.281759262E0	1.835294962E0
4.720566614E0	-2.495115757E0	9.384052277E0	1.585843205E0
4.728969635E0	-2.438286304E0	9.474979401E0	1.358525038E0
4.737372655E0	-2.327019930E0	9.467203140E0	1.441077471E0
4.745775676E0	-2.255833626E0	9.320044518E0	1.631306887E0
4.754178697E0	-2.213361025E0	9.190233231E0	1.838884234E0
4.762581718E0	-2.268395901E0	9.160921097E0	1.956132531E0
4.770984739E0	-2.391626120E0	9.108877182E0	2.163111687E0
4.779387760E0	-2.518445730E0	9.013164520E0	2.219941139E0
4.787790780E0	-2.629113913E0	8.938388824E0	2.297708035E0
4.796193801E0	-2.739781857E0	8.889934540E0	2.215155602E0
4.804596822E0	-2.730210543E0	9.032307625E0	1.833500385E0
4.812999843E0	-2.790031195E0	9.200403214E0	1.656431437E0
4.821402864E0	-2.849851847E0	9.224330902E0	1.722234130E0
4.829805885E0	-2.584248543E0	9.315258980E0	1.768894196E0
4.838208905E0	-2.133201361E0	9.401400566E0	1.661217093E0
4.846611926E0	-1.853241086E0	9.436694145E0	1.621137381E0
4.855014947E0	-1.363908887E0	9.641879082E0	1.312463164E0
4.863417968E0	-1.161715388E0	9.742377281E0	1.631306887E0
4.871820989E0	-1.345364571E0	9.492327690E0	1.837687731E0
4.880224010E0	-1.633699656E0	9.343374252E0	1.770090580E0
4.888627030E0	-1.991426587E0	9.323633194E0	2.027318954E0
4.897030051E0	-2.187638044E0	9.248857498E0	2.032702923E0
4.905433072E0	-2.007578135E0	9.266803741E0	1.522433400E0
4.913836093E0	-1.643869162E0	9.518648148E0	1.548156261E0
4.922239114E0	-1.098903775E0	9.695118904E0	1.417747378E0
4.930642135E0	-5.778666735E-1	9.762716293E0	1.270588875E0
4.939045155E0	-5.605186820E-1	9.909276962E0	1.128215909E0
4.947448176E0	-8.596215248E-1	9.991828918E0	9.451649189E-1
4.955851197E0	-1.186241865E0	9.721440315E0	1.077368379E0
4.964254218E0	-1.298106313E0	9.510871887E0	1.138983607E0
4.972657239E0	-1.211366415E0	9.503693581E0	1.067797065E0
4.981060260E0	-1.292124271E0	9.637691498E0	1.272383451E0
4.989463280E0	-1.310668588E0	9.757332802E0	1.261615753E0
4.997866301E0	-1.176670551E0	9.856635094E0	1.276570916E0
5.006269322E0	-1.059422255E0	9.796216011E0	1.484148264E0
5.014672343E0	-9.762716293E-1	9.558130264E0	1.765903115E0
5.023075364E0	-1.517647743E0	9.614361763E0	1.816152334E0
5.031478385E0	-1.977667928E0	9.667003632E0	2.169692039E0
5.039881405E0	-2.279163599E0	9.540184021E0	2.155933142E0
5.048284426E0	-2.240280151E0	9.422337532E0	2.231905222E0
5.056687447E0	-1.965703845E0	9.465408325E0	1.990828395E0
5.065090468E0	-1.802991867E0	9.649655342E0	1.966900229E0
5.073493489E0	-1.691725612E0	9.845867157E0	2.108076811E0
5.081896510E0	-1.707278967E0	9.922437668E0	2.249851465E0
5.090299530E0	-1.842473388E0	1.007438183E1	1.839482427E0
5.098702551E0	-1.686341763E0	1.023111153E1	1.523031592E0
5.107105572E0	-1.030110121E0	1.050269699E1	2.919243574E-1
5.115508593E0	-1.145563841E0	1.128335476E1	1.480558991E0
5.123911614E0	-1.823330879E0	1.230688477E1	7.405785918E-1
5.132314635E0	-2.569293261E0	1.420499134E1	1.416550994E0
5.140717655E0	-2.862414122E0	1.613958931E1	1.974676847E0
5.149120676E0	-3.829114437E0	1.670788383E1	1.872981906E0
5.157523697E0	-5.404788017E0	1.608096504E1	1.116850019E0
5.165926718E0	-6.230910301E0	1.542533112E1	2.009970993E-1
5.174329739E0	-5.651248932E0	1.545703602E1	-8.051848412E-1
5.182732760E0	-4.370490551E0	1.608335686E1	-1.408774376E0
5.191135780E0	-3.363710403E0	1.715713692E1	-1.862214208E0
5.199538801E0	-3.716651678E0	1.802573204E1	-1.838884234E0
5.207941822E0	-5.176273346E0	1.831885147E1	-1.584048629E0
5.216344843E0	-6.365506649E0	1.789233208E1	-1.444068432E0
5.224747864E0	-6.481558323E0	1.744726562E1	-1.156331539E0
5.233150885E0	-6.847062111E0	1.645663834E1	-2.219343036E-1
5.241553905E0	-6.785446644E0	1.542652798E1	1.073180914E0
5.249956926E0	-5.429912567E0	1.475653744E1	1.723430514E0
5.258359947E0	-2.925823927E0	1.435813236E1	2.740380049E0
5.266762968E0	-2.309073806E-1	1.363430309E1	3.291925669E0
5.275165989E0	2.356332064E0	1.252762318E1	2.696711063E0
5.283569010E0	3.763311863E0	1.129591751E1	2.108675003E0
5.291972030E0	3.351148129E0	1.024367332E1	2.091326952E0
5.300375051E0	2.478964329E0	9.397212982E0	2.086541414E0
5.308778072E0	1.518844128E0	8.363512993E0	1.871187329E0
5.317181093E0	1.610967875E0	7.590631485E0	1.445863128E0
5.325584114E0	1.765903115E0	6.859624386E0	8.344969153E-1
5.333987135E0	1.928615093E0	6.327819347E0	2.410768867E-1
5.342390155E0	1.788036704E0	5.618945599E0	-3.200400174E-1
5.350793176E0	1.034297585E0	6.068796635E0	-6.520441771E-1
5.359196197E0	2.475973129E0	7.260422230E0	-3.343969584E-1
5.367599218E0	4.859224796E0	7.109674454E0	1.240080357E0
5.376002239E0	5.525027275E0	5.661418438E0	1.849053741E0
5.384405260E0	4.150351048E0	3.992424488E0	1.589432478E0
5.392808280E0	2.092523336E0	2.825923443E0	8.470591903E-1
5.401211301E0	1.794617027E-1	2.505285263E0	3.320041299E-1
5.409614322E0	-1.101296663E0	2.481955290E0	8.799605370E-1
5.418017343E0	-1.009172916E0	3.190230846E0	1.119840980E0
5.426420364E0	-3.708875179E-1	4.231108665E0	2.488535494E-1
5.434823385E0	2.727817893E-1	4.444069862E0	-8.614161611E-2
5.443226405E0	7.788637877E-1	4.149154663E0	-3.026920557E-1
5.451629426E0	9.607182741E-1	3.817748547E0	-3.284149170E-1
5.460032447E0	1.028913736E0	3.839882135E0	-1.567298770E-1
5.468435468E0	1.062413216E0	4.111467361E0	-5.383851007E-3
5.476838489E0	1.009172916E0	4.302893162E0	1.100698411E-1
5.485241510E0	8.464609981E-1	4.347160339E0	1.686939895E-1
5.493644530E0	5.545366406E-1	4.381258488E0	2.279163599E-1
5.502047551E0	1.435693651E-1	4.542773724E0	3.074777126E-1
5.510450572E0	-1.920240223E-1	4.889134884E0	3.302095234E-1
5.518853593E0	-2.913261652E-1	5.405984402E0	2.512463629E-1
5.527256614E0	-2.297109663E-1	6.071787357E0	1.842473447E-1
5.535659635E0	-1.674975902E-1	6.741179466E0	1.411765367E-1
5.544062655E0	-1.615155339E-1	7.403393269E0	1.310070455E-1
5.552465676E0	-1.262213886E-1	8.073982239E0	2.255235314E-1
5.560868697E0	-6.580262631E-2	8.820542336E0	3.092723191E-1
5.569271718E0	-4.785645381E-2	9.586245537E0	2.763710022E-1
5.577674739E0	-1.292124242E-1	1.034716320E1	2.685943544E-1
5.586077760E0	-2.093719840E-1	1.098245811E1	2.141576260E-1
5.594480780E0	-3.044866920E-1	1.141496086E1	-1.974078640E-2
5.602883801E0	-2.967100143E-1	1.184327602E1	-1.088734269E-1
5.611286822E0	9.571290575E-3	1.239900875E1	-4.031906128E-1
5.619689843E0	5.688936114E-1	1.295055389E1	-5.252245665E-1
5.628092864E0	9.421738982E-1	1.339920902E1	-4.642075896E-1
5.636495885E0	1.328614831E0	1.403031540E1	-3.786641955E-1
5.644898905E0	2.055434704E0	1.499821186E1	-6.771687865E-1
5.653301926E0	3.388834953E0	1.595354652E1	-1.434497118E0
5.661704947E0	4.005585194E0	1.649013710E1	-1.207777262E0
5.670107968E0	4.155136585E0	1.695733643E1	-8.279166222E-1
5.678510989E0	4.307679176E0	1.737248993E1	-1.031904817E0
5.686914010E0	4.451846600E0	1.730429459E1	-1.091127157E0
5.695317030E0	4.807180882E0	1.673121452E1	-6.705885530E-1
5.703720051E0	5.171487808E0	1.608634758E1	-1.465603858E-1
5.712123072E0	5.601597786E0	1.548335743E1	1.136590727E-2
5.720526093E0	5.630311489E0	1.494377518E1	1.645065546E-1
5.728929114E0	5.639883041E0	1.451785278E1	6.705885530E-1
5.737332135E0	5.797809124E0	1.403569984E1	6.879364848E-1
5.745735155E0	5.758925915E0	1.319462204E1	7.064808607E-1
5.754138176E0	5.170291424E0	1.236012554E1	6.903293133E-1
5.762541197E0	4.470390797E0	1.163330555E1	3.583251834E-1
5.770944218E0	4.008575916E0	1.068156052E1	1.256231815E-1
5.779347239E0	4.152145386E0	9.756733894E0	1.968096644E-1
5.787750260E0	4.951348305E0	9.671191216E0	9.571290575E-3
5.796153280E0	5.786443233E0	1.019162941E1	2.632104978E-2
5.804556301E0	5.937191010E0	1.084845924E1	3.726821244E-1
5.812959322E0	3.927220106E0	1.172901821E1	-3.092723191E-1
5.821362343E0	-2.005783558E0	1.273938751E1	-2.486142635E0
5.829765364E0	-1.218126202E1	1.379581928E1	8.111668825E-1
5.838168385E0	-3.232942581E1	1.108415222E1	9.378668785E0
5.846571405E0	-4.702913284E1	6.036493301E0	-6.007779598E0
5.854974426E0	-2.831008339E1	6.641279221E0	-4.620540619E0
5.863377447E0	-1.191206932E1	9.748957634E0	1.095912814E0
5.871780468E0	-4.875376225E-1	1.280519009E1	1.692921966E-1
5.880183489E0	7.641479015E0	1.520100403E1	4.779663086E-1
5.888586510E0	1.496590900E1	1.655115509E1	4.839483798E-1
5.896989530E0	1.532782364E1	1.500239944E1	-3.202793121E0
5.905392551E0	8.359326363E0	1.047278690E1	-3.580260992E0
5.913795572E0	1.834696770E0	6.988836765E0	-1.289731383E0
5.922198593E0	-1.315454245E0	6.425925255E0	1.411167145E0
5.930601614E0	-3.154936552E0	7.199405193E0	3.319443226E0
5.939004635E0	-4.750949383E0	8.624331474E0	3.349951744E0
5.947407655E0	-5.819344521E0	9.381061554E0	2.870789051E0
5.955810676E0	-6.629913330E0	9.306883812E0	1.902294040E0
5.964213697E0	-6.684948444E0	9.306883812E0	1.676770449E0
5.972616718E0	-5.218746185E0	9.572486877E0	1.218544960E0
5.981019739E0	-3.278765202E0	9.862018585E0	-2.632104978E-2
5.989422760E0	-1.171884894E0	1.013599682E1	-1.866401732E-1
5.997832005E0	1.830509305E-1	9.920642853E0	3.170489967E-1
6.006235026E0	-1.040877849E-1	9.437292099E0	9.613165259E-1
6.014638047E0	-1.508076429E0	9.309874535E0	1.566700578E0
6.023041068E0	-2.928814888E0	9.192028046E0	2.027318954E0
6.031444089E0	-3.986442566E0	9.053244591E0	2.267199516E0
6.039847110E0	-4.331607342E0	9.015557289E0	2.321636200E0
6.048250130E0	-3.775874138E0	8.998209953E0	2.280359983E0
6.056653151E0	-2.656033039E0	9.061020851E0	2.090728760E0
6.065056172E0	-1.808973908E0	9.195617676E0	2.102094650E0
6.073459193E0	-1.685145378E0	9.257830620E0	2.233101845E0
6.081862214E0	-2.028515339E0	9.154341698E0	2.335993052E0
6.090265235E0	-2.652443886E0	8.994620323E0	2.370090723E0
6.098668255E0	-3.148954630E0	8.980861664E0	2.318047047E0
6.107071276E0	-3.247658491E0	9.134002686E0	2.092523336E0
6.115474297E0	-3.028715372E0	9.287740707E0	1.839482427E0
6.123877318E0	-2.754138947E0	9.336195946E0	1.504487276E0
6.132280339E0	-2.621337175E0	9.334999084E0	1.348355532E0
6.140683360E0	-2.499901533E0	9.416953087E0	1.436890006E0
6.149086380E0	-2.331207514E0	9.466604233E0	1.587039590E0
6.157489401E0	-2.212164640E0	9.427721024E0	1.875972986E0
6.165892422E0	-2.201396942E0	9.221938133E0	2.103291035E0
6.174295443E0	-2.232503414E0	9.085547447E0	2.212164640E0
6.182698464E0	-2.289931297E0	9.028120041E0	2.320439816E0
6.191101485E0	-2.332403898E0	9.027522087E0	2.169093609E0
6.199504505E0	-2.484348059E0	9.111868858E0	2.029113531E0
6.207907526E0	-2.679961443E0	9.157332420E0	1.950150490E0
6.216310547E0	-2.868994236E0	9.189635277E0	1.801197290E0
6.224713568E0	-2.870190859E0	9.221340179E0	1.574477315E0
6.233116589E0	-2.624926329E0	9.266803741E0	1.439880967E0
6.241519610E0	-2.249253273E0	9.375079155E0	1.520638824E0
6.249922630E0	-1.934597135E0	9.415757179E0	1.743171334E0
6.258325651E0	-1.864008784E0	9.388837814E0	1.899302959E0
6.266728672E0	-1.990230203E0	9.285946846E0	1.950150490E0
6.275131693E0	-2.126022816E0	9.226723671E0	2.047059774E0
6.283534714E0	-2.117648125E0	9.140582085E0	2.133799553E0
6.291937735E0	-1.929213285E0	9.177073479E0	1.865205288E0
6.300340755E0	-1.682154298E0	9.379266739E0	1.461416483E0
6.308743776E0	-1.446461320E0	9.588638306E0	1.235294700E0
6.317146797E0	-1.387837172E0	9.714262009E0	1.143171072E0
6.325549818E0	-1.387238979E0	9.834501266E0	1.133599758E0
6.333952839E0	-1.571486235E0	9.787840843E0	1.182652593E0
6.342355860E0	-1.856830359E0	9.680762291E0	1.371685624E0
6.350758880E0	-2.006381750E0	9.588638306E0	1.582253933E0
6.359161901E0	-1.898106575E0	9.559326172E0	1.564906001E0
6.367564922E0	-1.603191137E0	9.577870369E0	1.171286702E0
6.375967943E0	-1.058824062E0	9.720842361E0	9.888339639E-1
6.384370964E0	-7.501499057E-1	9.778867722E0	1.060618639E0
6.392773985E0	-8.614161611E-1	9.610772133E0	1.254437327E0
6.401177005E0	-1.387238979E0	9.811170578E0	1.020538807E0
6.409580026E0	-1.783251047E0	9.926624298E0	1.205982566E0
6.417983047E0	-1.914856315E0	9.836296082E0	1.512862086E0
6.426386068E0	-2.008176327E0	9.646066666E0	1.788634896E0
6.434789089E0	-2.000399828E0	9.408578873E0	1.936391711E0
6.443192110E0	-2.019542217E0	9.519247055E0	1.764108539E0
6.451595130E0	-1.980060697E0	9.495916367E0	2.124826431E0
6.459998151E0	-1.887338877E0	9.485747337E0	2.323430777E0
6.468401172E0	-1.774876237E0	9.499505997E0	2.721237659E0
6.476804193E0	-1.916052699E0	9.733404160E0	2.176272154E0
6.485207214E0	-2.039881229E0	9.958329201E0	2.207977057E0
6.493610235E0	-1.874178290E0	1.002652550E1	1.643869162E0
6.502013255E0	-1.380658627E0	1.018445110E1	1.286740422E0
6.510416276E0	-1.058225870E0	1.069292641E1	8.847461939E-1
6.518819297E0	-9.206385016E-1	1.082871914E1	9.954141974E-1
6.527222318E0	-1.010369420E0	1.135813046E1	5.228317380E-1
6.535625339E0	-1.367498159E0	1.167398357E1	9.415757060E-1
6.544028360E0	-2.026122570E0	1.215912819E1	4.390829504E-1
6.552431380E0	-2.446063042E0	1.235593796E1	4.031906128E-1
6.560834401E0	-2.612364054E0	1.237567902E1	2.452643216E-2
6.569237422E0	-2.699702263E0	1.264367485E1	-9.810572863E-2
6.577640443E0	-2.356930256E0	1.354397392E1	4.671986103E-1
6.586043464E0	-1.596012712E0	1.544208050E1	5.318048596E-1
6.594446485E0	-1.984248161E0	1.665823364E1	5.353940725E-1
6.602849505E0	-3.521038532E0	1.692503357E1	1.609173268E-1
6.611252526E0	-5.254638672E0	1.655713654E1	-2.297109663E-1
6.619655547E0	-6.734001160E0	1.649671745E1	-1.179661512E0
6.628058568E0	-7.610970497E0	1.693101501E1	-1.400399446E0
6.636461589E0	-7.945367813E0	1.729711723E1	-2.022533417E0
6.644864610E0	-7.600203037E0	1.730608940E1	-3.187838078E0
6.653267630E0	-6.993024349E0	1.715235138E1	-3.337987661E0
6.661670651E0	-5.836094379E0	1.705005836E1	-2.186441660E0
6.670073672E0	-3.334398270E0	1.673360634E1	1.661217093E0
6.678476693E0	2.602792740E0	1.620419502E1	2.822334290E0
6.686879714E0	7.279564857E0	1.545105362E1	5.687739372E0
6.695282735E0	7.870592117E0	1.444666672E1	5.615954876E0
6.703685755E0	4.869394302E0	1.288176060E1	3.348157167E0
6.712088776E0	1.406381488E0	1.142333508E1	2.378465652E0
6.720491797E0	-4.438686073E-1	1.029691410E1	2.230708838E0
6.728894818E0	-1.646261930E0	8.903693199E0	1.815554142E0
6.737297839E0	-2.265404940E0	7.331010342E0	1.603789330E0
6.745700860E0	-1.802991867E0	5.993422508E0	1.410568953E0
6.754103880E0	-5.395814776E-1	5.164907455E0	8.494520187E-1
6.762506901E0	4.307080805E-1	4.944169998E0	-8.249256015E-1
6.770909922E0	1.800000787E0	6.293123722E0	-1.975275040E0
6.779312943E0	4.327419758E0	7.097112179E0	-1.531406492E-1
6.787715964E0	5.765506268E0	5.951548100E0	3.211766243E0
6.796118985E0	4.895116806E0	4.280161381E0	3.436691523E0
6.804522005E0	2.561516523E0	2.718246460E0	1.647458434E0
6.812925026E0	-9.451649338E-2	1.872981906E0	1.136590727E-2
6.821328047E0	-1.379462242E0	2.130808592E0	7.686942816E-1
6.829731068E0	-1.662413478E0	2.379662037E0	1.279561877E0
6.838134089E0	-8.231309652E-1	3.123830080E0	1.383649707E0
6.846537110E0	1.627119333E-1	4.141975880E0	1.598405480E0
6.854940130E0	8.841479421E-1	4.377070904E0	1.057627559E0
6.863343151E0	1.247258782E0	4.210171223E0	3.720839322E-1
6.871746172E0	1.414756417E0	4.126422882E0	1.345962733E-1
6.880149193E0	1.562513232E0	4.212564468E0	1.250249892E-1
6.888552214E0	1.692921996E0	4.453042984E0	4.881358147E-1
6.896955235E0	1.574477315E0	4.506283283E0	8.602197170E-1
6.905358255E0	1.115653515E0	4.371088982E0	7.986045480E-1
6.913761276E0	3.475574851E-1	4.176073551E0	6.843472719E-1
6.922164297E0	-3.152543902E-1	4.299304008E0	6.831508875E-1
6.930567318E0	-5.880361795E-1	4.777868748E0	6.562315822E-1
6.938970339E0	-5.724828243E-1	5.472385406E0	6.107679605E-1
6.947373360E0	-6.233302951E-1	6.186044693E0	7.202396393E-1
6.955776380E0	-7.477570772E-1	6.849454880E0	7.920243144E-1
6.964179401E0	-8.566305041E-1	7.508677483E0	8.500502706E-1
6.972582422E0	-9.583254457E-1	8.154141426E0	8.123632669E-1
6.980985443E0	-9.846464992E-1	8.859425545E0	5.551348329E-1
6.989388464E0	-8.530412912E-1	9.694520950E0	2.709871531E-1
6.997791485E0	-5.778666735E-1	1.060259724E1	1.974078640E-2
7.006194505E0	-1.980060786E-1	1.142034435E1	-6.281159073E-2
7.014597526E0	2.787638307E-1	1.214177990E1	-8.913264424E-2
7.023000547E0	6.969096065E-1	1.278365517E1	-3.409772366E-2
7.031403568E0	8.207381964E-1	1.326521015E1	2.003988922E-1
7.039806589E0	7.657032609E-1	1.353679562E1	3.098705411E-1
7.048209610E0	3.409772217E-1	1.379761314E1	5.252245665E-1
7.056612630E0	-2.093719840E-1	1.412662697E1	6.305087805E-1
7.065015651E0	4.001995921E-1	1.437428379E1	4.785645306E-1
7.073418672E0	1.694118381E0	1.515314770E1	3.768695518E-2
7.081821693E0	3.099303484E0	1.645603943E1	-3.212364316E-1
7.090224714E0	3.731008768E0	1.743769455E1	-8.386843204E-1
7.098627735E0	4.051048756E0	1.777089500E1	-1.425524116E0
7.107030755E0	4.127020836E0	1.770449448E1	-1.265205026E0
7.115433776E0	4.249652863E0	1.750409508E1	-7.196413875E-1
7.123836797E0	4.446462631E0	1.723011780E1	-4.211367965E-1
7.132239818E0	4.752744198E0	1.698664856E1	-2.428714931E-1
7.140642839E0	5.113461971E0	1.662712669E1	-3.589234129E-2
7.149045860E0	5.624329567E0	1.601755524E1	2.440679073E-1
7.157448880E0	6.530013084E0	1.505982780E1	3.696911037E-1
7.165851901E0	7.236494064E0	1.396870041E1	6.580262184E-1
7.174254922E0	7.792825222E0	1.300678539E1	7.561319470E-1
7.182657943E0	7.957331657E0	1.195035458E1	1.139581800E0
7.191060964E0	7.983652592E0	1.087956619E1	1.420140266E0
7.199463985E0	8.053044319E0	1.001216793E1	1.174875975E0
7.207867005E0	8.084749222E0	9.667601585E0	6.125625968E-1
7.216270026E0	7.626523972E0	9.905089378E0	-2.213360928E-2
7.224673047E0	6.018547058E0	1.062772179E1	-6.424728632E-1
7.233076068E0	2.529811859E0	1.162792206E1	-2.880360365E0
7.241479089E0	-4.645066738E0	1.276929760E1	-8.601000786E0
7.249882110E0	-1.653380585E1	1.470449352E1	-6.568298340E-1
7.258285130E0	-3.723830414E1	1.148674488E1	3.274577856E0
7.266688151E0	-4.000320816E1	8.808578491E0	-7.157530785E0
7.275091172E0	-2.172922325E1	8.973084450E0	-2.197209358E0
7.283494193E0	-6.037689686E0	1.166979599E1	1.322034478E0
7.291897214E0	5.319244862E0	1.404646683E1	2.489133835E0
7.300300235E0	1.267298698E1	1.502393532E1	3.128017426E0
7.308703255E0	1.378505135E1	1.460997677E1	-5.712863803E-1
7.317106276E0	9.055637360E0	1.139163017E1	-1.185643673E0
7.325509297E0	3.723232031E0	7.990232944E0	1.615753531E0
7.333912318E0	1.214955688E0	6.869793892E0	5.368896008E0
7.342315339E0	-5.641079545E-1	7.382455826E0	6.028118610E0
7.350718360E0	-2.431705952E0	8.241478920E0	4.524827480E0
7.359121380E0	-4.432703972E0	8.609973907E0	3.220739365E0
7.367524401E0	-5.940182209E0	8.670990944E0	2.306680918E0
7.375927422E0	-6.495316982E0	9.014361382E0	1.041476011E0
7.384330443E0	-6.052046776E0	9.702297211E0	1.435693651E-1
7.392733464E0	-4.396213531E0	1.066421223E1	1.734796353E-2
7.401136485E0	-2.443071842E0	1.123490047E1	-2.620140910E-1
7.409539505E0	-5.952146053E-1	1.131565857E1	-6.592226624E-1
7.417942526E0	6.388836503E-1	1.081196880E1	-4.372883439E-1
7.426345547E0	7.166503668E-1	9.918250084E0	8.135597110E-1
7.434748568E0	-2.482553422E-1	9.058628082E0	1.895713687E0
7.443151589E0	-1.808973908E0	8.396414757E0	2.380858421E0
7.451554610E0	-3.090928555E0	8.319844246E0	2.254637241E0
7.459957630E0	-3.411566973E0	8.660223007E0	2.313261271E0
7.468360651E0	-3.056232691E0	8.892327309E0	2.501097918E0
7.476763672E0	-2.567498684E0	8.867800713E0	2.627917528E0
7.485166693E0	-2.324627161E0	8.830113411E0	2.339582443E0
7.493569714E0	-2.137987137E0	9.063413620E0	1.940579176E0
7.501972735E0	-1.890329838E0	9.318847656E0	1.618146300E0
7.510375755E0	-1.797009826E0	9.493523598E0	1.335195065E0
7.518778776E0	-1.819741607E0	9.712467194E0	1.142572761E0
7.527181797E0	-1.814955950E0	9.859625816E0	1.226919770E0
7.535584818E0	-1.520638824E0	9.910472870E0	1.080957651E0
7.543987839E0	-1.065404296E0	9.871589661E0	9.068797827E-1
7.552390860E0	-7.052844763E-1	9.784252167E0	8.877372146E-1
7.560793880E0	-5.892325640E-1	9.713663101E0	9.391828775E-1
7.569196901E0	-7.621139884E-1	9.627521515E0	1.259222865E0
7.577599922E0	-1.179661512E0	9.492925644E0	1.584048629E0
7.586002943E0	-1.606780410E0	9.384650230E0	1.836491346E0
7.594405964E0	-1.859821439E0	9.381659508E0	1.808375716E0
7.602808985E0	-1.808973908E0	9.454640388E0	1.723430514E0
7.611212005E0	-1.637887120E0	9.509675026E0	1.618744493E0
7.619615026E0	-1.425524116E0	9.602396965E0	1.439880967E0
7.628018047E0	-1.183848977E0	9.597611427E0	1.441077471E0
7.636421068E0	-1.060020447E0	9.598209381E0	1.400399446E0
7.644824089E0	-9.649057388E-1	9.626923561E0	1.538584948E0
7.653227110E0	-1.038485050E0	9.626923561E0	1.467398524E0
7.661630130E0	-1.071984529E0	9.670592308E0	1.672582984E0
7.670033151E0	-1.202393413E0	9.573084831E0	1.751546144E0
7.678436172E0	-1.228116274E0	9.582656860E0	1.596012712E0
7.686839193E0	-1.272383451E0	9.669994354E0	1.214955688E0
7.695242214E0	-1.247258782E0	9.845269203E0	1.123430252E0
7.703645235E0	-1.244267821E0	9.786046028E0	1.395015597E0
7.712048255E0	-1.204786181E0	9.728020668E0	1.380060434E0
7.720451276E0	-1.217946768E0	9.719047546E0	1.297508121E0
7.728854297E0	-1.264008522E0	9.767501831E0	1.296909928E0
7.737257318E0	-1.272981644E0	9.843474388E0	1.230509043E0
7.745660339E0	-1.222134113E0	9.924231529E0	1.412363529E0
7.754063360E0	-1.237089276E0	9.883553505E0	1.407577872E0
7.762466380E0	-1.163509965E0	9.796216011E0	1.173081279E0
7.770869401E0	-1.015154958E0	9.707681656E0	1.168893814E0
7.779272422E0	-1.039083242E0	9.625128746E0	1.277169108E0
7.787675443E0	-1.306481123E0	9.644271851E0	1.463211060E0
7.796078464E0	-1.657029629E0	9.720243454E0	1.654038668E0
7.804481485E0	-1.988435626E0	9.755537987E0	1.686341763E0
7.812884505E0	-2.151147604E0	9.622138023E0	1.925025821E0
7.821287526E0	-2.145165443E0	9.452845573E0	1.905285001E0
7.829690547E0	-1.913061738E0	9.483952522E0	2.024926186E0
7.838093568E0	-1.581655741E0	9.680164337E0	2.242672920E0
7.846496589E0	-1.478166223E0	1.011805058E1	2.085345030E0
7.854899610E0	-1.409372568E0	1.026700401E1	1.825125456E0
7.863302630E0	-1.048654556E0	1.051884842E1	1.150947690E0
7.871705651E0	-8.398807645E-1	1.066301632E1	1.901695848E0
7.880108672E0	-9.912267923E-1	1.093519974E1	4.049852192E-1
7.888511693E0	-1.146162033E0	1.139043427E1	7.752745152E-1
7.896914714E0	-1.304686546E0	1.167876911E1	5.114658475E-1
7.905317735E0	-1.467996716E0	1.195514011E1	1.042672515E0
7.913720755E0	-1.935195327E0	1.213878918E1	7.351947427E-1
7.922123776E0	-2.178664923E0	1.245464230E1	1.123430252E0
7.930526797E0	-2.066800594E0	1.308096313E1	1.377667665E0
7.938929818E0	-1.650449395E0	1.420977688E1	1.867598057E0
7.947332839E0	-2.120639086E0	1.496770382E1	1.820937991E0
7.955735860E0	-3.458226919E0	1.471526146E1	1.333400369E0
7.964138880E0	-4.462016106E0	1.395613766E1	6.227321029E-1
7.972541901E0	-4.463810444E0	1.382094383E1	-1.668993831E-1
7.980944922E0	-3.772883177E0	1.455314732E1	-7.292127013E-1
7.989347943E0	-3.349353552E0	1.575912952E1	-1.167697430E0
7.997750964E0	-3.648456335E0	1.685863113E1	-1.634297848E0
8.006153985E0	-4.786841869E0	1.727618027E1	-1.530210137E0
8.014557005E0	-6.206383705E0	1.703869247E1	-1.288534999E0
8.022960026E0	-6.110072613E0	1.629332733E1	-2.235494614E0
8.031363047E0	-4.198207378E0	1.581655788E1	-1.710868239E0
8.039766068E0	-1.796411633E0	1.610967827E1	6.616154313E-1
8.048169089E0	-1.154536903E-1	1.582194138E1	3.496512175E0
8.056572110E0	9.924231768E-1	1.474517155E1	4.034897327E0
8.064975130E0	1.316650629E0	1.353440285E1	3.327818155E0
8.073378151E0	1.032503009E0	1.262871933E1	2.544168711E0
8.081781172E0	6.861419082E-1	1.212024498E1	2.134397745E0
8.090184193E0	2.159522474E-1	1.151785183E1	1.933400750E0
8.098587214E0	-4.253242314E-1	1.043210888E1	1.783849239E0
8.106990235E0	-9.918249846E-1	9.160921097E0	1.317847013E0
8.115393255E0	-1.151545882E0	7.910073280E0	1.659422517E0
8.123796276E0	-4.666004181E-1	7.007979393E0	1.415354609E0
8.132199297E0	3.852444589E-1	6.351747513E0	2.865405083E-1
8.140602318E0	7.082754970E-1	6.973881721E0	-5.306084156E-1
8.149005339E0	2.682354212E0	8.006384850E0	-4.301098585E-1
8.157408360E0	4.621737003E0	8.070392609E0	1.567897081E0
8.165811380E0	4.938187599E0	6.979863644E0	2.826521635E0
8.174214401E0	4.000201225E0	5.529214859E0	2.407777786E0
8.182617422E0	2.175673962E0	4.168895245E0	1.257428288E0
8.191020443E0	3.876372576E-1	3.404986620E0	5.910272002E-1
8.199423464E0	-7.830511928E-1	3.157927752E0	6.771687865E-1
8.207826485E0	-1.039083242E0	3.282952785E0	1.365105271E0
8.216229505E0	-3.978067636E-1	4.026522160E0	1.225723386E0
8.224632526E0	4.007977843E-1	4.418346882E0	6.550351977E-1
8.233035547E0	1.037288666E0	4.341178417E0	1.435693540E-2
8.241438568E0	1.414756417E0	4.130012035E0	-1.585244983E-1
8.249841589E0	1.644467354E0	4.268197536E0	-1.435693651E-1
8.258244610E0	1.711466432E0	4.622334957E0	7.058826834E-2
8.266647630E0	1.620539188E0	4.804787636E0	5.018945336E-1
8.275050651E0	1.544566989E0	4.844269276E0	7.148557901E-1
8.283453672E0	1.448255897E0	4.718646049E0	7.405785918E-1
8.291856693E0	1.141376376E0	4.537389755E0	7.411768436E-1
8.300259714E0	7.178468108E-1	4.653441906E0	6.472585201E-1
8.308662735E0	4.163511395E-1	5.020142078E0	6.143572330E-1
8.317065755E0	2.063809484E-1	5.532804012E0	6.370890141E-1
8.325468776E0	-9.092725813E-2	5.989234924E0	7.645068169E-1
8.333871797E0	-3.738785386E-1	6.425326824E0	8.338986635E-1
8.342274818E0	-5.162515044E-1	6.890132904E0	1.053440213E0
8.350677839E0	-4.875376225E-1	7.410571575E0	1.325025558E0
8.359080860E0	-4.247260094E-1	7.936394691E0	1.426122308E0
8.367483880E0	-3.792623878E-1	8.537590981E0	1.426122308E0
8.375886901E0	-3.278166950E-1	9.193224907E0	1.336391449E0
8.384289922E0	-2.482553422E-1	9.869196892E0	1.241874933E0
8.392692943E0	-2.584248483E-1	1.051107121E1	1.046261668E0
8.401095964E0	-3.708875179E-1	1.114397335E1	1.019342422E0
8.409498985E0	-5.425725579E-1	1.172901821E1	1.070189953E0
8.417902005E0	-8.404789567E-1	1.219980621E1	1.150947690E0
8.426305026E0	-7.992027402E-1	1.269392395E1	1.193420291E0
8.434708047E0	-4.139583111E-1	1.314676571E1	1.382453322E0
8.443111068E0	1.651047617E-1	1.354218006E1	1.365703583E0
8.451514089E0	1.108475089E0	1.417149258E1	1.001396298E0
8.459917110E0	2.186441660E0	1.528953838E1	7.339983582E-1
8.468320130E0	3.239881754E0	1.664626884E1	6.903293133E-1
8.476723151E0	3.946960926E0	1.778226089E1	4.534398913E-1
8.485126172E0	3.865006685E0	1.803709793E1	7.716853172E-2
8.493529193E0	4.111467361E0	1.773500252E1	-3.798605800E-1
8.501932214E0	4.113860130E0	1.743111420E1	-5.114658475E-1
8.510335235E0	4.019941807E0	1.732523155E1	-1.585244983E-1
8.518738255E0	4.564309120E0	1.744427490E1	-1.076770201E-2
8.527141276E0	5.422734261E0	1.741496277E1	-7.238288224E-2
8.535544297E0	6.420541286E0	1.687837219E1	5.324030519E-1
8.543947318E0	7.717451096E0	1.590628815E1	1.447657645E-1
8.552350339E0	8.561519623E0	1.461057472E1	-9.750752151E-2
8.560753360E0	8.774480820E0	1.322752380E1	4.636093974E-1
8.569156380E0	8.285148621E0	1.200718403E1	1.034895778E0
8.577559401E0	7.359126091E0	1.102552891E1	9.535398483E-1
8.585962422E0	6.485745907E0	1.037288570E1	4.755735099E-1
8.594365443E0	5.818148136E0	1.011565781E1	-5.024927482E-2
8.602768464E0	5.328815937E0	1.058345413E1	-5.401797295E-1
8.611171485E0	4.572085857E0	1.073420238E1	-9.188438654E-1
8.619574505E0	1.879562140E0	1.194616699E1	-4.377070904E0
8.627977526E0	-5.174479008E0	1.417687607E1	-8.889934540E0
8.636380547E0	-1.617009735E1	1.545584011E1	1.938186288E0
8.644783568E0	-2.944787025E1	1.149512005E1	3.427120209E0
8.653186589E0	-2.834358215E1	8.112266541E0	-5.096114159E0
8.661589610E0	-1.638604927E1	7.704888821E0	-4.859224796E0
8.669992630E0	-6.272784710E0	1.072463131E1	-2.742773056E0
8.678395651E0	1.556531072E0	1.361097336E1	-2.135594189E-1
8.686798672E0	6.196812630E0	1.382872009E1	1.274178028E-1
8.695201693E0	7.442276478E0	1.311326599E1	-8.255237937E-1
8.703604714E0	5.443671703E0	1.090170002E1	-5.724828243E-1
8.712007735E0	2.105085611E0	8.442476273E0	2.254637241E0
8.720410755E0	6.400800347E-1	8.309675217E0	5.458626747E0
8.728813776E0	2.967100143E-1	1.000020409E1	6.012565136E0
8.737216797E0	-5.970092416E-1	1.117687416E1	4.345366001E0
8.745619818E0	-2.262413740E0	1.094118118E1	2.751745939E0
8.754022839E0	-3.822534084E0	9.795019150E0	1.371685624E0
8.762425860E0	-4.533202648E0	8.649456024E0	1.299302697E0
8.770828880E0	-4.276572227E0	8.250452042E0	1.296311617E0
8.779231901E0	-3.191427231E0	8.866603851E0	1.186241865E0
8.787634922E0	-1.974078655E0	9.837491989E0	8.195417523E-1
8.796037943E0	-1.203589797E0	1.046321487E1	7.609176040E-1
8.804440964E0	-8.829515576E-1	1.065882874E1	8.500502706E-1
8.812843985E0	-9.050851464E-1	1.032921696E1	6.029912829E-1
8.821247005E0	-1.140778184E0	9.844072342E0	6.538388133E-1
8.829650026E0	-1.604985833E0	9.480961800E0	1.124028444E0
8.838053047E0	-2.053640127E0	9.253643036E0	1.494915962E0
8.846456068E0	-2.341377020E0	9.180064201E0	1.494317770E0
8.854859089E0	-2.435893536E0	9.235696793E0	1.468594909E0
8.863262110E0	-2.358126640E0	9.357730865E0	1.646860242E0
8.871665130E0	-2.221735716E0	9.334999084E0	1.976471543E0
8.880068151E0	-2.255235434E0	9.061619759E0	2.150549412E0
8.888471172E0	-2.304288149E0	8.913264275E0	2.031506538E0
8.896874193E0	-2.380858421E0	9.005388260E0	1.877767563E0
8.905277214E0	-2.737987280E0	9.162715912E0	2.301895380E0
8.913680235E0	-2.526820660E0	9.384650230E0	1.463809252E0
8.922083255E0	-2.149951220E0	9.603593826E0	1.454836130E0
8.930486276E0	-1.624128342E0	9.750752449E0	1.655235052E0
8.938889297E0	-1.010369420E0	9.731011391E0	1.498505235E0
8.947292318E0	-7.160521746E-1	9.660423279E0	1.733001828E0
8.955695339E0	-6.257231236E-1	9.543772697E0	1.476969719E0
8.964098360E0	-7.244270444E-1	9.424730301E0	1.451246977E0
8.972501380E0	-1.070788145E0	9.394221306E0	1.524227977E0
8.980904401E0	-1.467996716E0	9.422337532E0	1.500299811E0
8.989307422E0	-1.780858278E0	9.432506561E0	1.775474429E0
8.997710443E0	-1.910070658E0	9.427721024E0	1.887937069E0
9.006113464E0	-1.812563181E0	9.464810371E0	1.752742529E0
9.014516485E0	-1.673779488E0	9.425926208E0	1.641476393E0
9.022919505E0	-1.465005636E0	9.543772697E0	1.484148264E0
9.031322526E0	-1.350150228E0	9.637093544E0	1.217946768E0
9.039725547E0	-1.249053478E0	9.656235695E0	1.163509965E0
9.048128568E0	-1.012163997E0	9.687342644E0	1.156331539E0
9.056531589E0	-8.285148144E-1	9.639486313E0	1.472782373E0
9.064934610E0	-9.092726111E-1	9.512067795E0	1.734198213E0
9.073337630E0	-1.171884894E0	9.393623352E0	2.048256159E0
9.081740651E0	-1.229910851E0	9.323035240E0	2.347957134E0
9.090143672E0	-1.217946768E0	9.353543282E0	2.094317913E0
9.098546693E0	-1.136590719E0	9.378668785E0	2.072782516E0
9.106949714E0	-8.422735929E-1	9.440881729E0	1.882553220E0
9.115352735E0	-6.891329288E-1	9.543772697E0	1.405185103E0
9.123755755E0	-6.005984545E-1	9.647860527E0	1.323829174E0
9.132158776E0	-5.856433511E-1	9.744770050E0	1.240678549E0
9.140561797E0	-6.514459848E-1	9.790832520E0	1.266999602E0
9.148964818E0	-9.146564603E-1	9.789037704E0	9.379864931E-1
9.157367839E0	-9.062815905E-1	9.806385040E0	1.107278705E0
9.165770860E0	-5.898307562E-1	9.877572060E0	1.194018483E0
9.174173880E0	-5.629115105E-1	1.000917721E1	1.005583763E0
9.182576901E0	-6.161518097E-1	1.010189915E1	1.431506157E0
9.190979922E0	-7.567301393E-1	1.008754253E1	1.594218135E0
9.199382943E0	-1.165902853E0	9.904491425E0	1.475175142E0
9.207785964E0	-1.682154298E0	9.639486313E0	1.645065546E0
9.216188985E0	-1.881356835E0	9.371489525E0	1.666600943E0
9.224592005E0	-1.720439434E0	9.365508080E0	1.778465390E0
9.232995026E0	-1.830509305E0	9.667003632E0	1.590628862E0
9.241398047E0	-1.764706731E0	9.934999466E0	1.780858278E0
9.249801068E0	-1.607976794E0	1.020897770E1	1.848455548E0
9.258204089E0	-1.741376638E0	1.030887794E1	1.665404558E0
9.266607110E0	-1.954337835E0	1.037348461E1	1.765304923E0
9.275010130E0	-1.922034740E0	1.040279675E1	1.724028707E0
9.283413151E0	-1.576870084E0	1.043629551E1	7.854440212E-1
9.291816172E0	-9.882357717E-1	1.138624668E1	-7.645068169E-1
9.300219193E0	-1.247856975E0	1.213579845E1	1.820937991E0
9.308622214E0	-1.730010748E0	1.225125217E1	1.052243710E0
9.317025235E0	-2.483151674E0	1.251745319E1	5.048855543E-1
9.325428255E0	-2.541775942E0	1.252463150E1	7.645068169E-1
9.333831276E0	-2.271386862E0	1.263948727E1	4.737788737E-1
9.342234297E0	-1.968694806E0	1.313839054E1	4.438686073E-1
9.350637318E0	-1.691725612E0	1.420259857E1	1.165304661E0
9.359040339E0	-1.727019787E0	1.561376572E1	1.004985452E0
9.367443360E0	-2.458027124E0	1.648774529E1	1.103091240E0
9.375846380E0	-4.280161381E0	1.622333717E1	5.575276613E-1
9.384249401E0	-5.742176056E0	1.543968773E1	-2.889333367E-1
9.392652422E0	-5.874379635E0	1.549591923E1	-1.393221021E0
9.401055443E0	-5.337191105E0	1.658764458E1	-1.694118381E0
9.409458464E0	-4.989035130E0	1.793001747E1	-4.438686073E-1
9.417861485E0	-5.295914650E0	1.864068604E1	-5.808576941E-1
9.426264505E0	-6.808178425E0	1.839661789E1	7.956135273E-1
9.434667526E0	-8.243872643E0	1.751067543E1	1.120439172E0
9.443070547E0	-8.621339798E0	1.669053650E1	1.363310695E0
9.451473568E0	-6.902695179E0	1.497548008E1	3.352942705E0
9.459876589E0	-2.712264538E0	1.341117287E1	3.993022680E0
9.468279610E0	1.538584948E0	1.280339622E1	4.118047714E0
9.476682630E0	3.869194269E0	1.258265781E1	3.683152199E0
9.485085651E0	4.523631096E0	1.214417267E1	2.861815929E0
9.493488672E0	4.216751575E0	1.145145130E1	2.368894339E0
9.501891693E0	3.449851990E0	1.059003448E1	2.596810818E0
9.510294714E0	2.737987280E0	9.497711182E0	2.271985054E0
9.518697735E0	2.213361025E0	8.037490845E0	1.789233088E0
9.527100755E0	1.760519266E0	6.686742783E0	1.228116274E0
9.535503776E0	1.179661512E0	5.465805054E0	1.890329868E-1
9.543906797E0	-9.930214286E-2	4.515256405E0	-9.571290612E-1
9.552309818E0	-5.324030519E-1	5.084149837E0	-2.333002090E-1
9.560712839E0	1.517647743E0	5.628517151E0	7.262216806E-1
9.569115860E0	2.934797049E0	5.338985443E0	2.300100803E0
9.577518880E0	2.991626501E0	4.155734539E0	1.917847395E0
9.585921901E0	2.047657967E0	2.994019270E0	3.284149170E-1
9.594324922E0	6.855437160E-1	2.528017044E0	-7.399803996E-1
9.602727943E0	-4.989035130E-1	2.715255499E0	-5.072783828E-1
9.611130964E0	-1.034895778E0	3.010769129E0	1.884347796E-1
9.619533985E0	-5.312066078E-1	3.561716557E0	6.729813814E-1
9.627937005E0	8.075776696E-1	4.655236244E0	5.611169338E-1
9.636340026E0	1.706680775E0	4.966303349E0	-4.624129832E-1
9.644743047E0	1.950150490E0	4.731806755E0	-1.112662554E0
9.653146068E0	1.757528186E0	4.523033142E0	-9.906286001E-1
9.661549089E0	1.493719578E0	4.367499352E0	-7.423732281E-1
9.669952110E0	1.329811215E0	4.529015064E0	-4.797609448E-1
9.678355130E0	1.252044439E0	4.693521500E0	-2.709871531E-1
9.686758151E0	1.087537885E0	4.686941147E0	-2.578266263E-1
9.695161172E0	7.794619799E-1	4.742574692E0	-3.649054468E-1
9.703564193E0	4.163511395E-1	5.016552448E0	-2.243271172E-1
9.711967214E0	-3.708875179E-2	5.449055195E0	-2.273181453E-2
9.720370235E0	-4.648058116E-1	6.032305717E0	1.860419661E-1
9.728773255E0	-8.039883971E-1	6.661618233E0	3.858426511E-1
9.737176276E0	-1.031904817E0	7.228717327E0	6.562315822E-1
9.745579297E0	-9.828519225E-1	7.722237110E0	8.123632669E-1
9.753982318E0	-7.477570772E-1	8.374280930E0	9.122636318E-1
9.762385339E0	-5.347958803E-1	9.040083885E0	8.440681696E-1
9.770788360E0	-3.457628787E-1	9.719047546E0	6.765705943E-1
9.779191380E0	-4.139583111E-1	1.036570740E1	5.401797295E-1
9.787594401E0	-6.083751321E-1	1.096869946E1	3.852444589E-1
9.795997422E0	-7.974081635E-1	1.161894894E1	2.183450609E-1
9.804400443E0	-8.315058947E-1	1.240558910E1	-1.794616925E-3
9.812803464E0	-6.011967063E-1	1.327119255E1	-3.649054468E-2
9.821206485E0	4.546362907E-2	1.409193039E1	-1.417747438E-1
9.829609505E0	9.302098155E-1	1.494616890E1	-2.333002090E-1
9.838012526E0	1.886142492E0	1.589133358E1	-3.511467278E-1
9.846415547E0	2.907877684E0	1.680957985E1	-5.252245665E-1
9.854818568E0	3.851248026E0	1.759801483E1	-4.127618968E-1
9.863221589E0	4.956732273E0	1.803709793E1	-1.818545163E-1
9.871624610E0	5.475974560E0	1.800000763E1	-5.838487148E-1
9.880027630E0	5.485546112E0	1.786301994E1	-8.219345808E-1
9.888430651E0	5.334199905E0	1.776251984E1	-8.943174481E-1
9.896833672E0	5.210371494E0	1.752742577E1	-7.645068169E-1
9.905236693E0	5.267798901E0	1.712423515E1	-5.407779217E-1
9.913639714E0	5.606981754E0	1.637887192E1	-1.674975902E-1
9.922042735E0	6.639484406E0	1.563350677E1	6.981059909E-1
9.930445755E0	8.578866959E0	1.507238960E1	9.302098155E-1
9.938848776E0	1.043330479E1	1.438206005E1	4.869394004E-1
9.947251797E0	1.120917797E1	1.337827110E1	2.991028363E-3
9.955654818E0	1.028435135E1	1.230808163E1	4.007977992E-2
9.964057839E0	8.417351723E0	1.139880848E1	7.304090858E-1
9.972460860E0	6.583253384E0	1.082094193E1	1.412363529E0
9.980863880E0	5.178666592E0	1.056072235E1	1.816152334E0
9.989266901E0	4.465006828E0	1.057926750E1	1.970489502E0
9.997669922E0	4.216153622E0	1.078504944E1	1.547558069E0
1.000607294E1	3.811766386E0	1.170987606E1	3.702892959E-1
1.001447596E1	2.242672920E0	1.319462204E1	-7.232306600E-1
1.002287898E1	-3.901497364E0	1.439103317E1	-4.791627228E-1
1.003128201E1	-1.677189255E1	1.311326599E1	1.536730480E1
1.003968503E1	-3.431427383E1	8.860024452E0	8.696115494E0
1.004808805E1	-3.647738647E1	6.565905571E0	-1.289910889E1
1.005649107E1	-2.257568359E1	7.323832035E0	-7.871190071E0
1.006489409E1	-7.777271748E0	1.169671535E1	3.786641955E-1
1.007329711E1	5.898906231E0	1.505324745E1	5.042873621E-1
1.008170013E1	1.450230026E1	1.488216019E1	1.286142170E-1
1.009010315E1	1.541456318E1	1.384188080E1	-1.668395638E0
1.009850617E1	9.284749985E0	1.095912743E1	-4.019343853E0
1.010690919E1	1.385444283E0	7.986643791E0	-5.475974560E0
1.011531221E1	-2.909672260E0	8.352746010E0	-2.271985054E0
1.012371524E1	-4.277170658E0	1.010608673E1	3.481556892E0
1.013211826E1	-3.609572887E0	1.121575832E1	5.063810825E0
1.014052128E1	-2.606382132E0	1.096092224E1	3.540181160E0
1.014892430E1	-2.555534601E0	9.880562782E0	1.974078655E0
1.015732732E1	-3.432504177E0	8.977870941E0	2.549552441E0
1.016573034E1	-4.208974838E0	8.739784241E0	2.912065268E0
1.017413336E1	-3.740580082E0	9.251849174E0	2.127219439E0
1.018253638E1	-2.980858803E0	9.519247055E0	1.516451359E0
1.019093940E1	-2.134995937E0	9.395418167E0	1.680359721E0
1.019934242E1	-1.457827210E0	9.028120041E0	2.131406784E0
1.020774544E1	-1.916650891E0	8.704490662E0	2.073979139E0
1.021614846E1	-2.763710260E0	8.995817184E0	1.968096614E0
1.022455149E1	-3.037090063E0	9.404989243E0	1.438086390E0
1.023295450E1	-2.374876499E0	9.713065147E0	1.063011408E0
1.024135753E1	-1.180858016E0	9.848259926E0	9.631111026E-1
1.024976055E1	-3.320041299E-1	9.912267685E0	1.070189953E0
1.025816357E1	-3.631108403E-1	9.814760208E0	1.186241865E0
1.026656659E1	-1.143769264E0	9.538389206E0	1.491326690E0
1.027496961E1	-2.093121529E0	9.247062683E0	1.750947952E0
1.028337263E1	-2.787040234E0	9.096315384E0	1.685145378E0
1.029177565E1	-3.104687452E0	9.050851822E0	1.931007862E0
1.030017867E1	-3.088535786E0	9.097511292E0	2.222932339E0
1.030858169E1	-2.752344131E0	9.139984131E0	2.061416626E0
1.031698471E1	-2.314457655E0	9.194420815E0	1.874178290E0
1.032538774E1	-1.784447432E0	9.347561836E0	1.576870084E0
1.033379076E1	-1.220937729E0	9.503094673E0	1.450050473E0
1.034219378E1	-8.476574421E-1	9.658628464E0	1.238285661E0
1.035059680E1	-7.555337548E-1	9.736993790E0	1.253839016E0
1.035899982E1	-1.030110121E0	9.697511673E0	1.378265858E0
1.036740284E1	-1.449452281E0	9.549755096E0	1.479362607E0
1.037580586E1	-1.709073544E0	9.446864128E0	1.457827210E0
1.038420888E1	-1.697109461E0	9.461220741E0	1.520638824E0
1.039261190E1	-1.621735573E0	9.512666702E0	1.551745534E0
1.040101492E1	-1.460219979E0	9.587442398E0	1.382453322E0
1.040941794E1	-1.279561877E0	9.650253296E0	1.177268744E0
1.041782096E1	-1.108475089E0	9.695717812E0	1.389033556E0
1.042622398E1	-9.529415965E-1	9.739984512E0	1.409372568E0
1.043462701E1	-8.003991842E-1	9.658030510E0	1.530210137E0
1.044303003E1	-6.825526357E-1	9.559326172E0	1.603789330E0
1.045143305E1	-7.573283911E-1	9.643074989E0	1.487737536E0
1.045983607E1	-8.117650747E-1	9.805189133E0	1.529611826E0
1.046823909E1	-8.069794178E-1	9.896116257E0	1.369292736E0
1.047664211E1	-9.182456732E-1	9.907482147E0	1.235294700E0
1.048504513E1	-8.087740541E-1	9.888937950E0	1.286142230E0
1.049344815E1	-5.557330847E-1	9.956535339E0	1.048654556E0
1.050185117E1	-4.576273263E-1	9.919445992E0	1.119840980E0
1.051025419E1	-4.833501875E-1	9.826126099E0	1.106680512E0
1.051865721E1	-4.235295951E-1	9.851848602E0	1.098903775E0
1.052706024E1	-7.058826685E-1	9.906285286E0	6.263213158E-1
1.053546326E1	-7.597211599E-1	9.914660454E0	8.787640929E-1
1.054386628E1	-7.226324677E-1	1.000798035E1	9.481559992E-1
1.055226930E1	-6.987041831E-1	1.016650486E1	1.456630826E0
1.056067232E1	-1.068993568E0	1.022512913E1	1.274776220E0
1.056907534E1	-1.437488198E0	1.000798035E1	1.658226132E0
1.057747836E1	-1.611566067E0	9.651450157E0	1.756929994E0
1.058588138E1	-1.488933921E0	9.512666702E0	2.027318954E0
1.059428440E1	-1.587637782E0	9.711869240E0	1.874776483E0
1.060268742E1	-1.409372568E0	9.921838760E0	2.196012974E0
1.061109044E1	-1.223928809E0	1.016471100E1	1.962114573E0
1.061949346E1	-1.466202021E0	1.026580715E1	1.962114573E0
1.062789648E1	-2.021935225E0	1.024367332E1	1.636092424E0
1.063629950E1	-2.175075769E0	1.045005512E1	1.686341763E0
1.064470253E1	-1.984846354E0	1.101356411E1	1.603191137E0
1.065310555E1	-1.616949916E0	1.181276703E1	1.846660852E0
1.066150857E1	-1.299900889E0	1.239601803E1	1.782652855E0
1.066991159E1	-1.392024517E0	1.278784275E1	1.957927108E0
1.067831461E1	-1.660020709E0	1.303789234E1	2.029113531E0
1.068671763E1	-1.995015860E0	1.344108295E1	1.700100541E0
1.069512065E1	-2.346162558E0	1.374796295E1	1.201795220E0
1.070352367E1	-2.595614433E0	1.380060482E1	6.550351977E-1
1.071192669E1	-2.443670034E0	1.375573921E1	3.367897868E-1
1.072032971E1	-1.922034740E0	1.384487152E1	6.281159073E-2
1.072873274E1	-1.539183140E0	1.403510094E1	-8.853443712E-2
1.073713576E1	-1.581057549E0	1.423490238E1	-1.064806059E-1
1.074553878E1	-1.819143414E0	1.448734474E1	3.589233849E-3
1.075394180E1	-2.187638044E0	1.464646721E1	-1.447657645E-1
1.076234482E1	-3.450450182E0	1.455733490E1	3.589234054E-1
1.077074784E1	-5.065605640E0	1.374317646E1	9.690931439E-2
1.077915086E1	-5.827121258E0	1.302891922E1	-1.920240223E-1
1.078755388E1	-5.642873764E0	1.278186035E1	-3.218346536E-1
1.079595690E1	-4.369892120E0	1.306002617E1	-6.508477330E-1
1.080435992E1	-2.618346214E0	1.382333660E1	-2.997010350E-1
1.081276294E1	-1.216750264E0	1.459203053E1	7.256234884E-1
1.082116596E1	-8.195417523E-1	1.496830177E1	1.722234130E0
1.082956898E1	-1.509871125E0	1.477388477E1	1.707278967E0
1.083797201E1	-2.547159672E0	1.407637787E1	1.303490162E0
1.084637503E1	-3.057429075E0	1.302951717E1	1.103689432E0
1.085477805E1	-2.374876499E0	1.198624706E1	8.709874153E-1
1.086318107E1	-7.866404653E-1	1.118166065E1	9.678967595E-1
1.087158409E1	5.958128572E-1	1.047039413E1	1.405783296E0
1.087998711E1	1.351346612E0	9.836296082E0	2.079961061E0
1.088839013E1	1.613958836E0	9.069396019E0	2.653042078E0
1.089679315E1	1.965703845E0	8.079963684E0	2.774477959E0
1.090519617E1	2.803191662E0	7.311867714E0	2.264208317E0
1.091359919E1	3.413361549E0	6.827321053E0	1.134197950E0
1.092200221E1	3.226721287E0	7.978269100E0	8.315058798E-2
1.093040524E1	4.360321045E0	9.268000603E0	-1.060020447E0
1.093880826E1	4.571487427E0	9.367900848E0	1.363908947E-1
1.094721128E1	3.361915827E0	7.640881062E0	1.368694544E0
1.095561430E1	1.583450437E0	5.615954876E0	1.129412293E0
1.096401732E1	2.033899277E-1	3.887738705E0	6.376872063E-1
1.097242034E1	-3.511467278E-1	2.574079037E0	1.794617027E-1
1.098082336E1	-2.177468538E-1	2.044667006E0	1.118644550E-1
1.098922638E1	1.003190875E0	3.065804005E0	-2.853440940E-1
1.099762940E1	2.148754835E0	4.000201225E0	-9.272187948E-1
1.100603242E1	2.543570518E0	4.253840446E0	-1.010967612E0
1.101443544E1	2.210369825E0	4.288536549E0	-5.024927258E-1
1.102283846E1	1.759322882E0	4.217947960E0	-5.443671346E-2
1.103124148E1	1.551147223E0	4.308875561E0	2.847459018E-1
1.103964450E1	1.584646821E0	4.560719967E0	3.056831062E-1
1.104804753E1	1.569093466E0	4.680959225E0	2.632105052E-1
1.105645055E1	1.473978758E0	4.791028976E0	1.100698411E-1
1.106485357E1	1.255633712E0	5.000401020E0	-1.519442350E-1
1.107325659E1	8.985049129E-1	5.324030399E0	-2.727817893E-1
1.108165961E1	4.474578202E-1	5.618347645E0	-2.392822653E-1
1.109006263E1	-1.016949583E-2	5.862415314E0	-9.990034252E-2
1.109846565E1	-4.259224236E-1	6.047261238E0	-2.392822690E-2
1.110686867E1	-7.381857634E-1	6.240481377E0	3.529413417E-2
1.111527169E1	-8.584251404E-1	6.477370739E0	2.021935135E-1
1.112367471E1	-9.266205430E-1	6.801000118E0	3.475574851E-1
1.113207774E1	-8.428717852E-1	7.212565422E0	3.104687333E-1
1.114048076E1	-5.766702294E-1	7.745566845E0	1.010967568E-1
1.114888378E1	-2.123630047E-1	8.303692818E0	-4.785645381E-2
1.115728680E1	1.148554832E-1	8.871390343E0	-8.913264424E-2
1.116568982E1	1.567298770E-1	9.416355133E0	-1.022931710E-1
1.117409284E1	4.606183618E-2	9.955338478E0	-2.572284266E-2
1.118249586E1	-1.142572835E-1	1.055653572E1	7.118647546E-2
1.119089888E1	-8.733802289E-2	1.130189991E1	4.211367965E-1
1.119930190E1	5.694918036E-1	1.220219898E1	3.044866920E-1
1.120770492E1	1.688136339E0	1.333819199E1	1.447657645E-1
1.121610794E1	2.805584431E0	1.463928890E1	1.854437590E-2
1.122451096E1	3.720839262E0	1.585304832E1	1.316052489E-2
1.123291399E1	4.261617184E0	1.671087456E1	-5.264209956E-2
1.124131700E1	4.626522541E0	1.721217155E1	-2.871387079E-2
1.124972003E1	5.149952412E0	1.745324898E1	-1.160518974E-1
1.125812305E1	5.759523869E0	1.754776573E1	-3.523431420E-1
1.126652607E1	6.491129398E0	1.743410492E1	-1.932204217E-1
1.127492909E1	7.018148899E0	1.696571159E1	3.044866920E-1
1.128333211E1	7.238288403E0	1.645843315E1	8.099704385E-1
1.129173513E1	7.596613884E0	1.616232109E1	1.637887120E0
1.130013815E1	8.320442200E0	1.560359669E1	1.463211060E0
1.130854117E1	9.191430092E0	1.463091373E1	7.812566161E-1
1.131694419E1	9.562915802E0	1.377667618E1	3.427718580E-1
1.132534721E1	9.407382011E0	1.283390427E1	3.248256743E-1
1.133375024E1	9.218349457E0	1.170150089E1	4.695914388E-1
1.134215326E1	9.129815102E0	1.098066330E1	3.732803464E-1
1.135055628E1	8.269595146E0	1.096092224E1	-1.734796353E-2
1.135895930E1	6.096313953E0	1.144726372E1	-2.632104978E-2
1.136736232E1	2.519642353E0	1.236132145E1	7.447660565E-1
1.137576534E1	-4.433301926E0	1.315573883E1	4.271188378E-1
1.138416836E1	-1.620419502E1	1.274178028E1	1.145982552E1
1.139257138E1	-2.865285492E1	1.043928719E1	6.285944939E0
1.140097440E1	-2.894836807E1	9.096315384E0	-9.553344727E0
1.140937742E1	-1.865504265E1	9.459425926E0	-9.312267303E0
1.141778044E1	-7.413562775E0	1.231406307E1	-3.942773581E0
1.142618346E1	1.392024517E0	1.399143219E1	4.666004330E-2
1.143458648E1	6.656234264E0	1.461954784E1	1.255633712E0
1.144298950E1	8.624331474E0	1.432642746E1	4.971089065E-1
1.145139253E1	6.230910301E0	1.248215961E1	-1.740778536E-1
1.145979555E1	3.578466177E0	1.115713406E1	1.073779106E0
1.146819857E1	2.061416626E0	1.162433243E1	3.631108284E0
1.147660159E1	8.973084688E-1	1.176251793E1	3.853640795E0
1.148500461E1	-5.324030519E-1	1.080120182E1	2.916850805E0
1.149340763E1	-2.212762833E0	9.087342262E0	1.153938770E0
1.150181065E1	-3.682554007E0	7.889734268E0	1.593619823E0
1.151021367E1	-4.430311203E0	7.465606689E0	2.152942181E0
1.151861669E1	-4.427918434E0	8.017151833E0	1.666600943E0
1.152701971E1	-3.708875179E0	9.362516403E0	1.268195987E0
1.153542274E1	-3.106482029E0	1.044347477E1	1.009771109E0
1.154382576E1	-2.554936409E0	1.085743237E1	5.353940725E-1
1.155222878E1	-2.114058733E0	1.062413216E1	7.118647546E-2
1.156063180E1	-1.852044702E0	9.894321442E0	3.523431420E-1
1.156903482E1	-1.901097536E0	9.174081802E0	9.379864931E-1
1.157743784E1	-2.080559254E0	8.860622406E0	1.258026481E0
1.158584086E1	-2.009970903E0	9.061619759E0	1.325025558E0
1.159424388E1	-1.864607096E0	9.305088997E0	1.607976794E0
1.160264690E1	-1.967498422E0	9.366703987E0	2.183450699E0
1.161104992E1	-2.248056889E0	9.244669914E0	2.440679073E0
1.161945294E1	-2.317448616E0	9.083752632E0	2.283350945E0
1.162785596E1	-2.249851465E0	8.895915985E0	2.149951220E0
1.163625899E1	-2.166102648E0	8.780462265E0	2.060220242E0
1.164466200E1	-2.136790514E0	8.877371788E0	1.859821439E0
1.165306503E1	-2.134995937E0	9.222537041E0	1.901695848E0
1.166146805E1	-2.246262312E0	9.411569595E0	1.824527264E0
1.166987107E1	-2.414956331E0	9.378069878E0	1.818545222E0
1.167827409E1	-2.406581402E0	9.379266739E0	1.839482427E0
1.168667711E1	-2.279163599E0	9.422935486E0	1.494915962E0
1.169508013E1	-2.259422779E0	9.469595909E0	1.364507079E0
1.170348315E1	-2.165504456E0	9.432506561E0	1.493121386E0
1.171188617E1	-2.143969059E0	9.297910690E0	1.852044702E0
1.172028919E1	-2.267797709E0	9.120243073E0	2.152942181E0
1.172869221E1	-2.318047047E0	9.067601204E0	2.175673962E0
1.173709524E1	-2.112264156E0	9.140582085E0	2.313261271E0
1.174549826E1	-1.855633974E0	9.249456406E0	2.246262312E0
1.175390128E1	-1.641476393E0	9.346963882E0	2.106282234E0
1.176230430E1	-1.610369682E0	9.363115311E0	2.013560295E0
1.177070732E1	-1.651645780E0	9.376873970E0	1.938784599E0
1.177911034E1	-1.674975872E0	9.440881729E0	1.982453585E0
1.178751336E1	-1.709671736E0	9.496515274E0	1.954936147E0
1.179591638E1	-1.697109461E0	9.513264656E0	1.986641049E0
1.180431940E1	-1.604985833E0	9.461220741E0	2.094916344E0
1.181272242E1	-1.539183140E0	9.360123634E0	2.069791555E0
1.182112544E1	-1.558325768E0	9.245866776E0	2.087139606E0
1.182952846E1	-1.544566989E0	9.279366493E0	1.977069736E0
1.183793148E1	-1.588235974E0	9.529416084E0	1.744965911E0
1.184633451E1	-1.588235974E0	9.593423843E0	1.849651933E0
1.185473753E1	-1.336989641E0	9.677172661E0	1.542174220E0
1.186314055E1	-1.109073281E0	9.787242889E0	1.487139225E0
1.187154357E1	-1.065404296E0	9.460622787E0	1.564307809E0
1.187994659E1	-1.099501967E0	9.327222824E0	1.390828133E0
1.188834961E1	-1.382453322E0	9.288937569E0	1.685743570E0
1.189675263E1	-1.648654819E0	9.262018204E0	1.893320918E0
1.190515565E1	-1.781456470E0	9.354142189E0	1.661217093E0
1.191355867E1	-1.828714728E0	9.485747337E0	1.539781332E0
1.192196169E1	-1.526022673E0	9.619147301E0	1.504487276E0
1.193036471E1	-1.155135155E0	9.706484795E0	1.272383451E0
1.193876774E1	-9.014959335E-1	9.764511108E0	1.381256819E0
1.194717076E1	-7.830511928E-1	9.783653259E0	1.351944804E0
1.195557378E1	-9.846464992E-1	9.811170578E0	1.378265858E0
1.196397680E1	-1.213759303E0	9.678369522E0	1.541576028E0
1.197237982E1	-1.394417405E0	9.602995872E0	1.348355532E0
1.198078284E1	-1.317248821E0	9.541978836E0	1.636092424E0
1.198918586E1	-1.253240824E0	9.601201057E0	1.451845169E0
1.199758888E1	-1.194616675E0	9.693324089E0	1.682752490E0
1.200599190E1	-1.091725349E0	9.890732765E0	1.784447432E0
1.201439492E1	-1.097109199E0	1.010608673E1	1.947159410E0
1.202279794E1	-1.122233868E0	1.023290634E1	2.163111687E0
1.203120096E1	-1.234696507E0	1.040758228E1	1.823330879E0
1.203960399E1	-1.134197950E0	1.055234814E1	1.672582984E0
1.204800700E1	-1.080957651E0	1.068156052E1	1.069591761E0
1.205641003E1	-1.175474167E0	1.076830006E1	9.828519225E-1
1.206481305E1	-1.269990563E0	1.095912743E1	6.508477330E-1
1.207321607E1	-1.371685624E0	1.140658569E1	7.357929349E-1
1.208161909E1	-1.233500123E0	1.200838089E1	1.024128079E0
1.209002211E1	-9.014959335E-1	1.303370476E1	1.213759303E0
1.209842513E1	-9.840483069E-1	1.401057434E1	1.453041553E0
1.210682815E1	-1.749751568E0	1.423609829E1	1.100100160E0
1.211523117E1	-2.644667149E0	1.405543995E1	5.503492355E-1
1.212363419E1	-2.958127022E0	1.405723476E1	-1.208375469E-1
1.213203721E1	-2.601596355E0	1.465185165E1	-7.022934556E-1
1.214044024E1	-2.233101845E0	1.560180187E1	-9.738788009E-1
1.214884326E1	-2.580060959E0	1.634537125E1	-1.259821177E0
1.215724628E1	-3.751347780E0	1.658465385E1	-1.791625977E0
1.216564930E1	-5.359922886E0	1.634477234E1	-1.642672777E0
1.217405232E1	-6.840481758E0	1.554736519E1	-2.918645382E0
1.218245534E1	-7.341778278E0	1.484746456E1	-3.112463951E0
1.219085836E1	-6.742375851E0	1.462971783E1	-2.386840582E0
1.219926138E1	-5.041079044E0	1.453280830E1	-1.356132269E0
1.220766440E1	-2.075773716E0	1.411526108E1	1.313659668E0
1.221606742E1	2.426920414E0	1.367438316E1	2.906083107E0
1.222447044E1	5.761318684E0	1.353918839E1	3.329014540E0
1.223287346E1	6.848856449E0	1.338784313E1	3.031706333E0
1.224127648E1	5.457430363E0	1.281715488E1	2.825923443E0
1.224967951E1	3.076571703E0	1.191266727E1	2.578864574E0
1.225808253E1	1.101894855E0	1.088495064E1	2.253440619E0
1.226648555E1	-1.369891018E-1	9.970891953E0	2.153540373E0
1.227488857E1	-6.927221417E-1	9.203393936E0	2.123630047E0
1.228329159E1	-1.087537885E0	8.303094864E0	2.120040894E0
1.229169461E1	-1.213759303E0	7.379465103E0	2.115853310E0
1.230009763E1	-1.064806104E0	6.654439926E0	1.255035520E0
1.230850065E1	-1.264008522E0	6.428916454E0	-2.608176768E-1
1.231690367E1	-2.434697002E-1	7.169494629E0	-1.005583763E0
1.232530669E1	2.084746838E0	7.909475327E0	-7.920243144E-1
1.233370971E1	3.603590965E0	7.820342541E0	1.638485312E0
1.234211274E1	3.520440340E0	6.452246189E0	2.884547710E0
1.235051576E1	2.486740828E0	5.076373100E0	2.667398930E0
1.235891878E1	1.229910851E0	3.716053486E0	2.124228239E0
1.236732180E1	5.838487148E-1	3.159124136E0	1.454237938E0
1.237572482E1	5.659025311E-1	3.556332588E0	1.169492126E0
1.238412784E1	9.924231768E-1	4.180859566E0	9.284151793E-1
1.239253086E1	1.545763373E0	4.364508629E0	7.830511928E-1
1.240093388E1	2.026122570E0	4.219144344E0	6.622136831E-1
1.240933690E1	2.365305185E0	4.074976921E0	4.157529473E-1
1.241773992E1	2.388635159E0	4.031906128E0	1.998006850E-1
1.242614294E1	2.034497499E0	3.965505362E0	2.147558331E-1
1.243454596E1	1.577468276E0	4.022933006E0	5.084748268E-1
1.244294899E1	1.266999602E0	4.168296814E0	6.562315822E-1
1.245135200E1	1.057029366E0	4.313661098E0	6.023930907E-1
1.245975503E1	7.507480979E-1	4.454837322E0	8.386843204E-1
1.246815805E1	3.792623878E-1	4.742574692E0	1.421934843E0
1.247656107E1	5.024927482E-2	5.195415974E0	1.756929994E0
1.248496409E1	-1.573280841E-1	5.846263885E0	1.890329838E0
1.249336711E1	-2.147558331E-1	6.563512325E0	1.969891191E0
1.250177013E1	-2.231307179E-1	7.257431030E0	2.184647083E0
1.251017315E1	-3.355933726E-1	7.925028801E0	2.468794823E0
1.251857617E1	-4.157529473E-1	8.512466431E0	2.423929453E0
1.252697919E1	-3.206382394E-1	9.069993973E0	2.199602127E0
1.253538221E1	-2.291127741E-1	9.673583984E0	1.958525300E0
1.254378524E1	-1.441675574E-1	1.028136063E1	1.694716692E0
1.255218826E1	-7.417750359E-2	1.089332485E1	1.574477315E0
1.256059128E1	4.606183618E-2	1.153340530E1	1.579262972E0
1.256899430E1	2.853440940E-1	1.226800156E1	1.749751568E0
1.257739732E1	4.600201547E-1	1.296311665E1	1.896910191E0
1.258580034E1	5.383850932E-1	1.340638733E1	1.865205288E0
1.259420336E1	6.598208547E-1	1.360259819E1	1.747956991E0
1.260260638E1	9.308080077E-1	1.367079353E1	1.670190215E0
1.261100940E1	1.314257860E0	1.385204983E1	1.647458434E0
1.261941242E1	1.641476393E0	1.425703526E1	1.482353687E0
1.262781544E1	1.734198213E0	1.497069454E1	1.178465128E0
1.263621846E1	1.941775560E0	1.583091450E1	9.146564603E-1
1.264462148E1	2.185843468E0	1.638545036E1	3.649054468E-1
1.265302451E1	2.158924341E0	1.639920998E1	-2.183450609E-1
1.266142753E1	1.887937069E0	1.586860180E1	-4.671986103E-1
1.266983055E1	1.944168448E0	1.537029648E1	-3.852444589E-1
1.267823357E1	2.819941521E0	1.531406498E1	-4.079762697E-1
1.268663659E1	3.889533281E0	1.549591923E1	-4.241278172E-1
1.269503961E1	4.453640938E0	1.552822208E1	-3.110669367E-2
1.270344263E1	4.610371113E0	1.503111362E1	2.321037948E-1
1.271184565E1	4.682155609E0	1.412782288E1	3.888336718E-1
1.272024867E1	4.867599487E0	1.318564892E1	6.340979934E-1
1.272865169E1	5.086542606E0	1.239661598E1	7.028916478E-1
1.273705471E1	5.185844898E0	1.166381359E1	4.480560422E-1
1.274545774E1	5.017150879E0	1.096750259E1	3.236292601E-1
1.275386076E1	4.686941147E0	1.033759212E1	4.055834413E-1
1.276226378E1	4.552943230E0	9.819545746E0	4.857429862E-1
1.277066680E1	4.575077057E0	9.466604233E0	3.104687333E-1
1.277906982E1	4.671986103E0	9.458230019E0	-2.057827413E-1
1.278747284E1	4.571487427E0	9.798010826E0	-7.848458290E-1
1.279587586E1	3.906881094E0	1.031665516E1	-1.319641709E0
1.280427888E1	2.413759947E0	1.107159042E1	-2.282154560E0
1.281268190E1	-1.060618639E0	1.232243824E1	-4.742574692E0
1.282108492E1	-8.825926781E0	1.356730461E1	-5.132006168E0
1.282948794E1	-2.200080872E1	1.318146133E1	6.594020844E0
1.283789096E1	-3.564827347E1	8.753543854E0	3.922434568E0
1.284629398E1	-2.911108017E1	6.619743824E0	-7.128817081E0
1.285469700E1	-1.550249958E1	7.568498135E0	-3.127419233E0
1.286310003E1	-2.376072884E0	1.144786167E1	2.739782035E-1
1.287150305E1	7.731209755E0	1.495813274E1	7.585247755E-1
1.287990607E1	1.145862961E1	1.628674698E1	1.105484009E0
1.288830909E1	1.017966557E1	1.506999683E1	-3.026920557E-1
1.289671211E1	4.787439823E0	1.114995575E1	-1.128215909E0
1.290511513E1	-3.529413417E-2	8.176275253E0	1.173081279E0
1.291351815E1	-2.209771633E0	7.240083218E0	4.715655327E0
1.292192117E1	-2.460419893E0	7.806583881E0	6.057430744E0
1.293032419E1	-2.191227436E0	8.851051331E0	5.118845940E0
1.293872721E1	-2.712264538E0	9.289535522E0	3.070589542E0
1.294713024E1	-3.416352510E0	9.175278664E0	1.765903115E0
1.295553326E1	-3.720839262E0	8.905488014E0	7.890332937E-1
1.296393628E1	-3.543770313E0	9.177671432E0	6.119644046E-1
1.297233930E1	-2.937788010E0	9.759127617E0	5.892325640E-1
1.298074232E1	-2.436491728E0	1.004626560E1	1.680957973E-1
1.298914534E1	-2.310868502E0	1.016770172E1	1.381855011E-1
1.299754836E1	-2.373680115E0	1.009053326E1	4.504488707E-1
1.300595138E1	-2.380260229E0	9.912267685E0	8.327022791E-1
1.301435440E1	-2.185843468E0	9.784252167E0	1.189831018E0
1.302275742E1	-1.997408748E0	9.708279610E0	1.494317770E0
1.303116044E1	-2.198405743E0	9.516255379E0	1.534995675E0
1.303956346E1	-2.544168711E0	9.340383530E0	1.676172256E0
1.304796649E1	-2.742174864E0	9.231510162E0	1.810768485E0
1.305636951E1	-2.709871531E0	9.210572243E0	2.068595171E0
1.306477253E1	-2.508874655E0	9.160323143E0	2.243869543E0
1.307317555E1	-2.537588358E0	9.028717995E0	2.421536446E0
1.308157857E1	-2.790629387E0	8.888737679E0	2.420340061E0
1.308998159E1	-2.868994236E0	9.031708717E0	2.230708838E0
1.309838461E1	-2.648256540E0	9.309874535E0	1.998006940E0
1.310678763E1	-2.427518606E0	9.524032593E0	1.918445587E0
1.311519065E1	-2.400599241E0	9.533603668E0	1.885544300E0
1.312359367E1	-2.422732830E0	9.417551994E0	1.788036704E0
1.313199669E1	-2.313261271E0	9.390034676E0	1.553540111E0
1.314039971E1	-2.087737799E0	9.499505997E0	1.405783296E0
1.314880274E1	-1.881356835E0	9.612566948E0	1.486541033E0
1.315720576E1	-1.842473388E0	9.555138588E0	1.785045743E0
1.316560878E1	-2.113460541E0	9.304491043E0	2.208575249E0
1.317401180E1	-2.567498684E0	9.021539688E0	2.563311338E0
1.318241482E1	-2.864806890E0	8.831908226E0	2.620140791E0
1.319081784E1	-2.904288530E0	8.776873589E0	2.420340061E0
1.319922086E1	-2.691327333E0	8.866603851E0	2.149353027E0
1.320762388E1	-2.261217356E0	9.080163956E0	2.024327993E0
1.321602690E1	-1.826920033E0	9.287142754E0	1.955534339E0
1.322442992E1	-1.590628862E0	9.406784058E0	1.871785522E0
1.323283294E1	-1.576870084E0	9.433105469E0	1.801795483E0
1.324123596E1	-1.658226132E0	9.427721024E0	1.738983870E0
1.324963898E1	-1.737787485E0	9.406186104E0	1.689332843E0
1.325804200E1	-1.761715651E0	9.411569595E0	1.719243050E0
1.326644503E1	-1.677966833E0	9.443274498E0	1.852044702E0
1.327484805E1	-1.741376638E0	9.412766457E0	1.880160451E0
1.328325107E1	-2.053640127E0	9.213563919E0	2.003988981E0
1.329165409E1	-2.289333105E0	9.367302895E0	1.980060697E0
1.330005711E1	-2.140978098E0	9.531210899E0	1.911267042E0
1.330846013E1	-2.024327993E0	9.317651749E0	2.079362869E0
1.331686315E1	-1.665404558E0	9.239884377E0	2.012363911E0
1.332526617E1	-1.340578914E0	9.458230019E0	1.735992789E0
1.333366919E1	-1.262812138E0	9.458827972E0	2.038086653E0
1.334207221E1	-1.231705427E0	9.528818130E0	1.673779488E0
1.335047524E1	-1.441675663E0	9.664012909E0	1.393819213E0
1.335887826E1	-1.673181176E0	9.546165466E0	1.604985833E0
1.336728128E1	-1.813759565E0	9.425926208E0	1.284945726E0
1.337568430E1	-1.849053741E0	9.500701904E0	1.007378340E0
1.338408732E1	-1.729412556E0	9.546764374E0	1.366899967E0
1.339249034E1	-1.564307809E0	9.589237213E0	1.494317770E0
1.340089336E1	-1.536790371E0	9.638887405E0	1.628913999E0
1.340929638E1	-1.757528186E0	9.600603104E0	1.680359721E0
1.341769940E1	-2.088335991E0	9.483354568E0	1.758724689E0
1.342610242E1	-2.072782516E0	9.479166985E0	1.877169371E0
1.343450544E1	-2.046461582E0	9.460622787E0	1.939382792E0
1.344290846E1	-2.105684042E0	9.379266739E0	2.168495417E0
1.345131149E1	-1.924427629E0	9.433703423E0	2.455035925E0
1.345971450E1	-1.881955028E0	9.479166985E0	2.329412937E0
1.346811753E1	-1.914856315E0	9.444471359E0	2.518445730E0
1.347652055E1	-1.868794441E0	9.460023880E0	2.260020971E0
1.348492357E1	-1.841277003E0	9.551549911E0	2.009970903E0
1.349332659E1	-1.545165181E0	9.718449593E0	2.021337032E0
1.350172961E1	-1.203589797E0	1.007079220E1	1.424925923E0
1.351013263E1	-9.290133715E-1	1.043390274E1	1.571486235E0
1.351853565E1	-9.164510965E-1	1.074018478E1	1.360917926E0
1.352693867E1	-1.156929731E0	1.091964626E1	1.199402332E0
1.353534169E1	-1.077966571E0	1.099681473E1	7.190431952E-1
1.354374471E1	-5.802595019E-1	1.127258778E1	-8.195417374E-2
1.355214774E1	-3.110669553E-1	1.194317627E1	7.495517135E-1
1.356055076E1	1.375873014E-2	1.298584843E1	1.387238979E0
1.356895378E1	-1.363908947E-1	1.419003677E1	1.509871125E0
1.357735680E1	-1.526620865E0	1.447657681E1	1.075573802E0
1.358575982E1	-2.991626501E0	1.388196087E1	6.490531564E-1
1.359416284E1	-3.668197155E0	1.313898945E1	-2.859423161E-1
1.360256586E1	-2.919243574E0	1.322213936E1	-6.269195080E-1
1.361096888E1	-1.962114573E0	1.403031540E1	-8.285148144E-1
1.361937190E1	-1.802393675E0	1.480499172E1	-9.696913958E-1
1.362777492E1	-2.563909531E0	1.524108410E1	-8.937192559E-1
1.363617794E1	-3.955934048E0	1.529851151E1	-8.446664214E-1
1.364458096E1	-5.429912567E0	1.506640816E1	-1.060020447E0
1.365298398E1	-6.071787357E0	1.491326714E1	-1.521835208E0
1.366138701E1	-5.928217888E0	1.521416473E1	-1.365105271E0
1.366979003E1	-5.750551224E0	1.576690674E1	-1.052842021E0
1.367819305E1	-5.229514122E0	1.640399551E1	-1.642672777E0
1.368659607E1	-5.446064472E0	1.697348785E1	5.443671346E-1
1.369499909E1	-6.133402824E0	1.588654804E1	2.833101988E0
1.370340211E1	-4.401597023E0	1.393759346E1	3.195614576E0
1.371180513E1	-1.369891018E-1	1.297687531E1	3.112463951E0
1.372020815E1	4.180261135E0	1.306062412E1	3.954139471E0
1.372861117E1	5.975476265E0	1.315573883E1	4.030111313E0
1.373701419E1	5.292325497E0	1.266700459E1	3.502494097E0
1.374541721E1	3.299702406E0	1.162792206E1	3.028715372E0
1.375382024E1	1.645663738E0	1.022871876E1	2.742773056E0
1.376222326E1	5.102694035E-1	8.599804878E0	2.458027124E0
1.377062628E1	-9.152546525E-2	7.158727169E0	2.133201361E0
1.377902930E1	-1.375873014E-2	6.325426579E0	1.843669891E0
1.378743232E1	6.334998012E-1	6.074180126E0	1.417747438E-1
1.379583534E1	4.277170599E-1	6.417550564E0	-1.041476011E0
1.380423836E1	1.238883972E0	7.226324558E0	-1.858624935E0
1.381264138E1	3.397808075E0	7.406982422E0	-2.679961324E-1
1.382104440E1	4.644468784E0	6.778268337E0	1.989033818E0
1.382944742E1	4.060021877E0	5.479563713E0	2.562713146E0
1.383785044E1	2.646461725E0	3.972683907E0	1.811964989E0
1.384625346E1	1.465603828E0	2.952743053E0	8.650053740E-1
1.385465649E1	7.441678643E-1	2.727817774E0	5.455635786E-1
1.386305950E1	7.268198729E-1	3.248256683E0	6.598208547E-1
1.387146253E1	1.259821177E0	3.768695593E0	5.976074338E-1
1.387986555E1	1.775474429E0	3.911068678E0	5.126622319E-1
1.388826857E1	2.105085611E0	3.844069481E0	2.775674164E-1
1.389667159E1	2.245664120E0	3.832105398E0	4.546362907E-2
1.390507461E1	2.130808592E0	3.966103554E0	3.230310604E-2
1.391347763E1	1.748555183E0	4.033102512E0	1.046859920E-1
1.392188065E1	1.307079315E0	4.053441525E0	3.314059377E-1
1.393028367E1	9.230313301E-1	4.103092670E0	5.222335458E-1
1.393868669E1	4.504488707E-1	4.154538155E0	8.009973764E-1
1.394708971E1	-2.691925503E-2	4.409373760E0	1.097109199E0
1.395549274E1	-4.313062727E-1	4.900500774E0	1.305284739E0
1.396389576E1	-8.045865893E-1	5.504688263E0	1.368694544E0
1.397229878E1	-1.152144074E0	6.129813194E0	1.331605792E0
1.398070180E1	-1.420738459E0	6.826124668E0	1.213759303E0
1.398910482E1	-1.508076429E0	7.567301750E0	1.164108157E0
1.399750784E1	-1.360917926E0	8.213961601E0	1.048056364E0
1.400591086E1	-1.094118118E0	8.821739197E0	8.554341197E-1
1.401431388E1	-7.280163169E-1	9.454042435E0	6.699903607E-1
1.402271690E1	-3.314059377E-1	1.003789139E1	5.198407173E-1
1.403111992E1	-5.982056633E-2	1.057149029E1	3.906283081E-1
1.403952294E1	3.589234129E-2	1.110628605E1	3.445664644E-1
1.404792596E1	6.101697683E-2	1.161176968E1	3.272185028E-1
1.405632898E1	6.580262631E-2	1.206042480E1	1.902294010E-1
1.406473201E1	2.123630047E-1	1.248634720E1	4.325026870E-1
1.407313503E1	6.047859192E-1	1.292901897E1	6.071787477E-1
1.408153805E1	1.282552958E0	1.328076363E1	5.359922647E-1
1.408994107E1	1.908874273E0	1.356850052E1	6.017948985E-1
1.409834409E1	2.557927370E0	1.401476192E1	7.064808607E-1
1.410674711E1	3.300300598E0	1.471286869E1	6.628118753E-1
1.411515013E1	3.972085476E0	1.534457302E1	4.205385745E-1
1.412355315E1	3.819543123E0	1.552343655E1	-1.196411345E-2
1.413195617E1	2.929413080E0	1.553121376E1	-2.763710022E-1
1.414035919E1	2.162513494E0	1.545344639E1	-3.343969584E-1
1.414876221E1	2.196611166E0	1.528834248E1	-3.266202807E-1
1.415716524E1	2.999403238E0	1.534576988E1	2.458625287E-1
1.416556826E1	4.191029072E0	1.544088459E1	7.118647099E-1
1.417397128E1	5.055436134E0	1.546122360E1	1.122832060E0
1.418237430E1	5.430510998E0	1.515853119E1	1.481157184E0
1.419077732E1	5.558526993E0	1.433779335E1	1.412363529E0
1.419918034E1	5.679364681E0	1.332443333E1	1.288534999E0
1.420758336E1	5.895915031E0	1.239960670E1	1.118644595E0
1.421598638E1	6.104090691E0	1.162732315E1	8.231309652E-1
1.422438940E1	6.165107727E0	1.097946644E1	5.922235847E-1
1.423279242E1	6.026323795E0	1.047637558E1	4.779663086E-1
1.424119544E1	5.772086620E0	1.007378292E1	3.816552162E-1
1.424959846E1	5.585446358E0	1.006181908E1	1.232303679E-1
1.425800149E1	5.297111034E0	1.061456108E1	-1.525424421E-1
1.426640450E1	4.120440483E0	1.163031483E1	-1.088734269E0
1.427480753E1	-4.366901219E-1	1.255035496E1	-3.857828379E0
1.428321055E1	-9.668199539E0	1.349013615E1	-4.680959225E0
1.429161357E1	-2.415913391E1	1.429532051E1	5.315057278E0
1.430001659E1	-4.077010727E1	1.079761219E1	2.295913219E0
1.430841961E1	-3.245206070E1	8.884550095E0	-5.996413708E0
1.431682263E1	-1.529312801E1	8.858229637E0	-2.448455811E0
1.432522565E1	5.545366406E-1	1.119302654E1	1.271187067E0
1.433362867E1	1.052662468E1	1.306720448E1	1.699502230E0
1.434203169E1	1.323470211E1	1.398485184E1	1.013360381E0
1.435043471E1	1.157767200E1	1.263709450E1	-1.616949916E0
1.435883774E1	5.464010715E0	8.732007980E0	-3.133999348E0
1.436724076E1	1.052841991E-1	6.991229534E0	-9.194421172E-1
1.437564378E1	-2.280359983E0	7.080362320E0	2.238485575E0
1.438404680E1	-2.469393015E0	8.548358917E0	4.719244480E0
1.439244982E1	-1.872981906E0	1.031545830E1	5.632704735E0
1.440085284E1	-1.715653777E0	1.155314636E1	5.097310543E0
1.440925586E1	-2.323430777E0	1.170867920E1	3.221337557E0
1.441765888E1	-3.323032379E0	1.072881889E1	1.578066587E0
1.442606190E1	-4.178466320E0	9.680762291E0	9.068797827E-1
1.443446492E1	-4.237090588E0	9.050851822E0	8.440681696E-1
1.444286794E1	-3.362514019E0	8.994022369E0	6.233302951E-1
1.445127096E1	-2.170290232E0	9.285347939E0	6.831508875E-1
1.445967398E1	-1.408176184E0	9.324232101E0	9.517452121E-1
1.446807701E1	-1.296311617E0	9.262616158E0	1.341177106E0
1.447648003E1	-1.673779488E0	9.330213547E0	1.726421595E0
1.448488305E1	-2.099103689E0	9.446265221E0	1.782652855E0
1.449328607E1	-2.462812662E0	9.567103386E0	1.521835208E0
1.450168909E1	-2.547159672E0	9.635298729E0	1.297508121E0
1.451009211E1	-2.389233351E0	9.613164902E0	1.499103427E0
1.451849513E1	-2.135594130E0	9.523433685E0	1.839482427E0
1.452689815E1	-1.998605132E0	9.305686951E0	2.200798512E0
1.453530117E1	-2.249851465E0	8.997611046E0	2.241476536E0
1.454370419E1	-2.615953445E0	8.891729355E0	2.068595171E0
1.455210721E1	-2.691925526E0	9.069396019E0	1.847259045E0
1.456051024E1	-2.448455811E0	9.364909172E0	1.673779488E0
1.456891326E1	-2.167897224E0	9.541379929E0	1.598405480E0
1.457731628E1	-2.053041935E0	9.611968994E0	1.474576950E0
1.458571930E1	-2.170888424E0	9.611370087E0	1.496112347E0
1.459412232E1	-2.354537487E0	9.580862045E0	1.709073544E0
1.460252534E1	-2.238485575E0	9.439086914E0	1.752144337E0
1.461092836E1	-1.640878081E0	9.419346809E0	1.470987678E0
1.461933138E1	-1.043270707E0	9.635896683E0	1.458425403E0
1.462773440E1	-9.320043921E-1	9.743574142E0	1.635494232E0
1.463613742E1	-1.246660590E0	9.571888924E0	1.725823283E0
1.464454044E1	-1.674377680E0	9.381061554E0	1.663609982E0
1.465294346E1	-1.957927108E0	9.373284340E0	1.552941918E0
1.466134649E1	-2.021935225E0	9.470193863E0	1.566700578E0
1.466974950E1	-1.981257200E0	9.509675026E0	1.744965911E0
1.467815253E1	-1.941775560E0	9.478569031E0	1.874776483E0
1.468655555E1	-1.883151412E0	9.434301376E0	1.810768485E0
1.469495857E1	-1.626521230E0	9.527621269E0	1.902892232E0
1.470336159E1	-1.408774376E0	9.494122505E0	1.646860242E0
1.471176461E1	-1.325623751E0	9.421140671E0	1.652244091E0
1.472016763E1	-1.305284739E0	9.488738060E0	1.821536183E0
1.472857065E1	-1.401595831E0	9.453444481E0	2.143969059E0
1.473697367E1	-1.506281853E0	9.332008362E0	2.331207514E0
1.474537669E1	-1.807777524E0	9.200403214E0	1.956132531E0
1.475377971E1	-1.804786444E0	9.449256897E0	1.821536183E0
1.476218274E1	-1.722832322E0	9.450452805E0	1.791027784E0
1.477058576E1	-1.293320656E0	9.522237778E0	1.722234130E0
1.477898878E1	-8.620143533E-1	9.808777809E0	1.515853167E0
1.478739180E1	-7.692924738E-1	9.768698692E0	1.331605792E0
1.479579482E1	-9.391828775E-1	9.704689980E0	1.544566989E0
1.480419784E1	-1.124626637E0	9.671789169E0	1.591825247E0
1.481260086E1	-1.255633712E0	9.557532310E0	1.426122308E0
1.482100388E1	-1.369292736E0	9.642477036E0	1.231705427E0
1.482940690E1	-1.107278705E0	9.690333366E0	1.291526079E0
1.483780992E1	-6.903293133E-1	9.761520386E0	1.204786181E0
1.484621294E1	-7.621139884E-1	9.883553505E0	1.268794179E0
1.485461596E1	-8.901300430E-1	9.851250648E0	1.747956991E0
1.486301898E1	-1.082154036E0	9.746564865E0	1.645065546E0
1.487142201E1	-1.702493310E0	9.640084267E0	1.369292736E0
1.487982503E1	-1.911865234E0	9.512067795E0	1.709073544E0
1.488822805E1	-1.756331801E0	9.396016121E0	1.671984792E0
1.489663107E1	-1.825125456E0	9.270393372E0	1.631306887E0
1.490503409E1	-1.626521230E0	9.172885895E0	2.020140409E0
1.491343711E1	-1.493121386E0	9.305088997E0	1.802991867E0
1.492184013E1	-1.582852125E0	9.501300812E0	2.098505497E0
1.493024315E1	-1.451246977E0	9.674181938E0	2.261217356E0
1.493864617E1	-1.520638824E0	9.808179855E0	1.959123492E0
1.494704919E1	-1.481755376E0	9.845269203E0	2.307279348E0
1.495545221E1	-1.356132269E0	9.900901794E0	1.647458434E0
1.496385524E1	-1.089930773E0	9.964311600E0	1.859223247E0
1.497225826E1	-7.495517135E-1	1.018863869E1	1.422533035E0
1.498066128E1	-5.892325640E-1	1.054696369E1	7.094719410E-1
1.498906430E1	-1.932204217E-1	1.092203903E1	2.650051117E-1
1.499746732E1	-2.458625287E-1	1.131745243E1	-1.082752272E-1
1.500587034E1	-4.845465720E-1	1.144845963E1	3.110669553E-1
1.501427336E1	-6.466603279E-1	1.156271744E1	2.452643216E-2
1.502267638E1	-9.038887620E-1	1.178524971E1	8.853443712E-2
1.503107940E1	-8.811569214E-1	1.227039433E1	5.629115105E-1
1.503948242E1	-4.959124923E-1	1.329212952E1	1.181456208E0
1.504788544E1	-5.282155871E-1	1.422054482E1	1.454836130E0
1.505628846E1	-1.701296926E0	1.409970760E1	1.310070395E0
1.506469148E1	-2.970091105E0	1.334058475E1	7.692924738E-1
1.507309450E1	-3.547957659E0	1.288176060E1	-3.451646566E-1
1.508149753E1	-3.119044304E0	1.323230934E1	-6.305087805E-1
1.508990055E1	-2.716451883E0	1.411705494E1	-8.979067206E-1
1.509830357E1	-2.995215654E0	1.511905003E1	-8.099704385E-1
1.510670659E1	-4.313062668E0	1.578425503E1	-7.902296782E-1
1.511510961E1	-6.329614162E0	1.548216057E1	-8.452646136E-1
1.512351263E1	-7.771289825E0	1.477627850E1	-8.111668825E-1
1.513191565E1	-7.758129120E0	1.447837162E1	-1.432104349E0
1.514031867E1	-5.425127029E0	1.512802315E1	-1.820339799E0
1.514872169E1	-2.831307411E0	1.614377594E1	1.402792215E0
1.515712471E1	1.740778536E-1	1.608335686E1	3.476771355E0
1.516552774E1	4.196412563E0	1.576271915E1	2.468794823E0
1.517393076E1	6.734599113E0	1.587099457E1	3.841676712E0
1.518233378E1	6.779464722E0	1.598764420E1	3.591028690E0
1.519073680E1	4.321437836E0	1.522373581E1	2.946162939E0
1.519913982E1	9.014959335E-1	1.365763378E1	2.476571321E0
1.520754284E1	-1.494915962E0	1.200060368E1	2.435893536E0
1.521594586E1	-2.611765862E0	1.050688457E1	2.356332064E0
1.522434888E1	-2.808575630E0	9.081958771E0	2.248655081E0
1.523275190E1	-2.160718918E0	7.816154957E0	1.898106575E0
1.524115492E1	-7.686942816E-1	6.937391281E0	9.900303483E-1
1.524955794E1	6.568298340E-1	6.576673031E0	4.253242314E-1
1.525796096E1	1.095912814E0	6.783053875E0	-1.609173268E-1
1.526636399E1	1.846660852E0	7.436294556E0	-5.461617708E-1
1.527476701E1	3.627519131E0	7.734799385E0	2.428714931E-1
1.528317003E1	4.823930264E0	6.861418724E0	2.624328136E0
1.529157305E1	4.301098824E0	5.602196217E0	2.764308453E0
1.529997607E1	3.001197815E0	4.354937077E0	1.188634634E0
1.530837909E1	1.527219057E0	3.468994617E0	2.823530734E-1
1.531678211E1	3.726821244E-1	3.069393158E0	6.245267391E-1
1.532518513E1	-4.127619043E-2	2.781656265E0	1.237089276E0
1.533358815E1	3.098705411E-1	2.618944407E0	1.513460279E0
1.534199117E1	1.060618639E0	2.715853691E0	1.353739381E0
1.535039419E1	1.759322882E0	2.991626501E0	1.083350420E0
1.535879721E1	2.241476536E0	3.241078377E0	5.102694035E-1
1.536720024E1	2.314457655E0	3.513859987E0	1.064806059E-1
1.537560326E1	1.955534339E0	3.741178274E0	1.645065546E-1
1.538400628E1	1.540379524E0	4.033102512E0	3.098705411E-1
1.539240930E1	1.185045362E0	4.372285366E0	5.461617708E-1
1.540081232E1	8.033902049E-1	4.569094658E0	8.787640929E-1
1.540921534E1	5.084748268E-1	4.599603176E0	9.852447510E-1
1.541761836E1	3.385843933E-1	4.686343193E0	1.009771109E0
1.542602138E1	2.051845491E-1	4.935794830E0	1.001396298E0
1.543442440E1	5.982056609E-4	5.384449005E0	9.978070259E-1
1.544282742E1	-3.355933726E-1	5.700900078E0	1.157527924E0
1.545123044E1	-5.413761139E-1	6.123831272E0	1.379462242E0
1.545963346E1	-5.066801906E-1	6.932007313E0	1.352542996E0
1.546803648E1	-5.383850932E-1	7.357929707E0	1.720439434E0
1.547643950E1	-1.657029688E-1	7.971688747E0	1.784447432E0
1.548484253E1	2.919243574E-1	8.563912392E0	1.671386600E0
1.549324555E1	6.705885530E-1	9.136993408E0	1.664806366E0
1.550164857E1	9.601200819E-1	9.786644936E0	1.607378602E0
1.551005159E1	1.056431174E0	1.039681435E1	1.413560033E0
1.551845461E1	9.822536707E-1	1.104526901E1	1.198205948E0
1.552685763E1	7.866404653E-1	1.171466160E1	1.269392371E0
1.553526065E1	4.205385745E-1	1.221655560E1	1.307677627E0
1.554366367E1	2.009970993E-1	1.251685524E1	1.236491084E0
1.555206669E1	2.548356056E-1	1.274836063E1	1.169492126E0
1.556046971E1	4.307080805E-1	1.304207993E1	1.259222865E0
1.556887274E1	7.429714203E-1	1.341655636E1	1.240678549E0
1.557727576E1	1.269990563E0	1.397229004E1	1.186840057E0
1.558567878E1	2.106282234E0	1.477388477E1	1.276570916E0
1.559408180E1	3.124428272E0	1.546600914E1	8.991031051E-1
1.560248482E1	3.790230989E0	1.597747517E1	3.463610709E-1
1.561088784E1	3.841078520E0	1.628196144E1	-4.785645381E-2
1.561929086E1	3.381656647E0	1.635494232E1	-3.882354796E-1
1.562769388E1	2.852842808E0	1.622154236E1	-4.360919297E-1
1.563609690E1	2.782254457E0	1.590269947E1	-1.980060786E-1
1.564449992E1	3.367897987E0	1.560180187E1	-3.170489892E-2
1.565290294E1	4.324428558E0	1.529611874E1	5.682953820E-2
1.566130596E1	5.157729149E0	1.514596939E1	1.286142170E-1
1.566970899E1	5.699105263E0	1.502513123E1	3.864408433E-1
1.567811201E1	6.101099491E0	1.468056488E1	6.586244106E-1
1.568651503E1	6.520441532E0	1.380539036E1	6.891329288E-1
1.569491805E1	6.962515831E0	1.269571877E1	5.383850932E-1
1.570332107E1	7.306483746E0	1.159741306E1	1.280160099E-1
1.571172409E1	7.456035137E0	1.075394344E1	-1.890329868E-1
1.572012711E1	7.286144733E0	1.033101177E1	-3.864408433E-1
1.572853013E1	6.759724140E0	1.021795082E1	-4.683950245E-1
1.573693315E1	6.181259155E0	1.026461124E1	-6.131607890E-1
1.574533617E1	5.626722336E0	1.084008503E1	-1.061216831E0
1.575373919E1	4.126422882E0	1.165603733E1	-1.942373753E0
1.576214221E1	8.554340899E-2	1.297268772E1	-5.142175674E0
1.577054524E1	-9.119047165E0	1.384905910E1	-5.806184292E0
1.577894826E1	-2.593221474E1	1.262453270E1	9.627521515E0
1.578735128E1	-4.310849380E1	7.676175117E0	2.861217737E0
1.579575430E1	-3.239702225E1	6.433103561E0	-9.872786522E0
1.580415732E1	-1.596132374E1	7.530212879E0	-3.594019651E0
1.581256034E1	-5.102694035E-1	1.163809109E1	7.274180651E-1
1.582096336E1	9.827322960E0	1.534816265E1	2.054836512E0
1.582936638E1	1.368275833E1	1.669472313E1	1.568495274E0
1.583776940E1	1.254437256E1	1.522553062E1	-1.800599098E-1
1.584617242E1	7.107879639E0	1.161057377E1	9.631111026E-1
1.585457544E1	2.478964329E0	8.924630165E0	3.643670797E0
1.586297846E1	3.343969584E-1	8.559724808E0	5.842076302E0
1.587138148E1	-5.144568682E-1	9.273982048E0	5.521438122E0
1.587978451E1	-1.899901152E0	9.471988678E0	3.955335855E0
1.588818753E1	-3.789632797E0	8.661419868E0	2.411965132E0
1.589659055E1	-5.020740032E0	8.047660828E0	1.030110121E0
1.590499357E1	-5.470590591E0	8.060222626E0	1.049252748E0
1.591339659E1	-4.758726120E0	8.943773270E0	9.595218897E-1
1.592179961E1	-3.231507063E0	1.026281643E1	4.456632137E-1
1.593020263E1	-1.871187329E0	1.110628605E1	2.889333367E-1
1.593860565E1	-1.114457130E0	1.126780224E1	2.703889608E-1
1.594700867E1	-9.128618240E-1	1.080120182E1	2.937189937E-1
1.595541169E1	-1.147956610E0	1.005703354E1	5.234299302E-1
1.596381471E1	-1.603191137E0	9.449256897E0	9.463613629E-1
1.597221774E1	-2.132603168E0	9.136395454E0	1.461416483E0
1.598062076E1	-2.585444927E0	9.066405296E0	1.858624935E0
1.598902378E1	-2.815753937E0	9.124430656E0	2.070389748E0
1.599742680E1	-2.816352367E0	9.345767021E0	2.265404940E0
1.600582982E1	-2.683550596E0	9.468997002E0	2.410768747E0
1.601423284E1	-2.712862730E0	9.325428009E0	2.397608280E0
1.602263586E1	-3.029313564E0	8.943773270E0	2.732603550E0
1.603103888E1	-3.175873756E0	8.617152214E0	2.723032236E0
1.603944190E1	-2.770290375E0	8.680562019E0	2.328216314E0
1.604784492E1	-2.373680115E0	9.075976372E0	2.062613010E0
1.605624794E1	-2.251047850E0	9.393623352E0	2.017747641E0
1.606465096E1	-2.257628202E0	9.487542152E0	2.042872429E0
1.607305398E1	-2.154736757E0	9.476774216E0	1.987239242E0
1.608145700E1	-1.827518344E0	9.519845009E0	1.783849239E0
1.608986003E1	-1.417747378E0	9.521040916E0	1.692921996E0
1.609826305E1	-1.124626637E0	9.448657990E0	1.743171334E0
1.610666607E1	-9.607182741E-1	9.337990761E0	1.671984792E0
1.611506909E1	-1.041476011E0	9.324232101E0	1.671386600E0
1.612347211E1	-1.356132269E0	9.324232101E0	1.765903115E0
1.613187513E1	-1.772483349E0	9.343972206E0	1.894517303E0
1.614027815E1	-2.148754835E0	9.439086914E0	2.034497499E0
1.614868117E1	-2.393420935E0	9.406186104E0	1.962114573E0
1.615708419E1	-2.336591244E0	9.290732384E0	1.951346874E0
1.616548721E1	-1.927418590E0	9.297312737E0	1.936989903E0
1.617389024E1	-1.416550994E0	9.392427444E0	1.683350682E0
1.618229326E1	-9.272187948E-1	9.524032593E0	1.603789330E0
1.619069628E1	-7.082754970E-1	9.620942116E0	1.730608940E0
1.619909930E1	-8.560323119E-1	9.539586067E0	1.959123492E0
1.620750232E1	-1.168295622E0	9.349954605E0	2.262413740E0
1.621590534E1	-1.561316729E0	9.311669350E0	2.009372711E0
1.622430836E1	-1.896910191E0	9.425328255E0	1.828714728E0
1.623271138E1	-1.917847395E0	9.600603104E0	1.948953986E0
1.624111440E1	-1.735992789E0	9.389435768E0	2.104487419E0
1.624951742E1	-1.161117196E0	9.672985077E0	1.988435626E0
1.625792044E1	-8.871390224E-1	9.677172661E0	1.786242127E0
1.626632346E1	-1.052842021E0	9.615557671E0	1.657029629E0
1.627472649E1	-1.251446247E0	9.630513191E0	1.609771490E0
1.628312950E1	-1.423131227E0	9.631709099E0	1.435095429E0
1.629153253E1	-1.547558069E0	9.606584549E0	1.212562919E0
1.629993555E1	-1.702493310E0	9.636494637E0	1.142572761E0
1.630833857E1	-1.608574986E0	9.631709099E0	1.264606714E0
1.631674159E1	-1.371087432E0	9.775279045E0	1.574477315E0
1.632514461E1	-1.392622828E0	9.723833084E0	2.007578135E0
1.633354763E1	-1.569691658E0	9.545567513E0	1.995015860E0
1.634195065E1	-2.039283037E0	9.373882294E0	1.696511269E0
1.635035367E1	-2.121835470E0	9.187242508E0	1.954936147E0
1.635875669E1	-1.832902193E0	9.072985649E0	2.188834429E0
1.636715971E1	-1.858026743E0	9.130413055E0	1.881356835E0
1.637556274E1	-1.832902193E0	9.250652313E0	2.494517565E0
1.638396576E1	-1.548754454E0	9.494720459E0	2.689532757E0
1.639236878E1	-1.696511269E0	9.646664619E0	2.238485575E0
1.640077180E1	-1.885544300E0	9.644869804E0	2.437688112E0
1.640917482E1	-1.625923038E0	9.795618057E0	1.978864312E0
1.641757784E1	-1.571486235E0	9.981659889E0	1.647458434E0
1.642598086E1	-1.277169108E0	1.016829967E1	1.663011789E0
1.643438388E1	-1.043868899E0	1.038305569E1	1.013360381E0
1.644278690E1	-7.645068169E-1	1.054158020E1	9.720842242E-1
1.645118992E1	-4.384847581E-1	1.084726334E1	9.116654396E-1
1.645959294E1	-3.607180119E-1	1.161176968E1	4.905286431E-1
1.646799596E1	-3.385843933E-1	1.272084332E1	1.823929071E0
1.647639898E1	-7.130611539E-1	1.377009583E1	1.773081541E0
1.648480201E1	-1.747956991E0	1.431266880E1	1.648654819E0
1.649320503E1	-2.887538671E0	1.413141251E1	1.170688510E0
1.650160805E1	-3.266801119E0	1.375394440E1	5.928218365E-1
1.651001107E1	-3.001197815E0	1.362054443E1	-1.728814393E-1
1.651841409E1	-2.308475733E0	1.378564930E1	-7.561319470E-1
1.652681711E1	-1.762912035E0	1.423250866E1	-1.252642632E0
1.653522013E1	-1.759921074E0	1.469133282E1	-1.473978758E0
1.654362315E1	-2.560320139E0	1.508136272E1	-1.715653777E0
1.655202617E1	-3.981656790E0	1.518365574E1	-1.933400750E0
1.656042919E1	-5.191826820E0	1.491087437E1	-1.883151412E0
1.656883221E1	-5.559125423E0	1.454477215E1	-2.394019127E0
1.657723524E1	-5.167300701E0	1.462313747E1	-2.217548370E0
1.658563826E1	-4.808377266E0	1.515195084E1	-1.990230203E0
1.659404128E1	-4.350749969E0	1.560359669E1	-9.864411354E-1
1.660244430E1	-3.937389612E0	1.539302826E1	1.783251047E0
1.661084732E1	-1.662413478E0	1.457707596E1	2.752942562E0
1.661925034E1	2.344966173E0	1.442453289E1	3.168097258E0
1.662765336E1	5.398806095E0	1.478166199E1	3.634697676E0
1.663605638E1	5.971288681E0	1.475354576E1	3.415156126E0
1.664445940E1	4.249054909E0	1.384367561E1	2.827120066E0
1.665286242E1	1.913659930E0	1.264965725E1	2.453839540E0
1.666126544E1	-2.273181453E-2	1.122532940E1	2.572882652E0
1.666966846E1	-1.185045362E0	9.427123070E0	2.685943365E0
1.667807148E1	-1.243669510E0	7.866404533E0	2.521436930E0
1.668647450E1	-1.160518974E-1	7.100701332E0	1.436291814E0
1.669487753E1	7.369893789E-1	7.188039303E0	3.661018610E-1
1.670328055E1	5.964110494E-1	8.222336769E0	7.896314561E-2
1.671168357E1	1.634896040E0	8.955737114E0	-9.272187948E-1
1.672008659E1	2.666800737E0	8.608179092E0	6.939185858E-1
1.672848961E1	2.264208317E0	6.844669342E0	2.713460922E0
1.673689263E1	8.374879360E-1	4.925625324E0	1.721037745E0
1.674529565E1	-2.165504545E-1	3.390031576E0	6.263213158E-1
1.675369867E1	-6.759724021E-1	2.806182861E0	5.054838061E-1
1.676210169E1	-4.803591371E-1	3.038884640E0	8.632107973E-1
1.677050471E1	5.976074338E-1	3.102294445E0	9.062815905E-1
1.677890774E1	1.649253011E0	3.200400352E0	6.257231236E-1
1.678731076E1	2.128415823E0	3.503690481E0	4.618147612E-1
1.679571378E1	2.258824587E0	3.835694790E0	5.365904570E-1
1.680411680E1	2.509472847E0	4.054637909E0	2.865405083E-1
1.681251982E1	2.501097918E0	4.110270977E0	-6.580262445E-3
1.682092284E1	2.030309916E0	4.112065792E0	-1.357926875E-1
1.682932586E1	1.350150228E0	4.027718544E0	-4.785645381E-2
1.683772888E1	8.829515576E-1	4.210171223E0	-7.357929647E-2
1.684613190E1	6.717849374E-1	4.553541660E0	3.230310604E-2
1.685453492E1	5.832505226E-1	5.030311584E0	-1.495514158E-2
1.686293794E1	4.833501875E-1	5.271388054E0	2.656033039E-1
1.687134096E1	1.788634956E-1	5.464608669E0	2.991028428E-1
1.687974398E1	-1.483550072E-1	5.578267574E0	4.217349887E-1
1.688814700E1	-3.499503136E-1	5.784050465E0	5.808576941E-1
1.689655003E1	-4.773681164E-1	6.143572330E0	7.507480979E-1
1.690495305E1	-4.695914388E-1	6.639484406E0	8.488538265E-1
1.691335607E1	-4.085744619E-1	7.224529743E0	8.105686903E-1
1.692175909E1	-3.296113312E-1	7.827520847E0	9.541380405E-1
1.693016211E1	-2.985046208E-1	8.415556908E0	1.040877819E0
1.693856513E1	-3.182454109E-1	8.962915421E0	1.084546804E0
1.694696815E1	-4.390829504E-1	9.492925644E0	9.816554785E-1
1.695537117E1	-6.574280262E-1	9.996016502E0	9.170492887E-1
1.696377419E1	-9.451649189E-1	1.050927734E1	8.225327730E-1
1.697217721E1	-1.124028444E0	1.108774185E1	9.888339639E-1
1.698058024E1	-9.445667267E-1	1.166620636E1	1.089332461E0
1.698898326E1	-3.619144261E-1	1.230568886E1	1.329213023E0
1.699738628E1	4.001995921E-1	1.309113312E1	1.252044439E0
1.700578930E1	1.234696507E0	1.411346626E1	9.032905698E-1
1.701419232E1	2.098505497E0	1.524826241E1	5.497509837E-1
1.702259534E1	2.765504837E0	1.638545036E1	4.426721856E-2
1.703099836E1	3.133401155E0	1.709731674E1	-7.537391037E-2
1.703940138E1	3.223132133E0	1.707219124E1	-3.732803464E-1
1.704780440E1	3.171088219E0	1.678505325E1	-5.264210105E-1
1.705620742E1	3.415156126E0	1.662353706E1	-3.990031779E-1
1.706461044E1	4.116851330E0	1.660977745E1	-6.281159073E-2
1.707301346E1	4.965106964E0	1.659721565E1	1.286142170E-1
1.708141649E1	5.387440205E0	1.641775513E1	3.134597540E-1
1.708981950E1	5.481956482E0	1.599901009E1	7.411768436E-1
1.709822253E1	5.598606586E0	1.517228985E1	9.032905698E-1
1.710662555E1	6.177071571E0	1.421516132E1	8.021938205E-1
1.711502857E1	7.060023308E0	1.327717495E1	6.005984545E-1
1.712343159E1	7.978269100E0	1.233260822E1	4.456632137E-1
1.713183461E1	8.105687141E0	1.140838051E1	2.536391914E-1
1.714023763E1	7.084549427E0	1.050867844E1	6.442674994E-1
1.714864065E1	5.604588985E0	1.004028416E1	1.060618639E0
1.715704367E1	4.712066174E0	1.037408257E1	1.095912814E0
1.716544669E1	4.392025948E0	1.147358418E1	4.947160780E-1
1.717384971E1	2.190030813E0	1.354038525E1	-2.390429735E0
1.718225274E1	-4.977669239E0	1.536431408E1	-2.980858803E0
1.719065576E1	-1.634597015E1	1.609352684E1	5.836094379E0
1.719905878E1	-2.697129822E1	1.390050507E1	2.788236618E0
1.720746180E1	-2.536930466E1	9.927223206E0	-6.549155712E0
1.721586482E1	-1.447717476E1	8.264809608E0	-5.497509956E0
1.722426784E1	-3.699303865E0	9.970293999E0	-2.188834429E0
1.723267086E1	3.217149973E0	1.212084293E1	1.597209126E-1
1.724107388E1	6.675975323E0	1.303609753E1	8.853443712E-2
1.724947690E1	6.612565517E0	1.175174999E1	-1.328614831E0
1.725787992E1	3.326621771E0	8.986245155E0	-1.188634634E0
1.726628294E1	3.960121572E-1	7.485347271E0	-1.633101404E-1
1.727468596E1	-1.192223907E0	7.782655716E0	2.106282234E0
1.728308899E1	-1.104885817E0	8.964710236E0	4.417748928E0
1.729149201E1	5.742774159E-2	1.049073315E1	5.419743061E0
1.729989503E1	7.244270444E-1	1.154835987E1	4.272983074E0
1.730829805E1	-3.409772366E-2	1.172004509E1	2.649452925E0
1.731670107E1	-1.529611826E0	1.119302654E1	1.568495274E0
1.732510409E1	-2.830709219E0	1.033759212E1	7.698906660E-1
1.733350711E1	-3.601796389E0	9.459425926E0	6.993024349E-1
1.734191013E1	-3.552743435E0	9.175876617E0	1.110269666E0
1.735031315E1	-2.956930637E0	9.381659508E0	9.487541914E-1
1.735871617E1	-2.467598438E0	9.669994354E0	6.759724021E-1
1.736711919E1	-2.309672117E0	9.698110580E0	7.070791125E-1
1.737552221E1	-2.051247120E0	9.689735413E0	9.367900491E-1
1.738392524E1	-1.608574986E0	9.686145782E0	1.153938770E0
1.739232826E1	-1.253839016E0	9.658628464E0	1.022931695E0
1.740073128E1	-1.307079315E0	9.741779327E0	8.877372146E-1
1.740913430E1	-1.587039590E0	9.863813400E0	8.991031051E-1
1.741753732E1	-1.803590059E0	9.876974106E0	1.043270707E0
1.742594034E1	-1.956730723E0	9.704689980E0	1.251446247E0
1.743434336E1	-2.134995937E0	9.470193863E0	1.545165181E0
1.744274638E1	-2.405385017E0	9.262616158E0	1.792822361E0
1.745114940E1	-2.597409010E0	9.171091080E0	1.797009826E0
1.745955242E1	-2.672184706E0	9.222537041E0	1.734198213E0
1.746795544E1	-2.691327333E0	9.307481766E0	1.785045743E0
1.747635846E1	-2.708675146E0	9.342776299E0	1.900499344E0
1.748476148E1	-2.638087034E0	9.364311218E0	2.070987940E0
1.749316451E1	-2.523231506E0	9.337990761E0	2.102094650E0
1.750156753E1	-2.242074728E0	9.332008362E0	1.974676847E0
1.750997055E1	-1.913659930E0	9.293125153E0	1.766501307E0
