"Time (s)"	"Gyroscope x (rad/s)"	"Gyroscope y (rad/s)"	"Gyroscope z (rad/s)"
5.689005100E-2	-2.596100792E-3	2.443389036E-2	-2.596100792E-3
6.529307200E-2	-2.596100792E-3	2.443389036E-2	-2.596100792E-3
7.369609300E-2	-2.596100792E-3	2.443389036E-2	-2.596100792E-3
8.209911400E-2	-2.596100792E-3	2.443389036E-2	-2.596100792E-3
9.050213500E-2	-3.206948051E-3	1.985253580E-2	-3.665083554E-3
9.890515500E-2	-4.123218823E-3	2.687728032E-2	-6.261184346E-3
1.073081760E-1	-6.261184346E-3	3.283303976E-2	-6.261184346E-3
1.157111970E-1	-3.512371797E-3	2.779355086E-2	-3.817795310E-3
1.241142180E-1	-9.162708884E-4	1.404948719E-2	-2.596100792E-3
1.325172390E-1	0.000000000E0	4.734066315E-3	-2.443389036E-3
1.409202600E-1	1.221694518E-3	5.344913341E-3	-2.290677279E-3
1.493232800E-1	4.581354442E-4	1.725643501E-2	-1.985253533E-3
1.577263010E-1	-2.290677279E-3	2.504473738E-2	-2.901524538E-3
1.661293220E-1	-2.748812549E-3	2.687728032E-2	-3.817795310E-3
1.745323430E-1	-4.428642802E-3	2.687728032E-2	-3.817795310E-3
1.829353640E-1	-6.413896102E-3	2.458660305E-2	-1.374406274E-3
1.913383850E-1	-5.039489828E-3	2.321219631E-2	0.000000000E0
1.997414050E-1	-8.246437646E-3	2.305948362E-2	2.137965523E-3
2.081444260E-1	-7.482878864E-3	1.435491070E-2	9.162708884E-4
2.165474470E-1	-8.551862091E-3	1.343864016E-2	4.581354442E-4
2.249504680E-1	-1.374406368E-2	2.916795574E-2	2.137965523E-3
2.333534890E-1	-7.482878864E-3	3.298575059E-2	4.581354442E-4
2.417565100E-1	-4.428642802E-3	2.947338112E-2	-4.886778072E-3
2.501595300E-1	-5.344913341E-3	2.092151903E-2	-6.261184346E-3
2.585625510E-1	-5.039489828E-3	1.374406368E-2	-7.330167107E-3
2.669655720E-1	-5.650337320E-3	1.420219894E-2	-9.009997360E-3
2.753685930E-1	-7.177455351E-3	2.321219631E-2	-1.359135192E-2
2.837716140E-1	-1.145338640E-2	4.077405483E-2	-1.740914769E-2
2.921746350E-1	-1.282779220E-2	5.451811850E-2	-2.290677279E-2
3.005776550E-1	-1.007897966E-2	5.741964281E-2	-2.764083818E-2
3.089806760E-1	-0.000000000E0	4.260659590E-2	-2.932066843E-2
3.173836970E-1	5.955760833E-3	2.855710872E-2	-3.161134571E-2
3.257867180E-1	9.315420873E-3	1.817270555E-2	-2.733541466E-2
3.341897390E-1	1.252236869E-2	1.282779220E-2	-2.672456764E-2
3.425927600E-1	1.634016447E-2	1.145338640E-2	-2.794626169E-2
3.509957800E-1	1.954711229E-2	1.466033421E-2	-2.687728032E-2
3.593988010E-1	2.137965336E-2	1.939439960E-2	-2.702999115E-2
3.678018220E-1	2.321219631E-2	2.061609551E-2	-2.504473738E-2
3.762048430E-1	2.443389036E-2	2.611372061E-2	-2.535016090E-2
3.846078640E-1	2.672456764E-2	2.489202656E-2	-2.535016090E-2
3.930108850E-1	3.558185324E-2	2.504473738E-2	-2.397575416E-2
4.014139050E-1	4.611896724E-2	1.618745178E-2	-2.244863659E-2
4.098169260E-1	5.467082933E-2	3.817795310E-3	-2.229592577E-2
4.182199470E-1	6.413896382E-2	-3.054236295E-4	-1.695101149E-2
4.266229680E-1	7.513421029E-2	7.941014133E-3	-1.023169141E-2
4.350259890E-1	8.811471611E-2	9.162708884E-4	-8.551862091E-3
4.434290100E-1	9.697200358E-2	-1.145338640E-2	-8.399149403E-3
4.518320300E-1	9.910997003E-2	-8.399149403E-3	-5.344913341E-3
4.602350510E-1	9.941539168E-2	3.970507067E-3	-7.635590737E-4
4.686380720E-1	1.035386100E-1	1.328592747E-2	3.054236295E-4
4.770410930E-1	1.108687744E-1	1.634016447E-2	1.679830020E-3
4.854441140E-1	1.137702987E-1	1.893626526E-2	7.177455351E-3
4.938471350E-1	1.145338640E-1	2.535016090E-2	1.450762246E-2
5.022501550E-1	1.203369126E-1	3.497100621E-2	2.305948362E-2
5.106531760E-1	1.288887709E-1	4.153761268E-2	2.962609194E-2
5.190561970E-1	1.345391124E-1	4.153761268E-2	3.771981969E-2
5.274592180E-1	1.385096163E-1	4.107947648E-2	4.963133857E-2
5.358622390E-1	1.412584335E-1	4.306473210E-2	6.429167092E-2
5.442652600E-1	1.469087601E-1	4.947862774E-2	7.849387079E-2
5.526682800E-1	1.507265568E-1	5.207473040E-2	9.407047927E-2
5.610713010E-1	1.548497826E-1	5.207473040E-2	1.110214889E-1
5.694743220E-1	1.559187621E-1	5.421269313E-2	1.299577504E-1
5.778773430E-1	1.627907902E-1	5.925218388E-2	1.545443535E-1
5.862803640E-1	1.739387512E-1	5.940489471E-2	1.864611208E-1
5.946833850E-1	1.927223057E-1	4.230117425E-2	2.231119573E-1
6.030864050E-1	2.125748396E-1	2.825168520E-2	2.725905776E-1
6.114894260E-1	2.255553454E-1	2.321219631E-2	3.297048211E-1
6.198924470E-1	2.376195788E-1	2.214321308E-2	3.855973184E-1
6.282954680E-1	2.519744933E-1	1.695101149E-2	4.304946065E-1
6.366984890E-1	2.589992285E-1	2.397575416E-2	4.672981501E-1
6.451015100E-1	2.666348219E-1	5.299099907E-2	5.202891231E-1
6.535045300E-1	2.739650011E-1	9.345962852E-2	6.003101468E-1
6.619075510E-1	2.780882120E-1	1.462979168E-1	6.806365848E-1
6.703105720E-1	2.788517773E-1	2.177670449E-1	7.702783942E-1
6.787135930E-1	2.828222811E-1	3.014531136E-1	8.849649429E-1
6.871166140E-1	2.855710983E-1	3.921639323E-1	1.009119630E0
6.955196350E-1	2.829749882E-1	4.888305068E-1	1.111283898E0
7.039226550E-1	2.783936262E-1	5.679352283E-1	1.191304922E0
7.123256760E-1	2.701472044E-1	5.977140665E-1	1.253458619E0
7.207286970E-1	2.469350100E-1	5.732801557E-1	1.302173615E0
7.291317180E-1	1.991362125E-1	5.636593103E-1	1.346001983E0
7.375347390E-1	1.319430023E-1	5.801522136E-1	1.388913989E0
7.459377600E-1	7.467607409E-2	6.247440577E-1	1.426939249E0
7.543407800E-1	4.779879749E-2	6.174138784E-1	1.438545346E0
7.627438010E-1	4.566083103E-2	5.360184908E-1	1.412431598E0
7.711468220E-1	1.695101149E-2	4.167505503E-1	1.389830232E0
7.795498430E-1	-1.863084175E-2	3.301629424E-1	1.391051888E0
7.879528640E-1	-9.620844387E-3	2.414373755E-1	1.398992896E0
7.963558850E-1	-1.511846948E-2	1.965401024E-1	1.385707021E0
8.047589050E-1	-9.483403713E-2	2.854183912E-1	1.342642307E0
8.131619260E-1	-2.055501044E-1	3.912476599E-1	1.259872437E0
8.215649470E-1	-2.363978922E-1	4.077405334E-1	1.104717255E0
8.299679680E-1	-1.805053651E-1	2.023431510E-1	9.397885203E-1
8.383709890E-1	-1.701209545E-1	6.337540597E-2	7.974610925E-1
8.467740100E-1	-2.040229887E-1	2.015795931E-2	6.485670805E-1
8.551770300E-1	-2.270824611E-1	-5.344913341E-3	4.624113739E-1
8.635800510E-1	-2.041756958E-1	-9.651386738E-2	2.570139766E-1
8.719830720E-1	-1.595838517E-1	-2.031067163E-1	6.734590977E-2
8.803860930E-1	-1.275143623E-1	-2.756448388E-1	-1.127013192E-1
8.887891140E-1	-1.302631795E-1	-2.944283783E-1	-2.976353168E-1
8.971921350E-1	-1.589729935E-1	-2.673983872E-1	-4.776825607E-1
9.055951550E-1	-2.254026383E-1	-2.147128135E-1	-6.484143734E-1
9.139981760E-1	-1.786728203E-1	-2.203631550E-1	-7.779139876E-1
9.224011970E-1	-1.203369126E-1	-1.779092699E-1	-9.052756429E-1
9.308042180E-1	-1.611109674E-1	-3.756710514E-2	-1.079061627E0
9.392072390E-1	-2.250972092E-1	1.404948719E-2	-1.241699815E0
9.476102600E-1	-2.386885732E-1	-7.482878864E-3	-1.367992401E0
9.560132800E-1	-2.176143378E-1	-1.985253580E-2	-1.461604834E0
9.644163010E-1	-2.137965411E-1	-3.252761811E-2	-1.545901656E0
9.728193220E-1	-2.276933193E-1	-5.314370990E-2	-1.635543585E0
9.812223430E-1	-2.362451702E-1	-7.498150319E-2	-1.722589254E0
9.896253640E-1	-2.318165302E-1	-9.193251282E-2	-1.791156888E0
9.980283850E-1	-2.341072112E-1	-1.174353883E-1	-1.844758749E0
1.006431405E0	-2.449497581E-1	-1.307213157E-1	-1.895459056E0
1.014834426E0	-2.583884001E-1	-1.322484314E-1	-1.947991967E0
1.023237447E0	-2.686200738E-1	-1.357607991E-1	-2.006022453E0
1.031640468E0	-2.728960216E-1	-1.502684206E-1	-2.058707952E0
1.040043489E0	-2.765611112E-1	-1.727170646E-1	-2.097038746E0
1.048446510E0	-2.823641598E-1	-1.860029846E-1	-2.125442982E0
1.056849530E0	-2.797680497E-1	-1.743968874E-1	-2.150487661E0
1.065252551E0	-2.677038014E-1	-1.760767251E-1	-2.166217089E0
1.073655572E0	-2.576248348E-1	-2.368560284E-1	-2.164231777E0
1.082058593E0	-2.649549842E-1	-2.428117841E-1	-2.156138182E0
1.090461614E0	-2.828222811E-1	-1.930277348E-1	-2.144837379E0
1.098864635E0	-3.022166789E-1	-1.601946950E-1	-2.126206636E0
1.107267655E0	-3.220692277E-1	-1.551551968E-1	-2.108339310E0
1.115670676E0	-3.417690396E-1	-1.287360638E-1	-2.095969677E0
1.124073697E0	-3.452814221E-1	-1.041494608E-1	-2.080545664E0
1.132476718E0	-3.229855001E-1	-1.204896197E-1	-2.049545288E0
1.140879739E0	-2.907632887E-1	-2.250972092E-1	-2.001441002E0
1.149282760E0	-2.690782249E-1	-3.150444627E-1	-1.959445238E0
1.157685780E0	-2.615953386E-1	-3.400892019E-1	-1.928139329E0
1.166088801E0	-2.544178963E-1	-3.561239541E-1	-1.893473744E0
1.174491822E0	-2.374668717E-1	-3.884988427E-1	-1.855143070E0
1.182894843E0	-2.182251811E-1	-4.343124032E-1	-1.817576051E0
1.191297864E0	-1.974563748E-1	-4.784461260E-1	-1.777260065E0
1.199700885E0	-1.878355294E-1	-5.482354164E-1	-1.717397094E0
1.208103905E0	-1.794363856E-1	-6.555918455E-1	-1.626991630E0
1.216506926E0	-1.772984117E-1	-7.350019813E-1	-1.525896430E0
1.224909947E0	-1.601946950E-1	-7.682931423E-1	-1.409071922E0
1.233312968E0	-1.469087601E-1	-7.513421178E-1	-1.296217918E0
1.241715989E0	-1.404948682E-1	-7.198835015E-1	-1.193137407E0
1.250119010E0	-1.357607991E-1	-7.191199064E-1	-1.072189689E0
1.258522030E0	-1.467560530E-1	-6.956022978E-1	-9.370396733E-1
1.266925051E0	-1.461452097E-1	-6.447492838E-1	-7.951704264E-1
1.275328072E0	-1.247655526E-1	-5.942016840E-1	-6.357392669E-1
1.283731093E0	-1.003316641E-1	-5.499152541E-1	-4.660764635E-1
1.292134114E0	-8.674030751E-2	-4.598152637E-1	-3.057290614E-1
1.300537135E0	-8.506047726E-2	-2.785463631E-1	-1.605001241E-1
1.308940155E0	-6.230641901E-2	-8.185353130E-2	-3.206948051E-3
1.317343176E0	-5.940489471E-2	1.408002973E-1	1.734806150E-1
1.325746197E0	-1.078145429E-1	3.501681983E-1	4.001049399E-1
1.334149218E0	-2.470877171E-1	3.849864900E-1	7.351546884E-1
1.342552239E0	-4.940227270E-1	9.655967951E-1	8.780929446E-1
1.350955260E0	-7.108734846E-1	2.001746416E0	7.388197780E-1
1.359358280E0	-8.328902125E-1	2.542804480E0	5.404471159E-1
1.367761301E0	-7.884510756E-1	2.359091997E0	4.265241027E-1
1.376164322E0	-5.517477989E-1	1.371199369E0	5.958815217E-1
1.384567343E0	-2.092151791E-1	2.609844804E-1	9.506310225E-1
1.392970364E0	7.711946964E-2	-3.976615667E-1	1.267049909E0
1.401373385E0	1.679829955E-1	-7.163711190E-1	1.528034449E0
1.409776405E0	8.063183725E-2	-4.585935771E-1	1.579956412E0
1.418179426E0	-1.435491070E-2	1.357607991E-1	1.448929667E0
1.426582447E0	-7.727217674E-2	5.908420086E-1	1.297286868E0
1.434985468E0	-1.331647038E-1	7.621846795E-1	1.217723966E0
1.443388489E0	-1.543916464E-1	6.803311110E-1	1.175422788E0
1.451791510E0	-1.238492802E-1	4.077405334E-1	1.129151106E0
1.460194530E0	-5.925218388E-2	7.757759839E-2	1.085017443E0
1.468597551E0	-7.788302377E-3	-1.692046970E-1	1.064401388E0
1.477000572E0	-1.374406274E-3	-2.803788781E-1	1.047755718E0
1.485403593E0	-4.046862945E-2	-2.315111160E-1	9.904888272E-1
1.493806614E0	-1.148392856E-1	-9.269607067E-2	9.032903910E-1
1.502209635E0	-1.937913001E-1	5.573981255E-2	8.254073858E-1
1.510612655E0	-2.609844804E-1	1.618745178E-1	7.785248160E-1
1.519015676E0	-2.904578745E-1	1.976090819E-1	7.646280527E-1
1.527418697E0	-2.852656841E-1	1.782146841E-1	7.769976854E-1
1.535821718E0	-2.861819267E-1	1.600419879E-1	8.025006056E-1
1.544224739E0	-3.124483824E-1	1.867665499E-1	8.251019120E-1
1.552627760E0	-3.562766612E-1	2.536543310E-1	8.260182142E-1
1.561030780E0	-3.843756318E-1	2.673983872E-1	8.141067028E-1
1.569433801E0	-3.944546282E-1	2.069245130E-1	8.128849864E-1
1.577836822E0	-3.878880143E-1	1.284306347E-1	8.270871639E-1
1.586239843E0	-3.631486893E-1	6.368082762E-2	8.338065147E-1
1.594642864E0	-3.352024257E-1	-3.054236295E-3	8.232693672E-1
1.603045885E0	-3.106158376E-1	-7.299624383E-2	8.168554902E-1
1.611448905E0	-2.831276953E-1	-1.162136942E-1	8.225058317E-1
1.619851926E0	-2.408265322E-1	-1.159082651E-1	8.292251825E-1
1.628254947E0	-1.866138428E-1	-9.132166207E-2	8.076927662E-1
1.636657968E0	-1.418692768E-1	-1.003316641E-1	7.606575489E-1
1.645060989E0	-1.160609797E-1	-1.366770715E-1	7.128587365E-1
1.653464010E0	-1.041494608E-1	-1.423274130E-1	6.902574301E-1
1.661867030E0	-1.032331884E-1	-9.758284688E-2	6.624638438E-1
1.670270051E0	-1.039967462E-1	-2.367033064E-2	6.212316751E-1
1.678673072E0	-1.068982705E-1	1.939439960E-2	5.735855699E-1
1.687076093E0	-1.148392856E-1	4.275930673E-2	5.317425132E-1
1.695479114E0	-1.177408099E-1	6.505523622E-2	5.047125220E-1
1.703882135E0	-1.186570823E-1	9.727742523E-2	4.782933891E-1
1.712285155E0	-1.143811494E-1	1.049130186E-1	4.506525695E-1
1.720688176E0	-9.758284688E-2	9.544488788E-2	4.277457893E-1
1.729091197E0	-7.437065244E-2	5.757235363E-2	4.112529159E-1
1.737494218E0	-4.153761268E-2	1.588202827E-2	4.031592011E-1
1.745897239E0	-1.359135192E-2	-3.069507517E-2	3.972034156E-1
1.754300260E0	6.261184346E-3	-9.987352788E-2	3.950654566E-1
1.762703280E0	2.458660305E-2	-1.469087601E-1	4.054498672E-1
1.771106301E0	3.329117596E-2	-1.801999360E-1	4.155288339E-1
1.779509322E0	3.054236248E-2	-1.930277348E-1	4.268295169E-1
1.787912343E0	3.054236248E-2	-1.627907902E-1	4.524851143E-1
1.796315364E0	2.550287358E-2	-9.666658193E-2	4.851654470E-1
1.804718385E0	3.023693897E-2	-4.046862945E-2	5.012001991E-1
1.813121405E0	3.771981969E-2	-2.932066843E-2	5.181511641E-1
1.821524426E0	4.840964451E-2	-3.405473381E-2	5.448757410E-1
1.829927447E0	5.085303262E-2	-4.657710344E-2	5.763344169E-1
1.838330468E0	5.619794875E-2	-4.367557913E-2	5.990884304E-1
1.846733489E0	6.948387623E-2	-2.993151546E-2	6.076403260E-1
1.855136510E0	6.383354217E-2	-1.282779220E-2	6.149705052E-1
1.863539530E0	6.352811307E-2	2.901524492E-2	6.183301210E-1
1.871942551E0	6.169557199E-2	7.131642103E-2	6.146650314E-1
1.880345572E0	5.925218388E-2	7.788302749E-2	6.160394549E-1
1.888748593E0	7.009471953E-2	8.933641016E-2	6.238277555E-1
1.897151614E0	8.231166750E-2	6.062658876E-2	6.201626658E-1
1.905554635E0	9.590301663E-2	-6.108472589E-4	6.171084642E-1
1.913957655E0	1.062874198E-1	-4.184303805E-2	6.207735538E-1
1.922360676E0	1.049130186E-1	-9.788827598E-2	6.219952106E-1
1.930763697E0	1.192679256E-1	-1.185043678E-1	6.131379604E-1
1.939166718E0	1.282779276E-1	-1.287360638E-1	5.995466113E-1
1.947569739E0	1.305686086E-1	-1.276670843E-1	5.900784731E-1
1.955972760E0	1.339282542E-1	-1.412584335E-1	5.792359114E-1
1.964375780E0	1.307213157E-1	-1.643179059E-1	5.764871240E-1
1.972778801E0	1.375933439E-1	-1.892099380E-1	5.783196688E-1
1.981181822E0	1.528645307E-1	-2.376195788E-1	5.844281316E-1
1.989584843E0	1.710372269E-1	-2.805316150E-1	5.995466113E-1
1.997987864E0	1.898207814E-1	-2.924431264E-1	6.247440577E-1
2.006390885E0	2.096733153E-1	-2.970244884E-1	6.533011198E-1
2.014793905E0	2.406738251E-1	-3.323009014E-1	6.902574301E-1
2.023196926E0	2.701472044E-1	-3.382566571E-1	7.533273697E-1
2.031599947E0	3.014531136E-1	-3.403946459E-1	8.338065147E-1
2.040002968E0	3.374931216E-1	-3.515425920E-1	9.115368128E-1
2.048405989E0	3.689517379E-1	-3.584146202E-1	9.793408513E-1
2.056809010E0	3.845283389E-1	-3.235963285E-1	1.050504565E0
2.065212030E0	3.863608837E-1	-2.527380586E-1	1.118766785E0
2.073615051E0	4.111002088E-1	-2.102841735E-1	1.172979474E0
2.082018072E0	4.446968138E-1	-2.394521236E-1	1.203827262E0
2.090421093E0	4.953971207E-1	-2.823641598E-1	1.241547108E0
2.098824114E0	5.050179958E-1	-2.405211031E-1	1.333021402E0
2.107227135E0	5.170822144E-1	-1.068982705E-1	1.361273170E0
2.115630155E0	5.357130170E-1	-7.345438004E-2	1.381889224E0
2.124033176E0	5.816792846E-1	-5.344913341E-3	1.434574842E0
2.132436197E0	6.187883019E-1	5.207473040E-2	1.481610060E0
2.140839218E0	6.303943992E-1	4.184303805E-2	1.508487344E0
2.149242239E0	6.161921620E-1	-5.680879578E-2	1.544069171E0
2.157645260E0	6.215370893E-1	-2.073826492E-1	1.589119196E0
2.166048280E0	6.485670805E-1	-3.246653080E-1	1.662726283E0
2.174451301E0	6.697940230E-1	-3.422271907E-1	1.745037913E0
2.182854322E0	6.739172339E-1	-2.704526186E-1	1.809482336E0
2.191257343E0	6.752916574E-1	-1.818797737E-1	1.851783514E0
2.199660364E0	6.719319820E-1	-1.046075895E-1	1.874995708E0
2.208063385E0	6.558972597E-1	-4.718795046E-2	1.902636528E0
2.216466405E0	6.322268844E-1	-2.565558441E-2	1.962804914E0
2.224869426E0	6.021426916E-1	-2.596100792E-2	2.035343170E0
2.233272447E0	5.644228458E-1	-1.349972486E-1	2.130177021E0
2.241675468E0	5.285356045E-1	-2.612899244E-1	2.211572409E0
2.250078489E0	4.564556181E-1	-2.513636351E-1	2.225621939E0
2.258481510E0	4.049917459E-1	-3.561239541E-1	2.262731075E0
2.266884530E0	3.367295563E-1	-4.982986450E-1	2.339392185E0
2.275287551E0	2.583884001E-1	-5.126535892E-1	2.419565916E0
2.283690572E0	1.963873953E-1	-4.246915579E-1	2.468739271E0
2.292093593E0	1.400367320E-1	-3.538332880E-1	2.467211962E0
2.300496614E0	7.757759839E-2	-3.138227761E-1	2.440640211E0
2.308899635E0	1.710372418E-2	-2.504473627E-1	2.428270578E0
2.317302655E0	-1.863084175E-2	-1.982199401E-1	2.398033619E0
2.325705676E0	-3.145863488E-2	-2.218902707E-1	2.332062006E0
2.334108697E0	-2.275406010E-2	-3.188622594E-1	2.237075329E0
2.342511718E0	1.130067464E-2	-4.236225784E-1	2.088639498E0
2.350914739E0	6.917845458E-2	-5.265503526E-1	1.916685939E0
2.359317760E0	1.427855492E-1	-6.122216582E-1	1.736638784E0
2.367720780E0	2.241809368E-1	-7.682931423E-1	1.568808436E0
2.376123801E0	2.709107697E-1	-9.298622608E-1	1.420219898E0
2.384526822E0	2.298312783E-1	-8.898517489E-1	1.274990916E0
2.392929843E0	2.058555335E-1	-9.074136019E-1	1.313627005E0
2.401332864E0	1.850867122E-1	-7.618792653E-1	1.363258362E0
2.409735885E0	1.832541777E-3	1.233911440E-1	9.526162744E-1
2.418138905E0	-2.157817930E-1	8.011261821E-1	4.246915579E-1
2.426541926E0	-3.532224298E-1	9.381086826E-1	8.750387281E-2
2.434944947E0	-4.234698713E-1	9.703308940E-1	-1.357607991E-1
2.443347968E0	-4.416425824E-1	9.391776323E-1	-3.355078697E-1
2.451750989E0	-4.104893506E-1	7.850914598E-1	-5.421269536E-1
2.460154010E0	-3.633013964E-1	6.678087711E-1	-7.843278646E-1
2.468557030E0	-3.090887070E-1	5.867187977E-1	-1.051115394E0
2.476960051E0	-2.748812735E-1	5.047125220E-1	-1.355011940E0
2.485363072E0	-2.776300907E-1	4.880669713E-1	-1.682120681E0
2.493766093E0	-2.921377122E-1	4.518742561E-1	-1.971051335E0
2.502169114E0	-2.970244884E-1	3.411581814E-1	-2.188513041E0
2.510572135E0	-2.945810854E-1	2.628170252E-1	-2.371309042E0
2.518975155E0	-2.973299026E-1	2.901524603E-1	-2.578691721E0
2.527378176E0	-3.078670204E-1	3.303156495E-1	-2.804705143E0
2.535781197E0	-3.196258247E-1	3.503209054E-1	-3.023541212E0
2.544184218E0	-3.324536085E-1	3.524588645E-1	-3.216721773E0
2.552587239E0	-3.468085229E-1	3.788780272E-1	-3.386231661E0
2.560990260E0	-3.622324169E-1	4.230117202E-1	-3.547342777E0
2.569393280E0	-3.770454824E-1	4.466820657E-1	-3.708911896E0
2.577796301E0	-3.889569938E-1	4.355340898E-1	-3.872313499E0
2.586199322E0	-3.888042867E-1	3.968980014E-1	-4.028690338E0
2.594602343E0	-3.753656447E-1	3.095468581E-1	-4.157121181E0
2.603005364E0	-3.610107303E-1	1.965401024E-1	-4.258674145E0
2.611408385E0	-3.674246371E-1	9.513945878E-2	-4.348468781E0
2.619811405E0	-3.817795515E-1	6.108472589E-3	-4.438569069E0
2.628214426E0	-3.880407214E-1	-9.636115283E-2	-4.517826557E0
2.636617447E0	-3.741439581E-1	-2.148655206E-1	-4.573260784E0
2.645020468E0	-3.431434333E-1	-3.892624080E-1	-4.593418598E0
2.653423489E0	-3.139754832E-1	-6.175665855E-1	-4.593724251E0
2.661826510E0	-3.078670204E-1	-8.139539957E-1	-4.594487667E0
2.670229530E0	-3.442124426E-1	-8.910734653E-1	-4.596167564E0
2.678632551E0	-4.091149569E-1	-8.651124239E-1	-4.627625942E0
2.687035572E0	-4.610369802E-1	-8.194515705E-1	-4.671148777E0
2.695438593E0	-4.885250926E-1	-8.264763355E-1	-4.683824062E0
2.703841614E0	-5.109737515E-1	-9.200887084E-1	-4.643813610E0
2.712244635E0	-5.378510356E-1	-1.011715770E0	-4.574482441E0
2.720647655E0	-5.551074743E-1	-1.029583097E0	-4.493086815E0
2.729050676E0	-5.615213513E-1	-9.631534219E-1	-4.398863792E0
2.737453697E0	-5.596888065E-1	-8.397622705E-1	-4.268295288E0
2.745856718E0	-5.796940327E-1	-6.685723066E-1	-4.124440670E0
2.754259739E0	-6.401679516E-1	-4.501944184E-1	-3.949280262E0
2.762662760E0	-7.026270628E-1	-2.425063550E-1	-3.717463732E0
2.771065780E0	-7.501204610E-1	-7.345438004E-2	-3.421966314E0
2.779468801E0	-7.951704264E-1	4.260659590E-2	-3.072867155E0
2.787871822E0	-8.425110579E-1	1.154501289E-1	-2.692461967E0
2.796274843E0	-8.677085042E-1	1.918060333E-1	-2.312820435E0
2.804677864E0	-8.357917666E-1	2.020377368E-1	-1.947075605E0
2.813080885E0	-7.408050299E-1	8.536590636E-2	-1.568197608E0
2.821483905E0	-5.737382770E-1	-9.941539168E-2	-1.147171140E0
2.829886926E0	-4.071297050E-1	-2.359397560E-1	-7.007945180E-1
2.838289947E0	-2.667875290E-1	-3.651339412E-1	-2.542651594E-1
2.846692968E0	-1.595838517E-1	-4.268295169E-1	1.882936656E-1
2.855095989E0	-8.689302206E-2	-3.655920923E-1	6.013791561E-1
2.863499010E0	-4.138490185E-2	-2.296785712E-1	9.521581531E-1
2.871902030E0	-4.123218823E-3	-8.490777016E-2	1.256512761E0
2.880305051E0	1.924168877E-2	7.223268598E-2	1.544374585E0
2.888708072E0	2.916795574E-2	1.766875684E-1	1.809024215E0
2.897111093E0	5.497625098E-3	2.599155009E-1	2.020224571E0
2.905514114E0	-3.634541109E-2	3.718532622E-1	2.173089027E0
2.913917135E0	-7.803573459E-2	5.474718809E-1	2.293120623E0
2.922320155E0	-1.177408099E-1	7.867712975E-1	2.387191057E0
2.930723176E0	-2.011214644E-1	1.106702566E0	2.402156830E0
2.939126197E0	-4.758500159E-1	1.555675268E0	2.194621563E0
2.947529218E0	-1.033859015E0	2.052294016E0	1.604848504E0
2.955932239E0	-1.626991630E0	3.329422951E0	1.757712960E-1
2.964335260E0	-1.389830232E0	6.433137894E0	-1.945243120E0
2.972738280E0	-1.140909910E0	5.763038635E0	-1.899276853E0
2.981141301E0	-6.759024858E-1	1.046075940E0	-3.087832928E-1
2.989544322E0	4.590517282E-1	-3.478927851E0	1.285986185E0
2.997947343E0	1.447555304E0	-6.540188789E0	2.804705143E0
3.006350364E0	1.359440565E0	-5.593680859E0	3.204199314E0
3.014753385E0	7.548545003E-1	-2.232188702E0	2.665737391E0
3.023156405E0	1.490467340E-1	6.630746722E-1	1.824448109E0
3.031559426E0	-4.179722369E-1	1.977770686E0	1.383263588E0
3.039962447E0	-8.927532434E-1	2.402920485E0	1.356080890E0
3.048365468E0	-1.007134438E0	2.384747744E0	1.386775970E0
3.056768489E0	-7.826480269E-1	1.945548534E0	1.287818789E0
3.065171510E0	-5.173876286E-1	1.131136417E0	1.026986957E0
3.073574530E0	-3.252761662E-1	1.913478971E-1	8.548807502E-1
3.081977551E0	-1.403421611E-1	-4.897467792E-1	9.492566586E-1
3.090380572E0	7.207997888E-2	-7.855495811E-1	1.263232112E0
3.098783593E0	1.718007922E-1	-8.590039611E-1	1.477028728E0
3.107186614E0	1.537808031E-1	-9.426900148E-1	1.478250384E0
3.115589635E0	1.162136942E-1	-1.029277682E0	1.278045177E0
3.123992655E0	9.376505762E-2	-9.827005267E-1	1.034775257E0
3.132395676E0	6.200099736E-2	-7.012526393E-1	9.003888369E-1
3.140798697E0	2.580829710E-2	-3.875826001E-1	8.532009125E-1
3.149201718E0	-2.000524849E-2	-2.244863659E-1	8.425110579E-1
3.157604739E0	-5.161659420E-2	-2.153236568E-1	8.105943203E-1
3.166007760E0	-3.573456407E-2	-2.805316150E-1	7.823426127E-1
3.174410780E0	1.985253533E-3	-3.400892019E-1	7.736380696E-1
3.182813801E0	1.481304597E-2	-3.390202224E-1	7.666133046E-1
3.191216822E0	1.328592747E-2	-3.205420971E-1	7.382088900E-1
3.199619843E0	2.275406010E-2	-3.113794029E-1	7.035433054E-1
3.208022864E0	3.542914242E-2	-3.353551328E-1	6.775823236E-1
3.216425885E0	4.657710344E-2	-3.703261614E-1	6.502469182E-1
3.224828905E0	5.024218559E-2	-3.982724249E-1	6.235223413E-1
3.233231926E0	5.833591148E-2	-4.011739492E-1	6.039752364E-1
3.241634947E0	6.749862432E-2	-3.681881726E-1	5.957288146E-1
3.250037968E0	7.452336699E-2	-3.348970115E-1	5.839699507E-1
3.258440989E0	8.338065445E-2	-3.081724346E-1	5.670189857E-1
3.266844010E0	9.330692142E-2	-3.051182032E-1	5.587725043E-1
3.275247030E0	9.880454093E-2	-2.838912606E-1	5.551074743E-1
3.283650051E0	1.096470803E-1	-2.644968629E-1	5.644228458E-1
3.292053072E0	1.075091213E-1	-2.153236568E-1	5.851916671E-1
3.300456093E0	1.026223376E-1	-1.490467340E-1	6.044333577E-1
3.308859114E0	1.044548824E-1	-1.029277667E-1	6.212316751E-1
3.317262135E0	1.145338640E-1	-9.987352788E-2	6.416950226E-1
3.325665155E0	1.241547018E-1	-9.941539168E-2	6.470399499E-1
3.334068176E0	1.272089481E-1	-9.865183383E-2	6.583406329E-1
3.342471197E0	1.256818175E-1	-6.795676053E-2	6.762079000E-1
3.350874218E0	1.296523362E-1	-4.352286831E-2	6.894938350E-1
3.359277239E0	1.313321590E-1	-2.916795574E-2	6.922426820E-1
3.367680260E0	1.278197914E-1	-1.099525020E-2	6.855233312E-1
3.376083280E0	1.314848661E-1	5.497625098E-3	6.936170459E-1
3.384486301E0	1.241547018E-1	4.001049697E-2	7.062921524E-1
3.392889322E0	1.131594554E-1	1.010952219E-1	7.148439884E-1
3.401292343E0	1.117850468E-1	6.734590977E-2	7.084301114E-1
3.409695364E0	1.178935245E-1	4.978405312E-2	6.884248853E-1
3.418098385E0	1.206423342E-1	5.558710173E-2	6.952968836E-1
3.426501405E0	1.177408099E-1	1.207950488E-1	7.122479081E-1
3.434904426E0	1.154501289E-1	1.408002973E-1	7.101099491E-1
3.443307447E0	1.276670843E-1	1.070509851E-1	6.899519563E-1
3.451710468E0	1.432436854E-1	7.742489129E-2	6.910209656E-1
3.460113489E0	1.491994411E-1	4.642439261E-2	6.969767213E-1
3.468516510E0	1.582094431E-1	-2.137965523E-3	6.893411279E-1
3.476919530E0	1.632489264E-1	-6.413896382E-2	6.927008033E-1
3.485322551E0	1.586675793E-1	-1.217113137E-1	7.056813240E-1
3.493725572E0	1.490467340E-1	-1.429382563E-1	7.214106321E-1
3.502128593E0	1.440072358E-1	-1.446180940E-1	7.354601026E-1
3.510531614E0	1.453816444E-1	-1.392731816E-1	7.386670709E-1
3.518934635E0	1.571404636E-1	-1.421747059E-1	7.458444834E-1
3.527337655E0	1.765348613E-1	-1.675248593E-1	7.583668828E-1
3.535740676E0	1.942494214E-1	-2.002051920E-1	7.887565494E-1
3.544143697E0	2.086043358E-1	-2.254026383E-1	8.446490765E-1
3.552546718E0	2.270824611E-1	-2.367033064E-1	9.043593407E-1
3.560949739E0	2.363978922E-1	-2.053973973E-1	9.683456421E-1
3.569352760E0	2.447970361E-1	-1.643179059E-1	1.037829518E0
3.577755780E0	2.637332976E-1	-1.001789495E-1	1.087918997E0
3.586158801E0	2.947337925E-1	-8.842013776E-2	1.159388065E0
3.594561822E0	3.271087110E-1	-6.780404598E-2	1.237271070E0
3.602964843E0	3.532224298E-1	-3.710897267E-2	1.323706031E0
3.611367864E0	3.683409095E-1	-2.122694254E-2	1.431215167E0
3.619770885E0	3.799470067E-1	4.016320780E-2	1.532921195E0
3.628173905E0	3.943018913E-1	7.345438004E-2	1.643331885E0
3.636576926E0	4.078932703E-1	1.160609797E-1	1.743358135E0
3.644979947E0	4.272876680E-1	1.229330078E-1	1.829487562E0
3.653382968E0	4.555393457E-1	1.168245375E-1	1.907065153E0
3.661785989E0	4.929537475E-1	1.382041872E-1	1.993958116E0
3.670189010E0	5.583143830E-1	1.815743446E-1	2.095358849E0
3.678592030E0	6.157340407E-1	1.273616552E-1	2.174921751E0
3.686995051E0	6.381826997E-1	-2.748812735E-2	2.219818830E0
3.695398072E0	6.496360302E-1	-1.736333370E-1	2.265785217E0
3.703801093E0	6.687250137E-1	-2.953446507E-1	2.375737667E0
3.712204114E0	6.665870547E-1	-3.342861533E-1	2.520966530E0
3.720607135E0	6.503996253E-1	-3.535278440E-1	2.635195017E0
3.729010155E0	6.111527085E-1	-4.126273096E-1	2.651229858E0
3.737413176E0	5.767925382E-1	-5.700731874E-1	2.654284000E0
3.745816197E0	5.526640415E-1	-7.127060294E-1	2.678259850E0
3.754219218E0	5.033381581E-1	-1.096623540E0	2.729876518E0
3.762622239E0	4.619532526E-1	-1.373490095E0	2.755379200E0
3.771025260E0	3.706315756E-1	-1.464200854E0	2.730945349E0
3.779428280E0	3.074088693E-1	-1.507418275E0	2.771414042E0
3.787831301E0	2.825168669E-1	-1.569572091E0	3.024915695E0
3.796234322E0	3.100049794E-1	-1.495201349E0	3.244362593E0
3.804637343E0	3.087832928E-1	-1.036302328E0	3.135631800E0
3.813040364E0	2.854183912E-1	-4.001049399E-1	2.799971104E0
3.821443385E0	2.672456801E-1	-7.116370648E-2	2.552119732E0
3.829846405E0	2.104368806E-1	1.531699449E-1	2.378792048E0
3.838249426E0	9.636115283E-2	4.123218954E-1	2.182557344E0
3.846652447E0	-9.315420873E-3	5.602996349E-1	1.936385870E0
3.855055468E0	-4.703523964E-2	5.407525301E-1	1.625464559E0
3.863458489E0	-2.229592577E-2	4.207210541E-1	1.239561796E0
3.871861510E0	4.764608666E-2	1.846285909E-1	9.034430981E-1
3.880264530E0	1.504211426E-1	1.068982761E-3	6.471926570E-1
3.888667551E0	2.680092454E-1	1.049130186E-1	4.425588250E-1
3.897070572E0	2.206685692E-1	-9.040539712E-2	6.172611713E-1
3.905473593E0	2.947337925E-1	-2.128802687E-1	6.630746722E-1
3.913876614E0	2.354816198E-1	1.330119967E-1	3.194731176E-1
3.922279635E0	1.394258887E-1	4.871506989E-1	-1.171299592E-1
3.930682655E0	1.058292910E-1	7.220214605E-1	-4.439332485E-1
3.939085676E0	1.192679256E-1	8.460234404E-1	-6.294780970E-1
3.947488697E0	1.298050433E-1	9.265025854E-1	-7.913526297E-1
3.955891718E0	1.308740228E-1	9.900307059E-1	-1.011563063E0
3.964294739E0	1.353026628E-1	1.008814216E0	-1.291636586E0
3.972697760E0	1.589729935E-1	1.006981730E0	-1.545138121E0
3.981100780E0	1.844758689E-1	1.052642584E0	-1.744885206E0
3.989503801E0	1.870719790E-1	1.160457134E0	-1.911646485E0
3.997906822E0	1.519482583E-1	1.319735527E0	-2.084058046E0
4.006309843E0	9.284878522E-2	1.478250384E0	-2.280140162E0
4.014712864E0	4.917320609E-2	1.567586780E0	-2.491646051E0
4.023115885E0	4.107947648E-2	1.560714722E0	-2.719491959E0
4.031518905E0	6.505523622E-2	1.456107140E0	-2.941076756E0
4.039921926E0	1.024696305E-1	1.293469071E0	-3.138685942E0
4.048324947E0	1.432436854E-1	1.103648305E0	-3.304225445E0
4.056727968E0	1.777565479E-1	9.223793745E-1	-3.452508688E0
4.065130989E0	1.994416267E-1	7.437065244E-1	-3.587658644E0
4.073534010E0	2.125748396E-1	5.624375939E-1	-3.724946499E0
4.081937030E0	2.267770469E-1	3.713951409E-1	-3.862081766E0
4.090340051E0	2.478512824E-1	1.366770715E-1	-3.986083746E0
4.098743072E0	2.638860047E-1	-9.987352788E-2	-4.082292080E0
4.107146093E0	2.612899244E-1	-3.034383655E-1	-4.154983044E0
4.115549114E0	2.344126403E-1	-4.621059597E-1	-4.213471889E0
4.123952135E0	1.812689304E-1	-5.806103349E-1	-4.286468029E0
4.132355155E0	1.160609797E-1	-6.896465421E-1	-4.379011154E0
4.140758176E0	5.222744122E-2	-7.852441669E-1	-4.470638275E0
4.149161197E0	7.635590737E-4	-8.586985469E-1	-4.524393082E0
4.157564218E0	-5.329642445E-2	-9.220739603E-1	-4.542260170E0
4.165967239E0	-1.180462316E-1	-9.885035753E-1	-4.548063278E0
4.174370260E0	-1.983726472E-1	-1.106091619E0	-4.562571049E0
4.182773280E0	-2.921377122E-1	-1.226123214E0	-4.604872227E0
4.191176301E0	-3.976615667E-1	-1.324774981E0	-4.641981125E0
4.199579322E0	-4.955498278E-1	-1.366618037E0	-4.655266762E0
4.207982343E0	-5.602996349E-1	-1.366465330E0	-4.631291389E0
4.216385364E0	-5.990884304E-1	-1.403727055E0	-4.579063892E0
4.224788385E0	-6.325323582E-1	-1.449845910E0	-4.539206028E0
4.233191405E0	-6.568135023E-1	-1.503905892E0	-4.512176037E0
4.241594426E0	-6.757497787E-1	-1.493063450E0	-4.476593971E0
4.249997447E0	-7.044596076E-1	-1.335922956E0	-4.386035919E0
4.258400468E0	-7.391251922E-1	-1.128845692E0	-4.204461575E0
4.266803489E0	-7.711946368E-1	-9.462023973E-1	-3.950807333E0
4.275206510E0	-7.493568659E-1	-7.866185308E-1	-3.664625406E0
4.283609530E0	-6.911736727E-1	-5.954233408E-1	-3.392493010E0
4.292012551E0	-6.623111367E-1	-3.730749488E-1	-3.090123653E0
4.300415572E0	-6.904101372E-1	-1.940967143E-1	-2.746674776E0
4.308818593E0	-7.418739796E-1	-1.194206402E-1	-2.381235361E0
4.317221614E0	-7.163711190E-1	-2.147128135E-1	-1.980061412E0
4.325624635E0	-5.431959033E-1	-5.493044257E-1	-1.484511495E0
4.334027655E0	-3.107685447E-1	-9.498674870E-1	-9.278770089E-1
4.342430676E0	-1.372879148E-1	-1.087613583E0	-3.956763148E-1
4.350833697E0	-1.679830020E-3	-9.904888272E-1	1.594311297E-1
4.359236718E0	9.162709117E-2	-7.563816309E-1	7.353073955E-1
4.367639739E0	1.065928489E-1	-2.276933193E-1	1.217876673E0
4.376042760E0	3.756710514E-2	4.876088202E-1	1.557507753E0
4.384445780E0	-3.281776905E-1	1.327829242E0	1.612178683E0
4.392848801E0	-1.022711039E0	2.509207726E0	1.061347127E0
4.401251822E0	-1.348292589E0	4.050528049E0	1.233911440E-1
4.409654843E0	-1.112658262E0	4.920985699E0	-5.581616759E-1
4.418057864E0	-6.885775924E-1	3.268338203E0	-6.765133142E-2
4.426460885E0	-1.211004704E-1	3.139754832E-1	1.218182087E0
4.434863905E0	3.501681983E-1	-1.699377060E0	2.395895720E0
4.443266926E0	4.639385045E-1	-2.136438370E0	3.008270025E0
4.451669947E0	2.837385535E-1	-1.189014196E0	2.965968847E0
4.460072968E0	1.298050433E-1	-1.027750522E-1	2.686964273E0
4.468475989E0	5.192201585E-2	5.964923501E-1	2.410861492E0
4.476879010E0	-1.801999472E-2	9.425373077E-1	2.149724245E0
4.485282030E0	-1.165191159E-1	1.164122105E0	1.881409526E0
4.493685051E0	-2.463241518E-1	1.137397647E0	1.604543090E0
4.502088072E0	-3.263451457E-1	8.087617755E-1	1.349056125E0
4.510491093E0	-2.777827978E-1	3.196258247E-1	1.186723471E0
4.518894114E0	-1.498102844E-1	-1.611109674E-1	1.165802002E0
4.527297135E0	-5.100574717E-2	-4.656183124E-1	1.225206852E0
4.535700155E0	-2.764083818E-2	-5.294518471E-1	1.256512761E0
4.544103176E0	-5.115845799E-2	-3.935383558E-1	1.212531805E0
4.552506197E0	-9.743013978E-2	-2.258607745E-1	1.120141149E0
4.560909218E0	-1.464506239E-1	-5.405998230E-2	9.912523627E-1
4.569312239E0	-1.869192570E-1	1.006370857E-1	8.695410490E-1
4.577715260E0	-2.157817930E-1	2.328855246E-1	8.002098799E-1
4.586118280E0	-2.383831441E-1	3.121429384E-1	7.840224504E-1
4.594521301E0	-2.440334857E-1	2.947337925E-1	7.971556783E-1
4.602924322E0	-2.293731421E-1	1.818797737E-1	8.194515705E-1
4.611327343E0	-2.035648525E-1	9.895725548E-2	8.325847983E-1
4.619730364E0	-1.809635013E-1	5.589252338E-2	8.281561732E-1
4.628133385E0	-1.688992679E-1	1.954711229E-2	7.997517586E-1
4.636536405E0	-1.566823274E-1	2.382304333E-2	7.441646457E-1
4.644939426E0	-1.447708011E-1	3.161134571E-2	6.759024858E-1
4.653342447E0	-1.354553849E-1	1.450762246E-2	6.131379604E-1
4.661745468E0	-1.120904684E-1	-4.184303805E-2	5.693096519E-1
4.670148489E0	-7.055285573E-2	-1.331647038E-1	5.496098399E-1
4.678551510E0	-2.901524492E-2	-2.356343269E-1	5.451811552E-1
4.686954530E0	8.093725890E-3	-3.141281903E-1	5.467082858E-1
4.695357551E0	4.795150831E-2	-3.596363366E-1	5.508314967E-1
4.703760572E0	7.391251624E-2	-3.965925872E-1	5.625903010E-1
4.712163593E0	7.543963939E-2	-3.700207174E-1	5.694623590E-1
4.720566614E0	6.734590977E-2	-2.924431264E-1	5.642701387E-1
4.728969635E0	6.474980712E-2	-2.570139766E-1	5.622848868E-1
4.737372655E0	5.085303262E-2	-2.096733153E-1	5.592306852E-1
4.745775676E0	3.222219273E-2	-1.420219839E-1	5.670189857E-1
4.754178697E0	2.443389036E-2	-5.619794875E-2	5.816792846E-1
4.762581718E0	2.580829710E-2	4.581354442E-4	5.951179266E-1
4.770984739E0	3.634541109E-2	1.771457121E-2	6.009209752E-1
4.779387760E0	5.436540768E-2	2.000524849E-2	6.042806506E-1
4.787790780E0	7.757759839E-2	7.024743594E-3	6.001574397E-1
4.796193801E0	1.070509851E-1	-3.909422457E-2	5.996993184E-1
4.804596822E0	1.294996142E-1	-1.169772521E-1	6.055023670E-1
4.812999843E0	1.359135211E-1	-1.527118087E-1	6.103891134E-1
4.821402864E0	1.340809762E-1	-1.317902952E-1	6.076403260E-1
4.829805885E0	1.411057115E-1	-1.485885978E-1	6.342121959E-1
4.838208905E0	1.495048702E-1	-1.798945218E-1	6.792621613E-1
4.846611926E0	1.385096163E-1	-1.097997949E-1	6.868977547E-1
4.855014947E0	1.214058921E-1	-8.857285231E-2	7.032378912E-1
4.863417968E0	1.140757278E-1	-7.452336699E-2	7.337802649E-1
4.871820989E0	1.075091213E-1	6.474980712E-2	7.316423059E-1
4.880224010E0	1.032331884E-1	1.366770715E-1	7.221741676E-1
4.888627030E0	1.159082651E-1	1.320957243E-1	7.348492742E-1
4.897030051E0	1.424801201E-1	1.287360638E-1	7.343910933E-1
4.905433072E0	1.571404636E-1	4.443913698E-2	7.307260633E-1
4.913836093E0	1.670667231E-1	-4.917320609E-2	7.434011102E-1
4.922239114E0	1.666085869E-1	-6.826218218E-2	7.629482150E-1
4.930642135E0	1.621799469E-1	-5.070032179E-2	7.808154821E-1
4.939045155E0	1.464506239E-1	2.229592577E-2	7.585195899E-1
4.947448176E0	1.298050433E-1	4.703523964E-2	7.151494026E-1
4.955851197E0	1.186570823E-1	2.550287358E-2	6.885775924E-1
4.964254218E0	1.145338640E-1	2.458660305E-2	7.050704360E-1
4.972657239E0	1.044548824E-1	2.687728032E-2	7.221741676E-1
4.981060260E0	9.987352788E-2	-3.054236295E-4	7.350019813E-1
4.989463280E0	1.119377613E-1	-4.428642616E-2	7.496622801E-1
4.997866301E0	1.221694499E-1	-9.788827598E-2	7.640172243E-1
5.006269322E0	1.325538605E-1	-1.469087601E-1	7.870767117E-1
5.014672343E0	1.543916464E-1	-1.617218107E-1	8.092198968E-1
5.023075364E0	1.740914732E-1	-1.824906170E-1	8.451071978E-1
5.031478385E0	2.108950168E-1	-2.127275616E-1	9.052756429E-1
5.039881405E0	2.522799075E-1	-2.463241518E-1	9.852966070E-1
5.048284426E0	2.901524603E-1	-2.470877171E-1	1.084864736E0
5.056687447E0	3.266505599E-1	-2.351761907E-1	1.188708782E0
5.065090468E0	3.605526090E-1	-2.147128135E-1	1.284611821E0
5.073493489E0	4.017847776E-1	-1.733279079E-1	1.393648028E0
5.081896510E0	4.572191834E-1	-1.371352077E-1	1.497797489E0
5.090299530E0	5.189147592E-1	-1.255291104E-1	1.600267053E0
5.098702551E0	6.018372774E-1	-1.325538605E-1	1.705790997E0
5.107105572E0	6.726955175E-1	-1.968455315E-1	1.874232054E0
5.115508593E0	6.733064055E-1	3.863608837E-2	1.990140319E0
5.123911614E0	6.927008033E-1	1.519482583E-1	2.051377773E0
5.132314635E0	7.290462255E-1	1.895153672E-1	2.145906448E0
5.140717655E0	7.715001106E-1	2.354816198E-1	2.278460264E0
5.149120676E0	8.047912717E-1	5.421269313E-2	2.376501322E0
5.157523697E0	8.374716043E-1	-2.148655206E-1	2.434226274E0
5.165926718E0	8.967237473E-1	-4.924955964E-1	2.526006222E0
5.174329739E0	9.556705356E-1	-6.774296165E-1	2.721019030E0
5.182732760E0	9.607100487E-1	-6.974348426E-1	2.921529770E0
5.191135780E0	9.281824231E-1	-6.737645268E-1	3.004605055E0
5.199538801E0	8.681666851E-1	-6.142069101E-1	2.971924543E0
5.207941822E0	7.875348330E-1	-4.964661002E-1	2.935884714E0
5.216344843E0	6.872031689E-1	-5.152496696E-1	3.023694038E0
5.224747864E0	5.708367825E-1	-6.485670805E-1	3.162356377E0
5.233150885E0	4.146125913E-1	-6.091674566E-1	3.163425207E0
5.241553905E0	3.071034551E-1	-6.453601122E-1	3.132730246E0
5.249956926E0	2.620534599E-1	-8.260182142E-1	3.154567957E0
5.258359947E0	2.261662036E-1	-1.010646820E0	3.194883823E0
5.266762968E0	2.218902707E-1	-9.118422270E-1	3.185721159E0
5.275165989E0	2.232646793E-1	-6.878139973E-1	3.078059435E0
5.283569010E0	2.159345001E-1	-5.053234100E-1	2.827917337E0
5.291972030E0	2.069245130E-1	-3.857500553E-1	2.517912388E0
5.300375051E0	1.934858710E-1	-2.154763639E-1	2.234784603E0
5.308778072E0	2.060082406E-1	-4.352286831E-2	1.999150395E0
5.317181093E0	2.631224692E-1	2.870982140E-2	1.770846248E0
5.325584114E0	3.147390485E-1	-2.336490713E-2	1.501767993E0
5.333987135E0	3.434488773E-1	-2.478512824E-1	1.266286373E0
5.342390155E0	3.306210935E-1	-4.060607255E-1	1.019809484E0
5.350793176E0	3.642176688E-1	-1.829487532E-1	7.116370797E-1
5.359196197E0	1.759240031E-1	-2.655658424E-1	7.838697433E-1
5.367599218E0	1.398840249E-1	-2.316638231E-1	8.437327743E-1
5.376002239E0	7.024743408E-2	2.896943092E-1	5.610632300E-1
5.384405260E0	-7.864658535E-2	9.300149679E-1	6.887302548E-2
5.392808280E0	-1.889045089E-1	1.274380088E0	-3.550549746E-1
5.401211301E0	-2.686200738E-1	1.288887739E0	-6.830799580E-1
5.409614322E0	-3.248180151E-1	1.211768270E0	-9.639169574E-1
5.418017343E0	-3.156553209E-1	1.272242069E0	-1.229024649E0
5.426420364E0	-2.145601064E-1	1.092500329E0	-1.445875406E0
5.434823385E0	-1.185043678E-1	8.506048322E-1	-1.691741467E0
5.443226405E0	-8.063183725E-2	7.281299233E-1	-2.004495382E0
5.451629426E0	-9.116895497E-2	6.856760383E-1	-2.343362808E0
5.460032447E0	-1.154501289E-1	6.558972597E-1	-2.640845299E0
5.468435468E0	-1.259872466E-1	6.276455522E-1	-2.889002085E0
5.476838489E0	-1.269035190E-1	6.055023670E-1	-3.114557505E0
5.485241510E0	-1.273616552E-1	5.786250830E-1	-3.339349270E0
5.493644530E0	-1.192679256E-1	4.964661002E-1	-3.560323238E0
5.502047551E0	-1.081199646E-1	3.729222417E-1	-3.762055635E0
5.510450572E0	-1.032331884E-1	2.551814318E-1	-3.933398247E0
5.518853593E0	-9.910997003E-2	1.304158866E-1	-4.088706017E0
5.527256614E0	-9.666658193E-2	-1.007897966E-2	-4.245693684E0
5.535659635E0	-1.038440317E-1	-1.673721522E-1	-4.416578293E0
5.544062655E0	-1.180462316E-1	-3.326063454E-1	-4.584561348E0
5.552465676E0	-1.333174109E-1	-5.111264586E-1	-4.727499485E0
5.560868697E0	-1.409530044E-1	-7.026270628E-1	-4.836535931E0
5.569271718E0	-1.470614821E-1	-9.260444641E-1	-4.915182590E0
5.577674739E0	-1.673721522E-1	-1.153737783E0	-4.991538525E0
5.586077760E0	-2.055501044E-1	-1.359745979E0	-5.076598644E0
5.594480780E0	-2.524326444E-1	-1.577054858E0	-5.144555569E0
5.602883801E0	-3.100049794E-1	-1.737707734E0	-5.173876286E0
5.611286822E0	-3.767400384E-1	-1.796654463E0	-5.187773228E0
5.619689843E0	-4.364503622E-1	-1.825058937E0	-5.190216541E0
5.628092864E0	-4.709632397E-1	-1.921420097E0	-5.146998882E0
5.636495885E0	-5.181511641E-1	-1.984337330E0	-5.064534664E0
5.644898905E0	-6.320741773E-1	-1.825211644E0	-4.988331318E0
5.653301926E0	-8.035695553E-1	-1.562394619E0	-4.943281651E0
5.661704947E0	-9.526162744E-1	-1.272089362E0	-4.940837860E0
5.670107968E0	-1.033706307E0	-8.684720993E-1	-4.920527458E0
5.678510989E0	-1.050809979E0	-4.694361091E-1	-4.820043087E0
5.686914010E0	-1.035233378E0	-1.776038408E-1	-4.602123260E0
5.695317030E0	-1.023016453E0	1.510319859E-1	-4.306167603E0
5.703720051E0	-1.002858520E0	5.505260825E-1	-3.969896317E0
5.712123072E0	-9.791881442E-1	9.396358132E-1	-3.604762316E0
5.720526093E0	-9.616262913E-1	1.248266339E0	-3.208780766E0
5.728929114E0	-9.465078115E-1	1.488482118E0	-2.771261215E0
5.737332135E0	-9.139801860E-1	1.545596242E0	-2.277391195E0
5.745735155E0	-8.512156606E-1	1.348903418E0	-1.756033182E0
5.754138176E0	-7.258392572E-1	1.002094984E0	-1.234675050E0
5.762541197E0	-5.302154422E-1	5.586197972E-1	-6.930062175E-1
5.770944218E0	-3.054236174E-1	8.047912270E-2	-9.407047927E-2
5.779347239E0	-1.027750522E-1	-1.740914732E-1	5.439594984E-1
5.787750260E0	6.245913357E-2	-2.063136548E-1	1.151599765E0
5.796153280E0	1.264453828E-1	-1.591257155E-1	1.650814772E0
5.804556301E0	1.423274130E-1	-5.604523420E-2	2.026943922E0
5.812959322E0	2.137965523E-3	1.995943487E-1	2.228218079E0
5.821362343E0	-5.381564498E-1	8.167027831E-1	1.962652206E0
5.829765364E0	-1.405254126E0	2.110477209E0	7.649334669E-1
5.838168385E0	-1.180920482E0	5.139821529E0	-1.695253849E0
5.846571405E0	-8.338065147E-1	5.248247147E0	-2.083752632E0
5.854974426E0	-5.239542127E-1	1.113879919E0	-2.275405973E-1
5.863377447E0	6.102364063E-1	-3.327743053E0	1.775732994E0
5.871780468E0	1.459924936E0	-5.630179405E0	3.251081705E0
5.880183489E0	1.387081385E0	-5.166240692E0	3.850475788E0
5.888586510E0	9.463551044E-1	-2.695821762E0	3.488243341E0
5.896989530E0	5.674771070E-1	-5.358657837E-1	2.419565916E0
5.905392551E0	4.504998401E-2	9.284878373E-1	1.546359777E0
5.913795572E0	-4.712686539E-1	1.808718681E0	1.200773001E0
5.922198593E0	-7.171346545E-1	1.764585018E0	1.177102685E0
5.930601614E0	-6.609367132E-1	1.323858738E0	1.150988936E0
5.939004635E0	-4.898995161E-1	8.458707333E-1	1.049741030E0
5.947407655E0	-3.026748300E-1	3.229855001E-1	9.555178285E-1
5.955810676E0	-1.076618284E-1	-2.292204350E-1	9.584193230E-1
5.964213697E0	7.559234649E-2	-6.933116317E-1	1.071273327E0
5.972616718E0	1.858502775E-1	-8.362498879E-1	1.221694469E0
5.981019739E0	1.351499557E-1	-7.107207775E-1	1.313932419E0
5.989422760E0	8.551862091E-3	-5.224271417E-1	1.262773991E0
5.997832213E0	-8.826743066E-2	-3.799470067E-1	1.064095974E0
6.006235026E0	-1.504211426E-1	-2.533488870E-1	8.567132950E-1
6.014638047E0	-1.852394342E-1	-1.305686086E-1	7.510367036E-1
6.023041068E0	-2.070772201E-1	-1.191152167E-2	7.276718020E-1
6.031444089E0	-2.018850148E-1	2.504473738E-2	7.586722970E-1
6.039847110E0	-1.670667231E-1	-1.191152167E-2	8.058602214E-1
6.048250130E0	-1.391204596E-1	-6.139015034E-2	8.310576677E-1
6.056653151E0	-1.165191159E-1	-1.220167428E-1	8.289197087E-1
6.065056172E0	-1.043021679E-1	-1.455343664E-1	7.921161652E-1
6.073459193E0	-1.206423342E-1	-7.345438004E-2	7.275190949E-1
6.081862214E0	-1.342336833E-1	-7.635590737E-4	6.635328531E-1
6.090265235E0	-1.172826737E-1	-6.413896102E-3	6.299362183E-1
6.098668255E0	-7.314895838E-2	-7.162184268E-2	6.349757314E-1
6.107071276E0	-2.916795574E-2	-1.458397806E-1	6.514685750E-1
6.115474297E0	2.596100792E-3	-2.151709497E-1	6.536065936E-1
6.123877318E0	2.504473738E-2	-2.814478874E-1	6.420004964E-1
6.132280339E0	3.649812192E-2	-3.174878657E-1	6.375718117E-1
6.140683360E0	2.580829710E-2	-2.788517773E-1	6.449019909E-1
6.149086380E0	4.275931045E-3	-2.018850148E-1	6.433748603E-1
6.157489401E0	-1.924168877E-2	-1.319430023E-1	6.267293096E-1
6.165892422E0	-3.542914242E-2	-6.795676053E-2	6.024481058E-1
6.174295443E0	-3.833066672E-2	-2.473931387E-2	5.809157491E-1
6.182698464E0	-3.268032894E-2	2.199050039E-2	5.679352283E-1
6.191101485E0	1.527118147E-3	1.786728203E-2	5.745018721E-1
6.199504505E0	3.206948191E-2	3.054236295E-4	5.893148780E-1
6.207907526E0	4.734066129E-2	-1.160609815E-2	6.039752364E-1
6.216310547E0	6.245913357E-2	-3.497100621E-2	6.154286265E-1
6.224713568E0	7.330167294E-2	-7.742489129E-2	6.143596172E-1
6.233116589E0	6.856760383E-2	-1.159082651E-1	6.168029904E-1
6.241519610E0	4.978405312E-2	-8.887827396E-2	6.337540150E-1
6.249922630E0	2.260134928E-2	7.177455351E-3	6.572716236E-1
6.258325651E0	-3.970507067E-3	1.156028435E-1	6.671979427E-1
6.266728672E0	-2.519745007E-2	1.947075576E-1	6.572716236E-1
6.275131693E0	-3.329117596E-2	2.356343269E-1	6.537593007E-1
6.283534714E0	-2.794626169E-2	2.602209449E-1	6.667397618E-1
6.291937735E0	9.162708884E-4	2.226538211E-1	6.896465421E-1
6.300340755E0	3.191677108E-2	1.482831687E-1	7.117897868E-1
6.308743776E0	4.596625641E-2	9.239064902E-2	7.287407517E-1
6.317146797E0	4.932591692E-2	7.543963939E-2	7.424848676E-1
6.325549818E0	4.672981426E-2	6.780404598E-2	7.452336550E-1
6.333952839E0	4.734066129E-2	6.337540597E-2	7.345438004E-1
6.342355860E0	5.314370990E-2	6.139015034E-2	7.340856791E-1
6.350758880E0	5.909947306E-2	9.345962852E-2	7.507312894E-1
6.359161901E0	7.284353673E-2	8.887827396E-2	7.621846795E-1
6.367564922E0	8.353336155E-2	6.719320081E-3	7.725690603E-1
6.375967943E0	7.757759839E-2	-6.826218218E-2	7.881456614E-1
6.384370964E0	6.093201414E-2	-7.574506104E-2	7.910472155E-1
6.392773985E0	5.955760926E-2	-9.605573118E-2	7.739434838E-1
6.401177005E0	6.215370819E-2	-1.276670843E-1	7.708892226E-1
6.409580026E0	7.421794534E-2	-1.542389393E-1	7.973083854E-1
6.417983047E0	1.009425074E-1	-1.889045089E-1	8.452599049E-1
6.426386068E0	1.375933439E-1	-2.157817930E-1	9.061918855E-1
6.434789089E0	1.757712960E-1	-2.200577259E-1	9.700254202E-1
6.443192110E0	2.000524700E-1	-2.283041626E-1	1.043632507E0
6.451595130E0	2.258607745E-1	-2.319692522E-1	1.109451294E0
6.459998151E0	2.579302490E-1	-2.151709497E-1	1.189014196E0
6.468401172E0	2.977880239E-1	-1.730224788E-1	1.271783948E0
6.476804193E0	3.405473530E-1	-1.524063945E-1	1.352110386E0
6.485207214E0	3.869717419E-1	-1.676775664E-1	1.425870180E0
6.493610235E0	4.512633979E-1	-1.600419879E-1	1.521009684E0
6.502013255E0	5.048652887E-1	-1.206423342E-1	1.614621997E0
6.510416276E0	5.543438792E-1	-1.496575773E-1	1.704874754E0
6.518819297E0	6.244385839E-1	-1.499630064E-1	1.779092669E0
6.527222318E0	6.615476012E-1	-1.716480851E-1	1.864763975E0
6.535625339E0	6.849125028E-1	-1.754658818E-1	1.920351028E0
6.544028360E0	7.285880446E-1	-3.408527672E-1	1.987391591E0
6.552431380E0	8.002098799E-1	-5.288410187E-1	2.074742794E0
6.560834401E0	8.727480173E-1	-6.784985662E-1	2.190040112E0
6.569237422E0	9.367342591E-1	-7.574505806E-1	2.308391809E0
6.577640443E0	9.881981611E-1	-5.938962698E-1	2.434531689E0
6.586043464E0	1.005759954E0	-4.372139275E-1	2.568307400E0
6.594446485E0	9.871291518E-1	-4.795151055E-1	2.639471054E0
6.602849505E0	9.463551044E-1	-5.627430081E-1	2.616564274E0
6.611252526E0	9.353598356E-1	-7.345438004E-1	2.585563660E0
6.619655547E0	9.197832346E-1	-8.860339522E-1	2.689713240E0
6.628058568E0	8.883246183E-1	-8.869501948E-1	2.885642529E0
6.636461589E0	8.554915786E-1	-8.389987350E-1	3.057748556E0
6.644864610E0	7.959339619E-1	-8.696937561E-1	3.096843004E0
6.653267630E0	7.624900937E-1	-1.023627281E0	3.040950298E0
6.661670651E0	7.157602906E-1	-1.362036705E0	3.151513815E0
6.670073672E0	6.410841942E-1	-1.190083146E0	3.483356476E0
6.678476693E0	5.665608048E-1	-9.133693576E-1	3.905146599E0
6.686879714E0	5.322006941E-1	-5.257867575E-1	3.996162653E0
6.695282735E0	5.108210444E-1	2.380777150E-1	3.634083033E0
6.703685755E0	4.213318825E-1	8.748859763E-1	3.095315695E0
6.712088776E0	2.478512824E-1	1.245212078E0	2.684673786E0
6.720491797E0	1.050657257E-1	1.472294569E0	2.369781971E0
6.728894818E0	6.184828654E-2	1.452289343E0	2.069550514E0
6.737297839E0	1.641651988E-1	1.116476059E0	1.776801944E0
6.745700860E0	3.384093940E-1	5.610632300E-1	1.511999726E0
6.754103880E0	4.987567961E-1	1.908897609E-2	1.267355323E0
6.762506901E0	6.778877378E-1	-2.771719396E-1	9.964445829E-1
6.770909922E0	5.774033666E-1	-4.903576374E-1	9.003888369E-1
6.779312943E0	3.472666740E-1	-6.827745438E-1	1.002247691E0
6.787715964E0	1.989834905E-1	-9.819369763E-2	8.072346449E-1
6.796118985E0	1.039967462E-1	8.333483934E-1	3.043546379E-1
6.804522005E0	7.284353673E-2	1.266439080E0	-1.656923145E-1
6.812925026E0	-0.000000000E0	1.381431103E0	-4.999784827E-1
6.821328047E0	-1.256818175E-1	1.414874911E0	-7.815790772E-1
6.829731068E0	-1.601946950E-1	1.382500052E0	-1.002858520E0
6.838134089E0	-1.342336833E-1	1.273005724E0	-1.167329073E0
6.846537110E0	-4.749337584E-2	1.142895222E0	-1.324927688E0
6.854940130E0	4.428642616E-2	1.069593549E0	-1.546054363E0
6.863343151E0	6.948387623E-2	1.028055906E0	-1.833916187E0
6.871746172E0	3.298575059E-2	1.022252917E0	-2.143463135E0
6.880149193E0	-3.252761811E-2	1.045770526E0	-2.417275429E0
6.888552214E0	-8.399149776E-2	1.049741030E0	-2.640845299E0
6.896955235E0	-9.804098308E-2	1.063943267E0	-2.872509241E0
6.905358255E0	-9.666658193E-2	1.054627776E0	-3.123109341E0
6.913761276E0	-8.536590636E-2	9.633061290E-1	-3.370349646E0
6.922164297E0	-6.413896382E-2	7.995990515E-1	-3.589185715E0
6.930567318E0	-4.810422286E-2	6.077930331E-1	-3.785420418E0
6.938970339E0	-3.909422457E-2	4.066715539E-1	-3.968216419E0
6.947373360E0	-3.695625812E-2	2.064663768E-1	-4.142918587E0
6.955776380E0	-3.985778242E-2	1.420219894E-2	-4.317468643E0
6.964179401E0	-3.023693897E-2	-2.018850148E-1	-4.493239880E0
6.972582422E0	-2.596100792E-3	-4.727957845E-1	-4.659543037E0
6.980985443E0	2.886253223E-2	-7.690566778E-1	-4.788431644E0
6.989388464E0	4.107947648E-2	-1.043479800E0	-4.870895863E0
6.997791485E0	2.107422985E-2	-1.246739268E0	-4.915487766E0
7.006194505E0	-2.473931387E-2	-1.361578584E0	-4.946640968E0
7.014597526E0	-8.811471611E-2	-1.406475782E0	-5.002839088E0
7.023000547E0	-1.429382563E-1	-1.453205585E0	-5.106683254E0
7.031403568E0	-1.655396074E-1	-1.572168112E0	-5.243970871E0
7.039806589E0	-1.646233350E-1	-1.800014138E0	-5.358963013E0
7.048209610E0	-1.716480851E-1	-2.057486296E0	-5.385993004E0
7.056612630E0	-2.356343269E-1	-2.154000044E0	-5.305972099E0
7.065015651E0	-3.573456407E-1	-2.069245100E0	-5.149442196E0
7.073418672E0	-4.921901822E-1	-1.946159363E0	-5.026967525E0
7.081821693E0	-6.091674566E-1	-1.794974685E0	-5.009863853E0
7.090224714E0	-7.015580535E-1	-1.519177079E0	-5.000090122E0
7.098627735E0	-7.991409302E-1	-1.174811959E0	-4.923276424E0
7.107030755E0	-9.058864713E-1	-7.951704264E-1	-4.784919262E0
7.115433776E0	-9.816315174E-1	-4.004103839E-1	-4.603344917E0
7.123836797E0	-1.011257648E0	-7.101099193E-2	-4.364350796E0
7.132239818E0	-1.013548255E0	1.540862173E-1	-4.050681114E0
7.140642839E0	-9.936957955E-1	3.403946459E-1	-3.664778233E0
7.149045860E0	-9.402466416E-1	4.677563012E-1	-3.199923277E0
7.157448880E0	-8.492304087E-1	4.201101959E-1	-2.660239697E0
7.165851901E0	-7.414158583E-1	2.866400778E-1	-2.076575279E0
7.174254922E0	-6.284091473E-1	1.159082651E-1	-1.462521076E0
7.182657943E0	-5.044071078E-1	3.817795310E-3	-8.124268651E-1
7.191060964E0	-3.610107303E-1	3.191677108E-2	-1.204896197E-1
7.199463985E0	-2.144073844E-1	1.391204596E-1	5.674771070E-1
7.207867005E0	-1.014006436E-1	2.648022771E-1	1.205659747E0
7.216270026E0	-4.993676394E-2	4.001049399E-1	1.735264301E0
7.224673047E0	-7.437065244E-2	6.192464232E-1	2.090013981E0
7.233076068E0	-2.426590770E-1	9.833113551E-1	2.220124245E0
7.241479089E0	-7.145385742E-1	1.426328301E0	1.788408041E0
7.249882110E0	-1.305227876E0	2.872967482E0	2.086043358E-1
7.258285130E0	-1.228108406E0	5.494723797E0	-1.778634548E0
7.266688151E0	-1.173743010E0	4.566846848E0	-1.245059371E0
7.275091172E0	-5.320479870E-1	2.675510943E-1	8.438854814E-1
7.283494193E0	5.885513425E-1	-3.394936323E0	2.919697285E0
7.291897214E0	1.027292371E0	-4.363739967E0	4.096189022E0
7.300300235E0	8.509102464E-1	-2.789433956E0	4.027774334E0
7.308703255E0	4.094203711E-1	-5.671716928E-1	3.002619743E0
7.317106276E0	-1.432436854E-1	8.470924497E-1	1.990445852E0
7.325509297E0	-6.788040400E-1	1.653716207E0	1.496881247E0
7.333912318E0	-9.042066336E-1	1.850867152E0	1.443737507E0
7.342315339E0	-7.913526297E-1	1.641651988E0	1.489856482E0
7.350718360E0	-6.103891134E-1	1.319888234E0	1.442057610E0
7.359121380E0	-4.575245976E-1	8.428165317E-1	1.299272060E0
7.367524401E0	-2.560977042E-1	2.186833173E-1	1.140909910E0
7.375927422E0	-1.206423342E-2	-4.425588250E-1	1.141215444E0
7.384330443E0	1.320957243E-1	-8.047912717E-1	1.320957184E0
7.392733464E0	2.037175596E-1	-8.768712282E-1	1.560409307E0
7.401136485E0	2.322746664E-1	-8.377770185E-1	1.711899400E0
7.409539505E0	1.681357026E-1	-7.004891038E-1	1.658908486E0
7.417942526E0	2.626643144E-2	-4.712686539E-1	1.448471546E0
7.426345547E0	-1.194206402E-1	-1.450762302E-1	1.218487620E0
7.434748568E0	-1.869192570E-1	1.945548505E-1	1.083337665E0
7.443151589E0	-2.072299272E-1	4.373666346E-1	1.057376623E0
7.451554610E0	-2.009687424E-1	4.929537475E-1	1.089904189E0
7.459957630E0	-1.792836636E-1	4.205683470E-1	1.100441337E0
7.468360651E0	-1.380514801E-1	2.831276953E-1	1.046686769E0
7.476763672E0	-6.795676053E-2	8.674030751E-2	9.694145918E-1
7.485166693E0	7.635590620E-3	-9.910997003E-2	9.266552925E-1
7.493569714E0	4.627167806E-2	-2.104368806E-1	9.232956171E-1
7.501972735E0	5.772506446E-2	-2.641914487E-1	9.219212532E-1
7.510375755E0	5.528167635E-2	-2.777827978E-1	8.962656260E-1
7.518778776E0	4.321744293E-2	-2.625116110E-1	8.657232523E-1
7.527181797E0	2.367033064E-2	-1.545443535E-1	8.515210748E-1
7.535584818E0	2.443389036E-3	-3.466558084E-2	8.422056437E-1
7.543987839E0	-1.572931744E-2	1.969982497E-2	8.154810667E-1
7.552390860E0	-3.038965166E-2	5.955760926E-2	7.722636461E-1
7.560793880E0	-5.421269313E-2	1.238492802E-1	7.281299233E-1
7.569196901E0	-7.452336699E-2	1.811162084E-1	6.827745438E-1
7.577599922E0	-7.681404054E-2	1.939440072E-1	6.403206587E-1
7.586002943E0	-6.306997687E-2	1.638597846E-1	6.155813336E-1
7.594405964E0	-4.169032723E-2	1.156028435E-1	6.097782850E-1
7.602808985E0	-2.214321308E-2	5.085303262E-2	6.103891134E-1
7.611212005E0	-7.024743594E-3	3.054236295E-3	6.084038615E-1
7.619615026E0	-3.665083554E-3	-3.130592033E-2	6.013791561E-1
7.628018047E0	9.162708884E-4	-4.672981426E-2	5.833591223E-1
7.636421068E0	-2.290677279E-3	-2.687728032E-2	5.711421967E-1
7.644824089E0	-5.803049076E-3	2.061609551E-2	5.564818382E-1
7.653227110E0	-1.130067464E-2	6.872031838E-2	5.447230339E-1
7.661630130E0	-9.620844387E-3	7.605048269E-2	5.383091569E-1
7.670033151E0	1.832541777E-3	7.818844914E-2	5.294518471E-1
7.678436172E0	1.527118124E-2	6.688777357E-2	5.314370990E-1
7.686839193E0	2.015795931E-2	4.932591692E-2	5.354076028E-1
7.695242214E0	1.924168877E-2	-1.801999472E-2	5.384618640E-1
7.703645235E0	2.702999115E-2	-6.337540597E-2	5.341859460E-1
7.712048255E0	3.573456407E-2	-9.941539168E-2	5.355603099E-1
7.720451276E0	4.184303805E-2	-1.424801201E-1	5.389199853E-1
7.728854297E0	4.963133857E-2	-1.803526580E-1	5.464028716E-1
7.737257318E0	5.864133686E-2	-2.296785712E-1	5.607577562E-1
7.745660339E0	6.810946763E-2	-2.846548259E-1	5.764871240E-1
7.754063360E0	8.108997345E-2	-3.298575282E-1	5.922164321E-1
7.762466380E0	9.071081877E-2	-3.591781855E-1	6.080984473E-1
7.770869401E0	8.964183182E-2	-3.736858070E-1	6.276455522E-1
7.779272422E0	8.719844371E-2	-3.738385141E-1	6.583406329E-1
7.787675443E0	9.086353332E-2	-3.581092060E-1	6.981984377E-1
7.796078464E0	1.127013192E-1	-3.458922505E-1	7.467607856E-1
7.804481485E0	1.398840249E-1	-3.628432751E-1	8.138012886E-1
7.812884505E0	1.731752008E-1	-3.836120665E-1	9.008470178E-1
7.821287526E0	2.122694254E-1	-3.894151151E-1	9.990406632E-1
7.829690547E0	2.411319613E-1	-3.709369898E-1	1.093874693E0
7.838093568E0	2.750339806E-1	-3.315373361E-1	1.181073189E0
7.846496589E0	3.089359999E-1	-3.145863414E-1	1.260941505E0
7.854899610E0	3.657447994E-1	-3.022166789E-1	1.326912999E0
7.863302630E0	4.036173224E-1	-3.087832928E-1	1.420525312E0
7.871705651E0	4.312581718E-1	-2.476985604E-1	1.492299795E0
7.880108672E0	4.654656053E-1	-2.582356930E-1	1.568197608E0
7.888511693E0	4.822639227E-1	-2.192941606E-1	1.643484592E0
7.896914714E0	5.048652887E-1	-1.924168915E-1	1.719993114E0
7.905317735E0	5.302154422E-1	-1.980672181E-1	1.805817246E0
7.913720755E0	5.503733754E-1	-2.075353563E-1	1.896528006E0
7.922123776E0	5.824428797E-1	-2.151709497E-1	1.992583752E0
7.930526797E0	6.357392669E-1	-1.357607991E-1	2.100551128E0
7.938929818E0	7.009472251E-1	-2.718270384E-2	2.209129095E0
7.947332839E0	7.467607856E-1	-1.229330078E-1	2.289913654E0
7.955735860E0	7.679877281E-1	-2.832804024E-1	2.312362194E0
7.964138880E0	7.901309133E-1	-4.671454430E-1	2.346722364E0
7.972541901E0	8.144121170E-1	-5.935907960E-1	2.464768648E0
7.980944922E0	8.208259940E-1	-6.219952106E-1	2.599002361E0
7.989347943E0	8.040276766E-1	-5.909947157E-1	2.644357681E0
7.997750964E0	7.647807598E-1	-5.621321797E-1	2.591825008E0
8.006153985E0	7.299624681E-1	-5.554128885E-1	2.540360928E0
8.014557005E0	7.050704360E-1	-5.364766121E-1	2.588770628E0
8.022960026E0	6.299362183E-1	-6.444438696E-1	2.765152931E0
8.031363047E0	5.262449384E-1	-8.360971808E-1	3.049807549E0
8.039766068E0	3.834593594E-1	-8.026533127E-1	3.257495642E0
8.048169089E0	2.677038014E-1	-4.488200247E-1	3.279486179E0
8.056572110E0	2.166980654E-1	-7.452336699E-2	3.204504728E0
8.064975130E0	2.185306102E-1	1.241547018E-1	3.122040272E0
8.073378151E0	2.037175596E-1	2.432699203E-1	3.025221109E0
8.081781172E0	1.378987730E-1	4.002576768E-1	2.861819506E0
8.090184193E0	5.222744122E-2	5.541911721E-1	2.606027126E0
8.098587214E0	2.000524849E-2	6.264238358E-1	2.283499718E0
8.106990235E0	4.734066129E-2	5.129590034E-1	1.956849217E0
8.115393255E0	1.368297935E-1	3.306210935E-1	1.653868914E0
8.123796276E0	2.655658424E-1	6.413896102E-3	1.448471546E0
8.132199297E0	4.249969721E-1	-3.988832533E-1	1.300341129E0
8.140602318E0	5.503733754E-1	-5.439594984E-1	1.161984205E0
8.149005339E0	3.536805511E-1	-7.632536292E-1	1.286902428E0
8.157408360E0	2.486148328E-1	-6.102364063E-1	1.325385809E0
8.165811380E0	1.927223057E-1	-9.804098308E-2	1.029583097E0
8.174214401E0	1.433963925E-1	4.391991794E-1	5.155550838E-1
8.182617422E0	1.055238619E-1	7.331694365E-1	2.565558441E-2
8.191020443E0	3.665083647E-2	7.933378816E-1	-3.167243004E-1
8.199423464E0	-4.352286831E-2	7.901309133E-1	-5.755708218E-1
8.207826485E0	-7.513421029E-2	8.092198968E-1	-7.756233215E-1
8.216229505E0	-1.893626526E-2	7.944068313E-1	-9.181034565E-1
8.224632526E0	8.017370105E-2	6.665870547E-1	-1.076771021E0
8.233035547E0	1.409530044E-1	5.306735635E-1	-1.300799251E0
8.241438568E0	1.363716573E-1	4.540122151E-1	-1.602405071E0
8.249841589E0	9.849911928E-2	4.289674759E-1	-1.915006161E0
8.258244610E0	6.077930331E-2	3.918585181E-1	-2.186985970E0
8.266647630E0	1.847812906E-2	4.161396921E-1	-2.417428017E0
8.275050651E0	-1.954711229E-2	5.257867575E-1	-2.635500431E0
8.283453672E0	-4.199574888E-2	6.261184216E-1	-2.864568233E0
8.291856693E0	-4.825693369E-2	6.997255087E-1	-3.090581656E0
8.300259714E0	-4.672981426E-2	7.513421178E-1	-3.298575163E0
8.308662735E0	-4.291202128E-2	7.556180358E-1	-3.500765562E0
8.317065755E0	-4.169032723E-2	7.183563709E-1	-3.710133553E0
8.325468776E0	-4.031591862E-2	6.432221532E-1	-3.922097445E0
8.333871797E0	-3.756710514E-2	5.225798488E-1	-4.119248390E0
8.342274818E0	-3.390202299E-2	3.558185399E-1	-4.297768593E0
8.350677839E0	-1.924168877E-2	1.536280811E-1	-4.462239265E0
8.359080860E0	7.330167107E-3	-8.536590636E-2	-4.608995438E0
8.367483880E0	2.993151546E-2	-3.512371778E-1	-4.727499485E0
8.375886901E0	2.764083818E-2	-5.781669021E-1	-4.820043087E0
8.384289922E0	-4.428642802E-3	-7.574505806E-1	-4.900369644E0
8.392692943E0	-5.161659420E-2	-9.116895199E-1	-4.978099823E0
8.401095964E0	-1.102579311E-1	-1.056613088E0	-5.073239326E0
8.409498985E0	-1.588202864E-1	-1.221541762E0	-5.195713997E0
8.417902005E0	-1.876828223E-1	-1.426633716E0	-5.307193756E0
8.426305026E0	-2.133384049E-1	-1.692963123E0	-5.334681988E0
8.434708047E0	-2.460187376E-1	-1.942799687E0	-5.275887966E0
8.443111068E0	-3.249707520E-1	-2.086654186E0	-5.172959805E0
8.451514089E0	-4.760027230E-1	-2.131398916E0	-5.089579582E0
8.459917110E0	-6.893411279E-1	-2.068481445E0	-5.061480522E0
8.468320130E0	-8.993198872E-1	-1.861862421E0	-5.093091965E0
8.476723151E0	-1.050504565E0	-1.613400340E0	-5.129742622E0
8.485126172E0	-1.130220175E0	-1.376086116E0	-5.119816303E0
8.493529193E0	-1.196191669E0	-1.074327588E0	-5.036130428E0
8.501932214E0	-1.216502309E0	-8.770239353E-1	-4.857610226E0
8.510335235E0	-1.182752967E0	-6.794148684E-1	-4.539969444E0
8.518738255E0	-1.137550354E0	-3.408527672E-1	-4.131923676E0
8.527141276E0	-1.094943762E0	-2.962609194E-2	-3.701276302E0
8.535544297E0	-1.010341406E0	2.597627938E-1	-3.251387358E0
8.543947318E0	-8.906152844E-1	4.825693369E-1	-2.756753683E0
8.552350339E0	-8.327375054E-1	5.725166202E-1	-2.212030649E0
8.560753360E0	-8.205205798E-1	6.219952106E-1	-1.644248128E0
8.569156380E0	-7.718055248E-1	6.626165509E-1	-1.054933190E0
8.577559401E0	-6.375718117E-1	5.833591223E-1	-4.162923992E-1
8.585962422E0	-4.602734149E-1	4.326325655E-1	2.713688910E-1
8.594365443E0	-3.029802442E-1	3.752129376E-1	9.501729012E-1
8.602768464E0	-2.058555335E-1	4.792096615E-1	1.546665311E0
8.611171485E0	-1.655396074E-1	6.867450476E-1	1.987849712E0
8.619574505E0	-1.728697717E-1	1.182600260E0	2.188360214E0
8.627977526E0	-7.838697433E-1	2.146517277E0	1.768402815E0
8.636380547E0	-1.588966489E0	4.451702118E0	3.269560039E-1
8.644783568E0	-1.551246643E0	6.641742229E0	-1.199245930E0
8.653186589E0	-1.082421303E0	4.625030041E0	-6.361974478E-1
8.661589610E0	-1.389677525E-1	2.249445021E-1	1.225512266E0
8.669992630E0	6.449019909E-1	-2.760418653E0	2.982003689E0
8.678395651E0	6.447492838E-1	-2.982919931E0	3.752434731E0
8.686798672E0	3.306210935E-1	-1.522689462E0	3.563682795E0
8.695201693E0	8.658760041E-2	-2.031067163E-1	2.811577320E0
8.703604714E0	-1.331647038E-1	4.052971601E-1	1.990751266E0
8.712007735E0	-4.144598544E-1	4.895940721E-1	1.584385037E0
8.720410755E0	-5.549547076E-1	4.314108789E-1	1.552010179E0
8.728813776E0	-4.323271513E-1	2.887780368E-1	1.701056957E0
8.737216797E0	-2.596100867E-1	1.698155403E-1	1.812536478E0
8.745619818E0	-1.553079188E-1	2.626643181E-1	1.721367598E0
8.754022839E0	-1.148392856E-1	1.814216375E-1	1.504516840E0
8.762425860E0	-7.482878864E-2	-9.513945878E-2	1.382805467E0
8.770828880E0	5.344913341E-3	-3.710896969E-1	1.428619027E0
8.779231901E0	8.582404256E-2	-5.386145711E-1	1.527881742E0
8.787634922E0	1.090362370E-1	-5.677825212E-1	1.546054363E0
8.796037943E0	9.177979827E-2	-5.548020005E-1	1.475959659E0
8.804440964E0	6.429167092E-2	-4.917320311E-1	1.351041436E0
8.812843985E0	2.855710872E-2	-3.889569938E-1	1.201231122E0
8.821247005E0	-5.192201585E-3	-3.026748300E-1	1.074480295E0
8.829650026E0	-2.458660305E-2	-2.115058601E-1	1.015533566E0
8.838053047E0	-2.748812735E-2	-1.169772521E-1	1.018740535E0
8.846456068E0	-1.969982497E-2	-6.337540597E-2	1.041952729E0
8.854859089E0	-3.206948051E-3	-1.076618284E-1	1.038287640E0
8.863262110E0	1.435491070E-2	-1.905843467E-1	9.842276573E-1
8.871665130E0	3.649812192E-2	-2.699944973E-1	8.890882134E-1
8.880068151E0	6.841489673E-2	-3.379512429E-1	8.032641411E-1
8.888471172E0	9.590301663E-2	-4.182776511E-1	7.844805717E-1
8.896874193E0	1.195733473E-1	-5.013529062E-1	8.183826208E-1
8.905277214E0	1.424801201E-1	-5.041016936E-1	8.128849864E-1
8.913680235E0	1.748550236E-1	-6.105418205E-1	8.331956863E-1
8.922083255E0	1.743968874E-1	-6.581879258E-1	8.565605879E-1
8.930486276E0	1.514901221E-1	-5.201364160E-1	8.325847983E-1
8.938889297E0	1.305686086E-1	-4.219427407E-1	8.031114340E-1
8.947292318E0	1.122431830E-1	-3.139754832E-1	7.412631512E-1
8.955695339E0	9.681928903E-2	-2.267770469E-1	6.797202826E-1
8.964098360E0	7.437065244E-2	-1.751604527E-1	6.397097707E-1
8.972501380E0	5.222744122E-2	-9.483403713E-2	6.012263894E-1
8.980904401E0	3.985778242E-2	-6.215370819E-2	5.931326747E-1
8.989307422E0	3.924693540E-2	-4.459185153E-2	6.148177385E-1
8.997710443E0	4.810422286E-2	-7.788302377E-3	6.337540150E-1
9.006113464E0	5.726693198E-2	-3.359659761E-2	6.340594292E-1
9.014516485E0	6.673506647E-2	-6.780404598E-2	6.215370893E-1
9.022919505E0	7.360709459E-2	-7.299624383E-2	6.178719997E-1
9.031322526E0	6.872031838E-2	-8.063183725E-2	6.166502833E-1
9.039725547E0	5.512896553E-2	-4.810422286E-2	6.213843822E-1
9.048128568E0	3.512371704E-2	1.068982761E-3	6.284091473E-1
9.056531589E0	1.924168877E-2	4.825693369E-2	6.226060390E-1
9.064934610E0	8.857285604E-3	1.136175916E-1	6.100836992E-1
9.073337630E0	1.221694518E-3	1.699682474E-1	6.135960817E-1
9.081740651E0	-7.635590737E-4	2.338017821E-1	6.279509664E-1
9.090143672E0	6.566607859E-3	2.405211031E-1	6.387935281E-1
9.098546693E0	1.282779220E-2	2.157817930E-1	6.351284385E-1
9.106949714E0	2.137965336E-2	1.995943487E-1	6.264238358E-1
9.115352735E0	2.626643144E-2	1.606528312E-1	6.152759194E-1
9.123755755E0	2.046338283E-2	1.227803007E-1	6.084038615E-1
9.132158776E0	2.015795931E-2	1.073564067E-1	5.977140665E-1
9.140561797E0	2.046338283E-2	1.055238619E-1	5.880932212E-1
9.148964818E0	1.099525020E-2	1.050657257E-1	5.943543911E-1
9.157367839E0	1.007897966E-2	1.007898003E-1	6.082511544E-1
9.165770860E0	1.404948719E-2	1.033858955E-1	6.174138784E-1
9.174173880E0	2.244863659E-2	7.116370648E-2	6.198572516E-1
9.182576901E0	4.459185153E-2	3.649812192E-2	6.210789680E-1
9.190979922E0	7.895200700E-2	-3.512371797E-3	6.314633489E-1
9.199382943E0	1.146865711E-1	-5.604523420E-2	6.485670805E-1
9.207785964E0	1.383569092E-1	-1.265980899E-1	6.945333481E-1
9.216188985E0	1.615691036E-1	-1.542389393E-1	7.692093849E-1
9.224592005E0	1.846285909E-1	-1.401894391E-1	8.637380004E-1
9.232995026E0	2.047865391E-1	-1.166718230E-1	9.654440880E-1
9.241398047E0	2.368560284E-1	-6.261184067E-2	1.065775752E0
9.249801068E0	2.800734639E-1	-2.229592577E-2	1.162442327E0
9.258204089E0	3.255815804E-1	6.413896102E-3	1.251167893E0
9.266607110E0	3.640649617E-1	-9.009997360E-3	1.357149839E0
9.275010130E0	4.152234197E-1	-1.114796288E-2	1.470614791E0
9.283413151E0	4.970769584E-1	-1.038440317E-2	1.581789017E0
9.291816172E0	5.170822144E-1	-3.634541109E-2	1.758476496E0
9.300219193E0	4.572191834E-1	2.060082406E-1	1.829029441E0
9.308622214E0	4.952444136E-1	1.354553849E-1	1.860182643E0
9.317025235E0	5.285356045E-1	-3.420744836E-2	1.961277843E0
9.325428255E0	5.647283196E-1	-5.131116882E-2	2.099176645E0
9.333831276E0	6.038225293E-1	-9.788827598E-2	2.258302212E0
9.342234297E0	6.325323582E-1	-1.072036922E-1	2.389787197E0
9.350637318E0	6.754443645E-1	2.596100792E-2	2.495158434E0
9.359040339E0	7.211052179E-1	1.594311297E-1	2.609234095E0
9.367443360E0	7.165238261E-1	7.879929990E-2	2.700555801E0
9.375846380E0	6.754443645E-1	-3.420744836E-2	2.720866442E0
9.384249401E0	6.500942111E-1	-1.989834905E-1	2.775995255E0
9.392652422E0	6.306998134E-1	-4.199574888E-1	2.925805569E0
9.401055443E0	5.816792846E-1	-5.989357233E-1	3.047211647E0
9.409458464E0	5.279247165E-1	-7.227849960E-1	3.137922287E0
9.417861485E0	4.585935771E-1	-9.239065051E-1	3.246347666E0
9.426264505E0	3.191677034E-1	-7.105680704E-1	3.186331987E0
9.434667526E0	2.400629669E-1	-5.438067913E-1	3.034383774E0
9.443070547E0	1.670667231E-1	-6.594096422E-1	2.921529770E0
9.451473568E0	1.424801201E-1	-7.514948249E-1	2.996052980E0
9.459876589E0	1.905843467E-1	-8.799254894E-1	3.239628553E0
9.468279610E0	2.551814318E-1	-1.010952234E0	3.352940559E0
9.476682630E0	3.083251417E-1	-9.501729012E-1	3.172893286E0
9.485085651E0	3.348970115E-1	-7.902836204E-1	2.826695681E0
9.493488672E0	3.303156495E-1	-6.172611713E-1	2.511193037E0
9.501891693E0	2.967190444E-1	-3.613161445E-1	2.217222929E0
9.510294714E0	2.644968629E-1	1.236965694E-2	1.897749662E0
9.518697735E0	2.499892414E-1	2.015796006E-1	1.578734756E0
9.527100755E0	2.655658424E-1	1.424801201E-1	1.279724956E0
9.535503776E0	2.874036431E-1	-7.879929990E-2	9.787300229E-1
9.543906797E0	4.107947946E-1	-2.212794125E-1	6.184828281E-1
9.552309818E0	2.434226274E-1	-2.513636351E-1	5.636593103E-1
9.560712839E0	1.699682474E-1	-3.904841244E-1	8.406785131E-1
9.569115860E0	2.325800955E-1	-2.605263591E-1	8.157865405E-1
9.577518880E0	2.328855246E-1	1.861557066E-1	4.155288339E-1
9.585921901E0	1.583621502E-1	5.557183027E-1	-5.696150661E-2
9.594324922E0	3.848337755E-2	7.372926474E-1	-4.827220440E-1
9.602727943E0	-1.217113137E-1	8.031114340E-1	-8.532009125E-1
9.611130964E0	-2.223484069E-1	7.892146707E-1	-1.149614573E0
9.619533985E0	-2.089097649E-1	6.836907864E-1	-1.346001983E0
9.627937005E0	-1.305686086E-1	7.136223316E-1	-1.544221878E0
9.636340026E0	-9.239064902E-2	7.908945084E-1	-1.800472260E0
9.644743047E0	-1.107160673E-1	7.942541242E-1	-2.060845852E0
9.653146068E0	-1.664558798E-1	7.968502641E-1	-2.332062006E0
9.661549089E0	-2.223484069E-1	8.188407421E-1	-2.598849773E0
9.669952110E0	-2.544178963E-1	8.244910836E-1	-2.848991632E0
9.678355130E0	-2.695363462E-1	8.585458398E-1	-3.100507975E0
9.686758151E0	-2.724378705E-1	9.049702287E-1	-3.353398800E0
9.695161172E0	-2.695363462E-1	9.252808690E-1	-3.588574886E0
9.703564193E0	-2.699944973E-1	9.069554806E-1	-3.809548855E0
9.711967214E0	-2.615953386E-1	8.588512540E-1	-4.019527912E0
9.720370235E0	-2.559449971E-1	7.889092565E-1	-4.219274521E0
9.728773255E0	-2.402156889E-1	6.681141853E-1	-4.418869019E0
9.737176276E0	-1.988307834E-1	4.764608741E-1	-4.603803158E0
9.745579297E0	-1.273616552E-1	1.915006191E-1	-4.757736683E0
9.753982318E0	-3.955236077E-2	-1.667613089E-1	-4.882807732E0
9.762385339E0	3.038965166E-2	-5.239542127E-1	-4.996577740E0
9.770788360E0	5.909947306E-2	-8.515210748E-1	-5.102406979E0
9.779191380E0	5.665608495E-2	-1.137397647E0	-5.192507267E0
9.787594401E0	3.634541109E-2	-1.398076653E0	-5.251912117E0
9.795997422E0	3.054236295E-3	-1.635238171E0	-5.294671535E0
9.804400443E0	-3.680354729E-2	-1.848118424E0	-5.326588154E0
9.812803464E0	-8.857285231E-2	-2.020835400E0	-5.355144978E0
9.821206485E0	-1.479777545E-1	-2.168354988E0	-5.378051758E0
9.829609505E0	-2.356343269E-1	-2.345806122E0	-5.376524925E0
9.838012526E0	-3.715478480E-1	-2.416664362E0	-5.352854729E0
9.846415547E0	-5.766398311E-1	-2.255858898E0	-5.322159290E0
9.854818568E0	-7.947123051E-1	-1.918518543E0	-5.286272049E0
9.863221589E0	-9.713998437E-1	-1.380972981E0	-5.247025013E0
9.871624610E0	-1.068066478E0	-8.657232523E-1	-5.144250393E0
9.880027630E0	-1.104259133E0	-4.990622103E-1	-4.928621292E0
9.888430651E0	-1.097081661E0	-2.325800955E-1	-4.665346146E0
9.896833672E0	-1.053253412E0	-7.956285775E-2	-4.356715202E0
9.905236693E0	-9.953756332E-1	-9.162709117E-3	-3.967147589E0
9.913639714E0	-9.460496902E-1	4.459185153E-2	-3.476179123E0
9.922042735E0	-8.826742768E-1	1.930277348E-1	-2.903509617E0
9.930445755E0	-7.889092565E-1	4.376720488E-1	-2.311293364E0
9.938848776E0	-6.894938350E-1	7.038487792E-1	-1.788713455E0
9.947251797E0	-6.256603003E-1	9.429954290E-1	-1.340809703E0
9.955654818E0	-5.917583108E-1	1.107924223E0	-8.912261724E-1
9.964057839E0	-5.467082858E-1	1.151599765E0	-3.478775024E-1
9.972460860E0	-4.711159468E-1	1.117086887E0	2.721324563E-1
9.980863880E0	-3.692571819E-1	1.051573515E0	8.974873424E-1
9.989266901E0	-2.362451702E-1	9.400939345E-1	1.475806952E0
9.997669922E0	-8.551861346E-2	8.218950033E-1	1.957001925E0
1.000607294E1	-3.542914242E-2	7.957812548E-1	2.312973261E0
1.001447596E1	-3.208475113E-1	9.164236188E-1	2.465837717E0
1.002287898E1	-1.364785433E0	1.143047929E0	2.054737568E0
1.003128201E1	-1.871177912E0	3.126316309E0	4.143071473E-1
1.003968503E1	-9.145910740E-1	6.176124096E0	-1.595838428E0
1.004808805E1	-4.172086716E-1	4.308610916E0	-1.359593272E0
1.005649107E1	-1.866138428E-1	7.620319724E-2	5.694623590E-1
1.006489409E1	2.812951505E-1	-2.305337667E0	2.617022276E0
1.007329711E1	5.838172436E-1	-3.003230572E0	4.074503899E0
1.008170013E1	5.105155706E-1	-2.228218079E0	4.375346184E0
1.009010315E1	2.744231224E-1	-5.799994469E-1	3.393103838E0
1.009850617E1	-1.044548824E-1	1.129609346E0	1.912104607E0
1.010690919E1	-5.873296261E-1	1.899276853E0	9.014578462E-1
1.011531221E1	-1.028514028E0	1.444806457E0	8.379297256E-1
1.012371524E1	-1.096928954E0	1.010799527E0	1.227192163E0
1.013211826E1	-8.962656260E-1	9.715525508E-1	1.621952176E0
1.014052128E1	-6.487197876E-1	9.605573416E-1	1.691283345E0
1.014892430E1	-4.592044353E-1	6.175665855E-1	1.480235577E0
1.015732732E1	-3.342861533E-1	1.844758689E-1	1.301715493E0
1.016573034E1	-1.997470558E-1	-7.482878864E-2	1.333937645E0
1.017413336E1	-8.628217876E-2	-1.757712960E-1	1.455496311E0
1.018253638E1	-3.634541109E-2	-2.518217862E-1	1.462062955E0
1.019093940E1	-7.941014133E-3	-4.049917459E-1	1.376544356E0
1.019934242E1	3.924693540E-2	-5.821374655E-1	1.252236843E0
1.020774544E1	9.361234307E-2	-7.565343380E-1	1.166718245E0
1.021614846E1	1.380514801E-1	-8.622109294E-1	1.131594539E0
1.022455149E1	1.424801201E-1	-8.054021001E-1	1.124111652E0
1.023295450E1	9.926267713E-2	-6.146650314E-1	1.136633992E0
1.024135753E1	5.207473040E-2	-3.993414044E-1	1.124569774E0
1.024976055E1	6.413896102E-3	-2.003578991E-1	1.042563558E0
1.025816357E1	-3.802524135E-2	-2.290677279E-2	9.118422270E-1
1.026656659E1	-6.933116168E-2	9.284878522E-2	8.182299137E-1
1.027496961E1	-7.421794534E-2	1.553079188E-1	7.963921428E-1
1.028337263E1	-6.032116711E-2	1.232384369E-1	8.180772066E-1
1.029177565E1	-3.283303976E-2	1.939439960E-2	8.489249945E-1
1.030017867E1	1.084253844E-2	-8.231166750E-2	8.783983588E-1
1.030858169E1	5.482354015E-2	-1.870719790E-1	9.013051391E-1
1.031698471E1	8.353336155E-2	-2.536543310E-1	9.040539265E-1
1.032538774E1	8.811471611E-2	-2.501419485E-1	8.892409205E-1
1.033379076E1	7.284353673E-2	-2.052446753E-1	8.692356348E-1
1.034219378E1	5.299099907E-2	-1.375933439E-1	8.386932611E-1
1.035059680E1	3.191677108E-2	-7.284353673E-2	7.959339619E-1
1.035899982E1	2.260134928E-2	6.261184346E-3	7.585195899E-1
1.036740284E1	1.634016447E-2	6.352811307E-2	7.411104441E-1
1.037580586E1	2.061609551E-2	7.879929990E-2	7.388197780E-1
1.038420888E1	2.687728032E-2	6.093201414E-2	7.441646457E-1
1.039261190E1	3.283303976E-2	5.024218559E-2	7.463026643E-1
1.040101492E1	3.588727489E-2	3.680354729E-2	7.401941419E-1
1.040941794E1	3.038965166E-2	-4.275931045E-3	7.371399403E-1
1.041782096E1	2.809897438E-2	-9.468132630E-3	7.350019813E-1
1.042622398E1	2.611372061E-2	1.847812906E-2	7.275190949E-1
1.043462701E1	2.290677279E-2	5.375456065E-2	7.146912813E-1
1.044303003E1	2.137965336E-2	1.015533581E-1	6.988092661E-1
1.045143305E1	1.832541823E-2	1.186570823E-1	6.913263798E-1
1.045983607E1	2.519745007E-2	1.250709742E-1	6.843016148E-1
1.046823909E1	4.107947648E-2	1.197260618E-1	6.671979427E-1
1.047664211E1	4.260659590E-2	7.314895838E-2	6.554391384E-1
1.048504513E1	4.734066129E-2	5.070032179E-2	6.519267559E-1
1.049344815E1	4.810422286E-2	2.779355086E-2	6.394043565E-1
1.050185117E1	4.153761268E-2	-2.458660305E-2	6.190937161E-1
1.051025419E1	3.405473381E-2	-6.429167092E-2	6.038225293E-1
1.051865721E1	3.115320951E-2	-7.971556485E-2	5.940489769E-1
1.052706024E1	2.473931387E-2	-1.215586066E-1	5.951179266E-1
1.053546326E1	2.489202656E-2	-1.551551968E-1	6.109999418E-1
1.054386628E1	3.268032894E-2	-1.747023165E-1	6.334486008E-1
1.055226930E1	4.871506989E-2	-1.791309565E-1	6.497887969E-1
1.056067232E1	6.612421572E-2	-2.043284029E-1	6.668924689E-1
1.056907534E1	8.292251825E-2	-2.464768738E-1	7.091936469E-1
1.057747836E1	9.361234307E-2	-2.709107697E-1	7.776085734E-1
1.058588138E1	1.036913246E-1	-2.631224692E-1	8.460234404E-1
1.059428440E1	1.091889441E-1	-2.496838123E-1	9.339854717E-1
1.060268742E1	1.331647038E-1	-1.947075576E-1	1.034469843E0
1.061109044E1	1.693574041E-1	-1.537808031E-1	1.128998399E0
1.061949346E1	1.971509457E-1	-1.070509851E-1	1.192221165E0
1.062789648E1	2.225011140E-1	-9.636115283E-2	1.287818789E0
1.063629950E1	2.557922900E-1	-6.872031838E-2	1.421441555E0
1.064470253E1	2.893888950E-1	-1.206423342E-2	1.550941229E0
1.065310555E1	3.216110766E-1	6.642963737E-2	1.666238666E0
1.066150857E1	3.710896969E-1	1.731752008E-1	1.762752533E0
1.066991159E1	3.999522328E-1	2.293731421E-1	1.856059432E0
1.067831461E1	4.231644273E-1	2.849602401E-1	1.933178902E0
1.068671763E1	4.321744442E-1	2.846548259E-1	2.016101360E0
1.069512065E1	4.323271513E-1	2.174616307E-1	2.103757858E0
1.070352367E1	4.277457893E-1	1.354553849E-1	2.181793690E0
1.071192669E1	4.275930822E-1	6.872031838E-2	2.257385969E0
1.072032971E1	4.265241027E-1	1.771457121E-2	2.335727215E0
1.072873274E1	4.246915579E-1	-1.939439960E-2	2.381846189E0
1.073713576E1	4.065188468E-1	-6.154286116E-2	2.385663986E0
1.074553878E1	3.674246371E-1	-1.818797737E-1	2.381693363E0
1.075394180E1	3.474193811E-1	-4.187358022E-1	2.389176369E0
1.076234482E1	3.281776905E-1	-5.224271417E-1	2.346875191E0
1.077074784E1	2.790044844E-1	-5.705313683E-1	2.301061630E0
1.077915086E1	2.309002578E-1	-7.342383862E-1	2.357259512E0
1.078755388E1	1.927223057E-1	-9.347490072E-1	2.480039835E0
1.079595690E1	1.693574041E-1	-1.142437100E0	2.656116486E0
1.080435992E1	1.093416587E-1	-1.289651275E0	2.848686218E0
1.081276294E1	2.275406010E-2	-1.146407604E0	2.955279112E0
1.082116596E1	-2.183778957E-2	-8.364025950E-1	2.913435936E0
1.082956898E1	-8.093725890E-3	-5.711421967E-1	2.744078636E0
1.083797201E1	3.054236248E-2	-4.883723855E-1	2.557312012E0
1.084637503E1	5.360184610E-2	-4.474456310E-1	2.446443319E0
1.085477805E1	5.497625470E-2	-4.211791754E-1	2.406738281E0
1.086318107E1	5.543438718E-2	-4.534013867E-1	2.340614080E0
1.087158409E1	3.939964995E-2	-4.853181541E-1	2.140408754E0
1.087998711E1	3.206948051E-3	-4.198047817E-1	1.852394342E0
1.088839013E1	-4.581354558E-3	-3.002314270E-1	1.554148197E0
1.089679315E1	5.054761097E-2	-2.593046725E-1	1.342642307E0
1.090519617E1	1.148392856E-1	-3.820849657E-1	1.185807228E0
1.091359919E1	9.452861547E-2	-5.396835804E-1	9.521581531E-1
1.092200221E1	1.524063945E-1	-4.608842432E-1	7.059867382E-1
1.093040524E1	1.087308154E-1	-7.223268747E-1	8.341119289E-1
1.093880826E1	6.016845629E-2	-6.415423155E-1	7.695148587E-1
1.094721128E1	-5.726693198E-2	-1.725643501E-2	3.938437700E-1
1.095561430E1	-1.630962193E-1	5.729747415E-1	-6.001574174E-2
1.096401732E1	-1.898207814E-1	7.249229550E-1	-3.704788685E-1
1.097242034E1	-1.502684206E-1	5.682406425E-1	-5.813738704E-1
1.098082336E1	-7.971556485E-2	3.277195692E-1	-7.484406233E-1
1.098922638E1	-3.130592033E-2	2.762556672E-1	-9.544488192E-1
1.099762940E1	-3.374931216E-2	2.764083743E-1	-1.218029380E0
1.100603242E1	-8.170082420E-2	2.903051674E-1	-1.483595252E0
1.101443544E1	-1.533226669E-1	3.799470067E-1	-1.752826214E0
1.102283846E1	-2.153236568E-1	4.961606860E-1	-2.006175041E0
1.103124148E1	-2.420482337E-1	5.632011890E-1	-2.222720385E0
1.103964450E1	-2.441861928E-1	6.161921620E-1	-2.418802500E0
1.104804753E1	-2.336490750E-1	6.745280623E-1	-2.608928680E0
1.105645055E1	-2.144073844E-1	7.547017932E-1	-2.805468798E0
1.106485357E1	-1.936385781E-1	8.116632700E-1	-3.014378548E0
1.107325659E1	-1.711899489E-1	8.321266770E-1	-3.233061790E0
1.108165961E1	-1.433963925E-1	8.012788892E-1	-3.452508688E0
1.109006263E1	-1.001789495E-1	7.191199064E-1	-3.673177242E0
1.109846565E1	-4.169032723E-2	5.711421967E-1	-3.889111757E0
1.110686867E1	2.092151903E-2	3.539859951E-1	-4.092524052E0
1.111527169E1	8.506047726E-2	9.895725548E-2	-4.274556637E0
1.112367471E1	1.525591016E-1	-1.609582454E-1	-4.424061298E0
1.113207774E1	2.112004459E-1	-3.901786804E-1	-4.537373543E0
1.114048076E1	2.418955117E-1	-5.751127005E-1	-4.620754242E0
1.114888378E1	2.495311052E-1	-7.380561829E-1	-4.699095249E0
1.115728680E1	2.434226274E-1	-8.831323981E-1	-4.780490875E0
1.116568982E1	2.302894145E-1	-1.025918007E0	-4.863871098E0
1.117409284E1	2.095206082E-1	-1.165802002E0	-4.955651283E0
1.118249586E1	1.838650256E-1	-1.330272675E0	-5.057357311E0
1.119089888E1	1.452289373E-1	-1.471072912E0	-5.155856133E0
1.119930190E1	9.040539712E-2	-1.603168607E0	-5.214192390E0
1.120770492E1	1.130067464E-2	-1.749313831E0	-5.224118233E0
1.121610794E1	-1.009425074E-1	-1.796807170E0	-5.241833210E0
1.122451096E1	-2.286095917E-1	-1.723658204E0	-5.289173603E0
1.123291399E1	-3.494046330E-1	-1.535364628E0	-5.307041168E0
1.124131700E1	-4.540122151E-1	-1.267508030E0	-5.192965031E0
1.124972003E1	-5.401417017E-1	-9.358180165E-1	-4.923734188E0
1.125812305E1	-6.067240238E-1	-6.313106418E-1	-4.570206642E0
1.126652607E1	-6.603258848E-1	-3.936910629E-1	-4.229659081E0
1.127492909E1	-6.960604787E-1	-2.089097649E-1	-3.889111757E0
1.128333211E1	-7.133168578E-1	-1.072036922E-1	-3.466863632E0
1.129173513E1	-7.342383862E-1	4.963133857E-2	-2.984141588E0
1.130013815E1	-7.192726731E-1	2.719797492E-1	-2.505848169E0
1.130854117E1	-6.928535104E-1	4.477510452E-1	-2.062220335E0
1.131694419E1	-6.534538269E-1	5.833591223E-1	-1.644248128E0
1.132534721E1	-5.961869359E-1	6.681141853E-1	-1.145644069E0
1.133375024E1	-4.964661002E-1	6.925480962E-1	-5.102101564E-1
1.134215326E1	-3.602471650E-1	7.206470370E-1	1.791309565E-1
1.135055628E1	-2.715215981E-1	7.890619636E-1	7.637118101E-1
1.135895930E1	-3.228327632E-1	8.779402375E-1	1.174659252E0
1.136736232E1	-6.175665855E-1	1.043174386E0	1.371810198E0
1.137576534E1	-1.323553324E0	1.318208337E0	1.108687758E0
1.138416836E1	-1.659672022E0	3.173351526E0	-9.498675168E-2
1.139257138E1	-1.084864736E0	5.358504772E0	-1.490772724E0
1.140097440E1	-5.691569448E-1	3.741592169E0	-1.207339644E0
1.140937742E1	-7.406523079E-2	-1.441599578E-1	5.519005060E-1
1.141778044E1	4.326325655E-1	-2.755379200E0	2.376043081E0
1.142618346E1	5.199837089E-1	-3.221150398E0	3.357674599E0
1.143458648E1	3.165715933E-1	-2.267312288E0	3.358743668E0
1.144298950E1	2.020377368E-1	-1.170536041E0	2.552883387E0
1.145139253E1	-7.330167107E-3	-6.045860648E-1	1.698460817E0
1.145979555E1	-2.475458533E-1	-5.618267655E-1	1.376544356E0
1.146819857E1	-3.266505599E-1	-5.653391480E-1	1.454427361E0
1.147660159E1	-2.661767006E-1	-1.229330078E-1	1.547276139E0
1.148500461E1	-2.012741715E-1	3.272614181E-1	1.458245158E0
1.149340763E1	-1.595838517E-1	3.962871730E-1	1.228871942E0
1.150181065E1	-1.504211426E-1	7.727217674E-2	1.048672080E0
1.151021367E1	-6.551336497E-2	-2.721324563E-1	1.008966923E0
1.151861669E1	6.047387794E-2	-5.709894896E-1	1.077687263E0
1.152701971E1	1.513374150E-1	-7.591304183E-1	1.172521353E0
1.153542274E1	2.147128135E-1	-8.777875304E-1	1.232384324E0
1.154382576E1	2.441861928E-1	-9.411629438E-1	1.228413820E0
1.155222878E1	2.292204350E-1	-9.315420985E-1	1.152668834E0
1.156063180E1	1.829487532E-1	-8.252546191E-1	1.049130201E0
1.156903482E1	1.415638477E-1	-6.730009913E-1	9.823951125E-1
1.157743784E1	1.062874198E-1	-5.196782947E-1	9.578084946E-1
1.158584086E1	5.940489471E-2	-3.914003670E-1	9.249754548E-1
1.159424388E1	2.305948362E-2	-3.229855001E-1	8.557969928E-1
1.160264690E1	1.191152167E-2	-2.793098986E-1	7.797465324E-1
1.161104992E1	1.634016447E-2	-2.571666837E-1	7.143858671E-1
1.161945294E1	2.229592577E-2	-2.878617644E-1	6.629219651E-1
1.162785596E1	3.603998944E-2	-3.578037918E-1	6.187883019E-1
1.163625899E1	4.398100078E-2	-4.187358022E-1	5.967977643E-1
1.164466200E1	3.756710514E-2	-4.362976551E-1	6.090146899E-1
1.165306503E1	1.236965694E-2	-3.710896969E-1	6.270347238E-1
1.166146805E1	-6.413896102E-3	-3.067980409E-1	5.871769190E-1
1.166987107E1	-5.039489828E-3	-3.014531136E-1	5.541911721E-1
1.167827409E1	3.665083554E-3	-3.055763543E-1	5.561764240E-1
1.168667711E1	2.428117767E-2	-3.327590525E-1	5.636593103E-1
1.169508013E1	2.764083818E-2	-3.724641204E-1	5.528167486E-1
1.170348315E1	1.634016447E-2	-4.028537571E-1	5.548020005E-1
1.171188617E1	2.443389036E-2	-4.326325655E-1	5.667135715E-1
1.172028919E1	3.787253052E-2	-4.378247857E-1	5.766398311E-1
1.172869221E1	4.199574888E-2	-4.204156399E-1	5.954233408E-1
1.173709524E1	4.474456236E-2	-3.814741075E-1	6.033644080E-1
1.174549826E1	5.405998230E-2	-3.460449576E-1	6.027535200E-1
1.175390128E1	6.169557199E-2	-3.075616062E-1	5.934380889E-1
1.176230430E1	6.368082762E-2	-2.573194206E-1	5.867187977E-1
1.177070732E1	6.413896382E-2	-2.037175596E-1	5.899257660E-1
1.177911034E1	6.765133142E-2	-1.750077456E-1	5.951179266E-1
1.178751336E1	7.177454978E-2	-1.612636745E-1	5.942016840E-1
1.179591638E1	7.207997888E-2	-1.429382563E-1	5.971031785E-1
1.180431940E1	7.070557028E-2	-1.023169160E-1	6.032116413E-1
1.181272242E1	6.933116168E-2	-6.536065787E-2	6.068767309E-1
1.182112544E1	7.406523079E-2	-3.390202299E-2	6.111527085E-1
1.182952846E1	8.124268800E-2	-1.114796288E-2	6.143596172E-1
1.183793148E1	8.903098851E-2	-3.252761811E-2	6.200099587E-1
1.184633451E1	1.027750522E-1	-4.046862945E-2	6.256603003E-1
1.185473753E1	1.079672500E-1	-1.038440317E-2	6.523848772E-1
1.186314055E1	1.035386100E-1	1.053711493E-2	6.603258848E-1
1.187154357E1	9.758284688E-2	5.635065958E-2	6.700994372E-1
1.187994659E1	8.918370306E-2	8.032641560E-2	6.817055345E-1
1.188834961E1	7.910472155E-2	8.108997345E-2	6.914790869E-1
1.189675263E1	8.506047726E-2	8.933641016E-2	7.262973785E-1
1.190515565E1	9.804098308E-2	6.597150117E-2	7.631009221E-1
1.191355867E1	1.073564067E-1	2.260134928E-2	8.044858575E-1
1.192196169E1	1.194206402E-1	1.298050396E-2	8.528954983E-1
1.193036471E1	1.339282542E-1	6.261184346E-3	8.895463347E-1
1.193876774E1	1.476723254E-1	-5.955760833E-3	9.107732773E-1
1.194717076E1	1.583621502E-1	2.137965523E-3	9.286405444E-1
1.195557378E1	1.695101112E-1	-1.924168877E-2	9.504783154E-1
1.196397680E1	1.905843467E-1	-2.672456764E-2	9.833113551E-1
1.197237982E1	2.057028115E-1	-4.367557913E-2	1.034927964E0
1.198078284E1	2.209739983E-1	-4.321744293E-2	1.094180107E0
1.198918586E1	2.377723008E-1	-3.710897267E-2	1.155570269E0
1.199758888E1	2.557922900E-1	-1.038440317E-2	1.220472813E0
1.200599190E1	2.761029601E-1	7.360709459E-2	1.289803982E0
1.201439492E1	2.867927849E-1	1.345391124E-1	1.363563776E0
1.202279794E1	2.918322682E-1	2.211267054E-1	1.431978703E0
1.203120096E1	2.956500649E-1	2.725905776E-1	1.496575832E0
1.203960399E1	3.133646548E-1	2.742704153E-1	1.574000716E0
1.204800700E1	3.544441164E-1	2.255553454E-1	1.653105378E0
1.205641003E1	4.040754735E-1	1.685938388E-1	1.721673012E0
1.206481305E1	4.434750974E-1	1.371352077E-1	1.785964727E0
1.207321607E1	4.756973088E-1	6.322269142E-2	1.868123651E0
1.208161909E1	5.274665952E-1	8.460234851E-2	1.953947663E0
1.209002211E1	5.819846988E-1	1.476723254E-1	2.029998064E0
1.209842513E1	6.395570636E-1	1.177408099E-1	2.099176645E0
1.210682815E1	6.902574301E-1	1.282779220E-2	2.149571419E0
1.211523117E1	7.264500856E-1	-9.040539712E-2	2.203936815E0
1.212363419E1	7.533273697E-1	-1.997470558E-1	2.290524483E0
1.213203721E1	7.766922712E-1	-3.100049794E-1	2.386274815E0
1.214044024E1	7.933378816E-1	-3.952181637E-1	2.429797649E0
1.214884326E1	7.960866690E-1	-4.587462842E-1	2.428728819E0
1.215724628E1	7.873821259E-1	-5.181511641E-1	2.415595531E0
1.216564930E1	7.931851745E-1	-4.979932308E-1	2.420329571E0
1.217405232E1	7.543963790E-1	-5.259394646E-1	2.444610834E0
1.218245534E1	6.797202826E-1	-6.219952106E-1	2.496838093E0
1.219085836E1	6.479562521E-1	-8.205205798E-1	2.554563284E0
1.219926138E1	5.716003180E-1	-1.015228152E0	2.680245161E0
1.220766440E1	4.721849263E-1	-8.428165317E-1	2.947948933E0
1.221606742E1	3.729222417E-1	-4.248442650E-1	3.256273985E0
1.222447044E1	3.268032968E-1	1.557660475E-2	3.376763582E0
1.223287346E1	2.666348219E-1	4.395045936E-1	3.208169699E0
1.224127648E1	1.754658818E-1	8.490777016E-1	2.881519318E0
1.224967951E1	8.139539510E-2	1.189166903E0	2.577011824E0
1.225808253E1	-1.374406368E-2	1.323095202E0	2.373599768E0
1.226648555E1	-7.406523079E-2	1.242005229E0	2.208060026E0
1.227488857E1	-6.810946763E-2	1.045617819E0	1.991667509E0
1.228329159E1	2.076880634E-2	7.716528177E-1	1.698460817E0
1.229169461E1	1.843231618E-1	3.781144619E-1	1.383416295E0
1.230009763E1	3.855973184E-1	-6.398624927E-2	1.093874693E0
1.230850065E1	7.226322889E-1	-4.537068009E-1	8.205205798E-1
1.231690367E1	7.401941419E-1	-8.411366940E-1	8.335011005E-1
1.232530669E1	6.638382673E-1	-1.122584581E0	9.313893318E-1
1.233370971E1	5.558710098E-1	-9.289459586E-1	7.227849960E-1
1.234211274E1	4.621059597E-1	-4.453076422E-1	2.886253297E-1
1.235051576E1	4.169032574E-1	-6.597150117E-2	-1.053711548E-1
1.235891878E1	3.920112252E-1	2.046338320E-1	-3.930802047E-1
1.236732180E1	3.420744538E-1	4.095730782E-1	-6.071822047E-1
1.237572482E1	2.770192325E-1	5.906893015E-1	-8.403730989E-1
1.238412784E1	2.370087355E-1	7.094991207E-1	-1.101357579E0
1.239253086E1	2.258607745E-1	7.821899056E-1	-1.334395885E0
1.240093388E1	2.195995897E-1	9.191724062E-1	-1.547734261E0
1.240933690E1	1.956238300E-1	1.117545009E0	-1.788713455E0
1.241773992E1	1.603474021E-1	1.277739763E0	-2.078102350E0
1.242614294E1	1.310267299E-1	1.364480019E0	-2.377875566E0
1.243454596E1	1.116323397E-1	1.411209822E0	-2.644510508E0
1.244294899E1	1.088835225E-1	1.445264578E0	-2.881519318E0
1.245135200E1	1.162136942E-1	1.423121452E0	-3.100966215E0
1.245975503E1	1.226275861E-1	1.331799746E0	-3.307737827E0
1.246815805E1	1.342336833E-1	1.222916245E0	-3.508248568E0
1.247656107E1	1.427855492E-1	1.144575000E0	-3.686768532E0
1.248496409E1	1.356080920E-1	1.078756213E0	-3.841007471E0
1.249336711E1	1.261399537E-1	9.782719016E-1	-3.985625744E0
1.250177013E1	1.261399537E-1	8.127322793E-1	-4.130702019E0
1.251017315E1	1.510319859E-1	5.766398311E-1	-4.282039165E0
1.251857617E1	1.939440072E-1	2.854183912E-1	-4.413982391E0
1.252697919E1	2.307475507E-1	-4.382828996E-2	-4.508816242E0
1.253538221E1	2.418955117E-1	-3.564293683E-1	-4.570970058E0
1.254378524E1	2.105895877E-1	-6.042806506E-1	-4.606704712E0
1.255218826E1	1.346918195E-1	-7.771504521E-1	-4.636788845E0
1.256059128E1	3.542914242E-2	-9.087880254E-1	-4.682449818E0
1.256899430E1	-5.283828825E-2	-1.058140159E0	-4.757431030E0
1.257739732E1	-1.157555580E-1	-1.217723966E0	-4.866161823E0
1.258580034E1	-1.658450365E-1	-1.412278891E0	-4.959774494E0
1.259420336E1	-2.234173864E-1	-1.629435062E0	-4.957330704E0
1.260260638E1	-3.103103936E-1	-1.786728263E0	-4.865093231E0
1.261100940E1	-4.402681589E-1	-1.809482336E0	-4.764761448E0
1.261941242E1	-5.824428797E-1	-1.755575061E0	-4.723071098E0
1.262781544E1	-7.198835015E-1	-1.681204319E0	-4.713144779E0
1.263621846E1	-8.319739699E-1	-1.536433578E0	-4.702607632E0
1.264462148E1	-8.887827396E-1	-1.348139882E0	-4.668247700E0
1.265302451E1	-9.148964882E-1	-1.191457629E0	-4.595098495E0
1.266142753E1	-9.393303990E-1	-9.993461370E-1	-4.479342937E0
1.266983055E1	-9.458969831E-1	-7.886037827E-1	-4.309069157E0
1.267823357E1	-9.130639434E-1	-6.704048514E-1	-4.073129654E0
1.268663659E1	-8.695410490E-1	-6.623111367E-1	-3.783587933E0
1.269503961E1	-8.341119289E-1	-5.913001299E-1	-3.469765186E0
1.270344263E1	-8.084563613E-1	-3.909422457E-1	-3.141434669E0
1.271184565E1	-7.715001106E-1	-2.243336588E-1	-2.770650387E0
1.272024867E1	-7.246175408E-1	-9.987352788E-2	-2.369018316E0
1.272865169E1	-6.565080881E-1	-1.679830020E-3	-1.942494273E0
1.273705471E1	-5.622848868E-1	7.024743594E-3	-1.477028728E0
1.274545774E1	-4.653128982E-1	-3.878879920E-2	-9.726215601E-1
1.275386076E1	-3.758237660E-1	-6.810946763E-2	-4.349232614E-1
1.276226378E1	-2.742704153E-1	-7.849387079E-2	1.273616552E-1
1.277066680E1	-1.545443535E-1	-8.383878320E-2	6.791094542E-1
1.277906982E1	-4.917320609E-2	-4.703523964E-2	1.179087877E0
1.278747284E1	6.566607859E-3	6.398624927E-2	1.591562510E0
1.279587586E1	-2.901524538E-3	2.677038014E-1	1.901567459E0
1.280427888E1	-8.628217876E-2	5.431959033E-1	2.115058661E0
1.281268190E1	-3.950654566E-1	8.623636365E-1	2.058707952E0
1.282108492E1	-1.085628271E0	1.242616057E0	1.366770744E0
1.282948794E1	-1.323706031E0	3.019418001E0	-3.159607351E-1
1.283789096E1	-9.373451471E-1	5.006656647E0	-1.485122442E0
1.284629398E1	-7.403468490E-1	3.591323853E0	-6.273401380E-1
1.285469700E1	-2.428117841E-1	7.818844914E-2	1.156792045E0
1.286310003E1	6.447492838E-1	-2.933746576E0	2.850213289E0
1.287150305E1	9.880454540E-1	-3.920264959E0	3.578953981E0
1.287990607E1	8.585458398E-1	-3.011629581E0	3.291703224E0
1.288830909E1	5.444176197E-1	-1.106855273E0	2.210503578E0
1.289671211E1	-2.565558441E-2	5.743491650E-1	1.287055135E0
1.290511513E1	-4.848600030E-1	1.220320106E0	1.030957460E0
1.291351815E1	-6.262711287E-1	1.153890491E0	1.229635477E0
1.292192117E1	-4.926483035E-1	8.402203918E-1	1.463590026E0
1.293032419E1	-2.545706034E-1	5.004366040E-1	1.448166132E0
1.293872721E1	-9.147437662E-2	2.018850148E-1	1.224596024E0
1.294713024E1	-7.941014133E-3	-6.016845629E-2	9.933903813E-1
1.295553326E1	4.657710344E-2	-2.786990702E-1	9.458969831E-1
1.296393628E1	2.718270384E-2	-3.180987239E-1	1.054169655E0
1.297233930E1	-1.863084175E-2	-1.852394342E-1	1.156944752E0
1.298074232E1	-4.520269856E-2	-1.331647038E-1	1.146713018E0
1.298914534E1	-6.856760383E-2	-1.772984117E-1	1.058140159E0
1.299754836E1	-9.391776472E-2	-2.163926363E-1	9.423846006E-1
1.300595138E1	-1.215586066E-1	-2.049392611E-1	8.580876589E-1
1.301435440E1	-1.430909634E-1	-1.603474021E-1	8.156337738E-1
1.302275742E1	-1.551551968E-1	-8.185353130E-2	7.831062078E-1
1.303116044E1	-1.591257155E-1	-8.093725890E-3	7.482879162E-1
1.303956346E1	-1.588202864E-1	3.390202299E-2	7.278245091E-1
1.304796649E1	-1.484358907E-1	4.443913698E-2	7.276718020E-1
1.305636951E1	-1.331647038E-1	2.611372061E-2	7.264500856E-1
1.306477253E1	-1.049130186E-1	-2.473931387E-2	7.000309825E-1
1.307317555E1	-6.490252167E-2	-1.195733473E-1	6.575770974E-1
1.308157857E1	-1.924168877E-2	-2.231119573E-1	6.256603003E-1
1.308998159E1	1.863084175E-2	-3.025220931E-1	6.195518374E-1
1.309838461E1	4.657710344E-2	-3.562766612E-1	6.343649030E-1
1.310678763E1	6.047387794E-2	-3.660502136E-1	6.377245188E-1
1.311519065E1	6.093201414E-2	-3.293993771E-1	6.154286265E-1
1.312359367E1	5.757235363E-2	-2.874036431E-1	5.896202922E-1
1.313199669E1	6.505523622E-2	-2.863346636E-1	5.781669021E-1
1.314039971E1	6.474980712E-2	-2.892361879E-1	5.659499764E-1
1.314880274E1	5.680879578E-2	-2.725905776E-1	5.447230339E-1
1.315720576E1	4.504998401E-2	-2.296785712E-1	5.268557668E-1
1.316560878E1	4.902049154E-2	-1.878355294E-1	5.306735635E-1
1.317401180E1	6.994201243E-2	-1.551551968E-1	5.474718809E-1
1.318241482E1	9.987352788E-2	-1.669140160E-1	5.546492934E-1
1.319081784E1	1.302631795E-1	-2.408265322E-1	5.479300022E-1
1.319922086E1	1.478250325E-1	-3.122956753E-1	5.453338623E-1
1.320762388E1	1.466033459E-1	-3.324536085E-1	5.509842038E-1
1.321602690E1	1.366770715E-1	-2.944283783E-1	5.538857579E-1
1.322442992E1	1.177408099E-1	-2.328855246E-1	5.441122055E-1
1.323283294E1	1.007898003E-1	-1.670667231E-1	5.317425132E-1
1.324123596E1	8.399149776E-2	-1.033858955E-1	5.250232220E-1
1.324963898E1	7.177454978E-2	-6.383354217E-2	5.238015056E-1
1.325804200E1	6.429167092E-2	-3.145863488E-2	5.286883116E-1
1.326644503E1	5.986303091E-2	5.955760833E-3	5.338805318E-1
1.327484805E1	5.741964281E-2	3.329117596E-2	5.370874405E-1
1.328325107E1	6.139015034E-2	7.238540053E-2	5.590779781E-1
1.329165409E1	7.498150319E-2	1.863084175E-2	5.671716928E-1
1.330005711E1	9.239064902E-2	-7.101099193E-2	5.489989519E-1
1.330846013E1	1.049130186E-1	-5.818320066E-2	5.708367825E-1
1.331686315E1	1.072036922E-1	-2.137965523E-3	6.175665855E-1
1.332526617E1	1.009425074E-1	1.450762246E-2	6.358919740E-1
1.333366919E1	9.941539168E-2	3.878879920E-2	6.235223413E-1
1.334207221E1	1.018587798E-1	7.605048269E-2	6.235223413E-1
1.335047524E1	8.994726092E-2	4.779879749E-2	6.200099587E-1
1.335887826E1	9.101624042E-2	5.344913341E-3	6.120689511E-1
1.336728128E1	9.758284688E-2	-3.680354729E-2	6.186355352E-1
1.337568430E1	7.986827940E-2	-1.116323397E-1	6.445965767E-1
1.338408732E1	7.330167294E-2	-1.270562261E-1	6.726955175E-1
1.339249034E1	7.956285775E-2	-1.270562261E-1	6.980457306E-1
1.340089336E1	8.567132801E-2	-1.394258887E-1	7.223268747E-1
1.340929638E1	9.865183383E-2	-1.336228400E-1	7.456917763E-1
1.341769940E1	1.180462316E-1	-1.606528312E-1	7.919634581E-1
1.342610242E1	1.354553849E-1	-1.769929975E-1	8.544226289E-1
1.343450544E1	1.612636745E-1	-1.989834905E-1	9.087880254E-1
1.344290846E1	1.890572309E-1	-2.058555335E-1	9.717052579E-1
1.345131149E1	2.148655206E-1	-1.378987730E-1	1.044243336E0
1.345971450E1	2.383831441E-1	-1.146865711E-1	1.117239594E0
1.346811753E1	2.669402659E-1	-8.078455180E-2	1.189166903E0
1.347652055E1	2.970244884E-1	-3.542914242E-2	1.260788798E0
1.348492357E1	3.148917556E-1	-3.802524135E-2	1.344016671E0
1.349332659E1	3.484883606E-1	1.557660475E-2	1.429840684E0
1.350172961E1	3.849864900E-1	2.183778957E-2	1.508029222E0
1.351013263E1	4.231644273E-1	-4.581354442E-4	1.565754294E0
1.351853565E1	4.714213610E-1	-2.932066843E-2	1.615996480E0
1.352693867E1	5.170822144E-1	-9.009996802E-2	1.675401330E0
1.353534169E1	5.778614879E-1	-1.224748790E-1	1.753589749E0
1.354374471E1	6.293253899E-1	-1.904316396E-1	1.857433796E0
1.355214774E1	6.676560640E-1	-7.757759839E-2	1.899582267E0
1.356055076E1	7.188144922E-1	6.291726977E-2	1.926917672E0
1.356895378E1	7.736380696E-1	3.665083647E-2	1.968913436E0
1.357735680E1	7.934905887E-1	-6.917845458E-2	1.988460541E0
1.358575982E1	7.966975570E-1	-1.591257155E-1	2.011214495E0
1.359416284E1	8.127322793E-1	-3.214583695E-1	2.102078199E0
1.360256586E1	8.342646360E-1	-4.735593498E-1	2.247307062E0
1.361096888E1	8.547280431E-1	-5.473191738E-1	2.363520861E0
1.361937190E1	8.631271720E-1	-5.331169367E-1	2.415748119E0
1.362777492E1	8.452599049E-1	-4.621059597E-1	2.452551842E0
1.363617794E1	8.174663186E-1	-3.828485310E-1	2.522035599E0
1.364458096E1	7.565343380E-1	-2.716743052E-1	2.622519970E0
1.365298398E1	6.589514613E-1	-1.801999360E-1	2.733846903E0
1.366138701E1	5.862606764E-1	-1.974563748E-1	2.820739985E0
1.366979003E1	5.712949038E-1	-3.067980409E-1	2.847006321E0
1.367819305E1	5.483881235E-1	-5.851916671E-1	2.872203827E0
1.368659607E1	4.946335554E-1	-7.878402472E-1	2.803941727E0
1.369499909E1	4.199574888E-1	-5.152496696E-1	2.623741627E0
1.370340211E1	3.709369898E-1	-2.877090573E-1	2.712009192E0
1.371180513E1	3.199312389E-1	-3.637595475E-1	3.043241024E0
1.372020815E1	2.988570333E-1	-3.562766612E-1	3.248180389E0
1.372861117E1	2.884726226E-1	-9.300149232E-2	3.079891920E0
1.373701419E1	2.324273884E-1	3.090887070E-1	2.684520960E0
1.374541721E1	9.391776472E-2	7.623373866E-1	2.304421186E0
1.375382024E1	-3.237490356E-2	1.112963676E0	2.014116049E0
1.376222326E1	-3.115320951E-2	1.147171140E0	1.790546060E0
1.377062628E1	8.093725890E-2	9.054283500E-1	1.552315593E0
1.377902930E1	2.273878902E-1	5.007420182E-1	1.294690728E0
1.378743232E1	3.868190348E-1	4.077405483E-2	9.497147799E-1
1.379583534E1	5.987830162E-1	-2.199050188E-1	5.112791657E-1
1.380423836E1	5.065450668E-1	-5.549547076E-1	4.527905285E-1
1.381264138E1	4.031592011E-1	-8.466343284E-1	5.858024955E-1
1.382104440E1	3.516952991E-1	-6.077930331E-1	4.401154518E-1
1.382944742E1	3.026748300E-1	-9.223793447E-2	7.330167294E-2
1.383785044E1	2.678565085E-1	3.979669809E-1	-3.037438095E-1
1.384625346E1	2.147128135E-1	7.331694365E-1	-5.977140665E-1
1.385465649E1	1.276670843E-1	9.535325766E-1	-8.397622705E-1
1.386305950E1	5.115845799E-2	1.118614078E0	-1.098608851E0
1.387146253E1	1.969982497E-2	1.174201131E0	-1.362189412E0
1.387986555E1	2.015795931E-2	1.213142633E0	-1.593395114E0
1.388826857E1	6.872031838E-3	1.385554314E0	-1.820935726E0
1.389667159E1	-3.222219273E-2	1.587439299E0	-2.066343546E0
1.390507461E1	-7.070557028E-2	1.740303874E0	-2.331756592E0
1.391347763E1	-1.003316641E-1	1.828418612E0	-2.591977596E0
1.392188065E1	-1.240019947E-1	1.888739705E0	-2.821808815E0
1.393028367E1	-1.374406368E-1	1.905996203E0	-3.035300016E0
1.393868669E1	-1.336228400E-1	1.843078852E0	-3.244515181E0
1.394708971E1	-1.075091213E-1	1.718618751E0	-3.462282181E0
1.395549274E1	-6.872031838E-2	1.547123432E0	-3.680202007E0
1.396389576E1	-1.740914769E-2	1.325385809E0	-3.882239819E0
1.397229878E1	5.497625470E-2	1.032179117E0	-4.062286854E0
1.398070180E1	1.412584335E-1	6.775823236E-1	-4.227674007E0
1.398910482E1	2.293731421E-1	2.924431264E-1	-4.378400326E0
1.399750784E1	3.214583695E-1	-1.090362370E-1	-4.503166199E0
1.400591086E1	3.953709006E-1	-4.993676245E-1	-4.579063892E0
1.401431388E1	4.225535989E-1	-8.055548072E-1	-4.618157864E0
1.402271690E1	4.068242610E-1	-1.033553600E0	-4.644424438E0
1.403111992E1	3.646758199E-1	-1.223832488E0	-4.667636395E0
1.403952294E1	3.190149665E-1	-1.389524817E0	-4.702913284E0
1.404792596E1	2.721324563E-1	-1.539640546E0	-4.756056786E0
1.405632898E1	2.176143378E-1	-1.658603072E0	-4.825998783E0
1.406473201E1	1.421747059E-1	-1.692657709E0	-4.891359329E0
1.407313503E1	5.696150661E-2	-1.653105378E0	-4.931369781E0
1.408153805E1	-2.840439789E-2	-1.646080613E0	-4.928315639E0
1.408994107E1	-1.226275861E-1	-1.640124917E0	-4.892886639E0
1.409834409E1	-2.557922900E-1	-1.469698548E0	-4.850890636E0
1.410674711E1	-4.169032574E-1	-1.153126955E0	-4.823860645E0
1.411515013E1	-5.448757410E-1	-7.985301018E-1	-4.802328587E0
1.412355315E1	-5.922164321E-1	-5.980194807E-1	-4.757584095E0
1.413195617E1	-6.039752364E-1	-4.337015450E-1	-4.669011116E0
1.414035919E1	-6.045860648E-1	-2.622061968E-1	-4.521033287E0
1.414876221E1	-5.758762360E-1	-1.971509457E-1	-4.275167465E0
1.415716524E1	-5.251759291E-1	-2.116585821E-1	-3.926526070E0
1.416556826E1	-4.828747511E-1	-1.598892659E-1	-3.539554358E0
1.417397128E1	-4.747810364E-1	-4.902049154E-2	-3.148612261E0
1.418237430E1	-4.908157587E-1	9.605573118E-2	-2.760571480E0
1.419077732E1	-5.071559548E-1	1.605001241E-1	-2.348707676E0
1.419918034E1	-5.222744346E-1	1.437018216E-1	-1.885074615E0
1.420758336E1	-5.175403357E-1	9.651386738E-2	-1.358829737E0
1.421598638E1	-4.530959427E-1	-5.344913341E-3	-7.803573608E-1
1.422438940E1	-3.440597057E-1	-1.093416587E-1	-1.815743446E-1
1.423279242E1	-2.225011140E-1	-1.333174109E-1	4.002576768E-1
1.424119544E1	-1.175880954E-1	-2.947338112E-2	9.422318935E-1
1.424959846E1	-5.314370990E-2	1.490467340E-1	1.429687977E0
1.425800149E1	-6.245913357E-2	3.614688516E-1	1.836970448E0
1.426640450E1	-1.820324808E-1	6.142069101E-1	2.130635262E0
1.427480753E1	-4.993676245E-1	8.779402375E-1	2.024653196E0
1.428321055E1	-1.041036487E0	1.260025144E0	1.178629756E0
1.429161357E1	-1.244143128E0	2.712467194E0	-5.190674663E-1
1.430001659E1	-9.446752667E-1	4.682602406E0	-1.641651988E0
1.430841961E1	-7.905890942E-1	3.196258307E0	-3.918585181E-1
1.431682263E1	-1.692046970E-1	-3.362714052E-1	1.601183414E0
1.432522565E1	8.156337738E-1	-3.667832375E0	3.409749508E0
1.433362867E1	1.235133171E0	-4.557837009E0	3.988221645E0
1.434203169E1	1.061957955E0	-3.394936323E0	3.420591831E0
1.435043471E1	5.554128885E-1	-1.248266339E0	2.161024809E0
1.435883774E1	-4.245388508E-2	3.975088596E-1	1.121821046E0
1.436724076E1	-4.416425824E-1	8.619054556E-1	9.202414155E-1
1.437564378E1	-5.705313683E-1	7.291989326E-1	1.073716760E0
1.438404680E1	-5.551074743E-1	4.052971601E-1	1.247655511E0
1.439244982E1	-4.701996744E-1	1.563768983E-1	1.296828747E0
1.440085284E1	-3.216110766E-1	3.268032894E-2	1.261094213E0
1.440925586E1	-1.548497826E-1	-4.886778072E-2	1.201536536E0
1.441765888E1	-3.237490356E-2	-1.288887709E-1	1.169925213E0
1.442606190E1	1.527118147E-3	-1.675248593E-1	1.196344376E0
1.443446492E1	-2.046338283E-2	-1.687465608E-1	1.252236843E0
1.444286794E1	-6.062658876E-2	-1.811162084E-1	1.287971497E0
1.445127096E1	-1.038440317E-1	-2.226538211E-1	1.244448543E0
1.445967398E1	-1.432436854E-1	-2.362451702E-1	1.116017938E0
1.446807701E1	-1.742441803E-1	-2.223484069E-1	9.842276573E-1
1.447648003E1	-1.823379099E-1	-1.885990947E-1	9.112313986E-1
1.448488305E1	-1.569877416E-1	-1.669140160E-1	8.984035850E-1
1.449328607E1	-1.200314835E-1	-1.525591016E-1	8.877137899E-1
1.450168909E1	-1.094943732E-1	-1.409530044E-1	8.747332692E-1
1.451009211E1	-1.162136942E-1	-1.006370857E-1	8.773293495E-1
1.451849513E1	-1.218640283E-1	-3.863608837E-2	8.790091872E-1
1.452689815E1	-1.139230132E-1	-1.939439960E-2	8.518264890E-1
1.453530117E1	-7.345438004E-2	-9.590301663E-2	8.043331504E-1
1.454370419E1	-2.458660305E-2	-2.119639963E-1	7.656970620E-1
1.455210721E1	1.404948719E-2	-2.932066917E-1	7.485933304E-1
1.456051024E1	4.153761268E-2	-3.518480062E-1	7.310314775E-1
1.456891326E1	6.872031838E-2	-4.007157981E-1	7.101099491E-1
1.457731628E1	8.933641016E-2	-4.440859556E-1	6.981984377E-1
1.458571930E1	9.926267713E-2	-4.595098495E-1	6.859814525E-1
1.459412232E1	9.223793447E-2	-4.398100376E-1	6.569662094E-1
1.460252534E1	9.804098308E-2	-4.275930822E-1	6.108472347E-1
1.461092836E1	1.194206402E-1	-4.822639227E-1	6.004628539E-1
1.461933138E1	1.154501289E-1	-4.760027230E-1	6.068767309E-1
1.462773440E1	8.429691941E-2	-3.532224298E-1	5.741963983E-1
1.463613742E1	6.184828654E-2	-2.392994165E-1	5.179984570E-1
1.464454044E1	6.077930331E-2	-2.179197669E-1	4.886777997E-1
1.465294346E1	7.360709459E-2	-2.530434728E-1	4.848600030E-1
1.466134649E1	7.910472155E-2	-2.896943092E-1	4.879142344E-1
1.466974950E1	8.139539510E-2	-3.118375242E-1	4.895940721E-1
1.467815253E1	9.147437662E-2	-3.158080280E-1	4.982986450E-1
1.468655555E1	9.177979827E-2	-3.061871827E-1	5.176930428E-1
1.469495857E1	7.635590434E-2	-2.426590770E-1	5.236487985E-1
1.470336159E1	6.520794332E-2	-2.151709497E-1	4.926483035E-1
1.471176461E1	4.932591692E-2	-2.160872221E-1	4.796678126E-1
1.472016763E1	2.809897438E-2	-1.615691036E-1	4.886777997E-1
1.472857065E1	2.031067200E-2	-9.284878522E-2	4.950917065E-1
1.473697367E1	2.321219631E-2	-3.084778599E-2	5.015056133E-1
1.474537669E1	2.687728032E-2	-1.359135192E-2	5.112791657E-1
1.475377971E1	3.741439432E-2	-3.756710514E-2	5.334223509E-1
1.476218274E1	4.657710344E-2	-5.405998230E-2	5.430431962E-1
1.477058576E1	5.726693198E-2	-4.474456236E-2	5.763344169E-1
1.477898878E1	6.505523622E-2	-3.894151375E-2	5.810684562E-1
1.478739180E1	6.673506647E-2	-8.704573847E-3	5.716003180E-1
1.479579482E1	6.902574003E-2	-9.162709117E-3	5.714476109E-1
1.480419784E1	7.971556485E-2	3.054236295E-3	5.683933496E-1
1.481260086E1	8.658760041E-2	8.246437646E-3	5.633538961E-1
1.482100388E1	9.147437662E-2	-3.436015919E-2	5.769452453E-1
1.482940690E1	1.009425074E-1	-6.245913357E-2	5.945070982E-1
1.483780992E1	1.178935245E-1	-7.773031294E-2	5.989357233E-1
1.484621294E1	1.192679256E-1	-9.987352788E-2	5.966450572E-1
1.485461596E1	1.291942000E-1	-9.498675168E-2	6.010736823E-1
1.486301898E1	1.525591016E-1	-1.093416587E-1	6.004628539E-1
1.487142201E1	1.684411317E-1	-1.844758689E-1	6.198572516E-1
1.487982503E1	1.896680743E-1	-1.887518018E-1	6.814001203E-1
1.488822805E1	2.116585821E-1	-1.650814712E-1	7.545490861E-1
1.489663107E1	2.221956849E-1	-1.827960461E-1	8.315158486E-1
1.490503409E1	2.409792393E-1	-1.177408099E-1	9.150491953E-1
1.491343711E1	2.525853515E-1	-4.718795046E-2	9.865183234E-1
1.492184013E1	2.628170252E-1	-7.635590620E-3	1.063485026E0
1.493024315E1	2.829749882E-1	8.811471611E-2	1.141215444E0
1.493864617E1	3.009949923E-1	1.032331884E-1	1.216196895E0
1.494704919E1	3.235963285E-1	1.453816444E-1	1.294690728E0
1.495545221E1	3.420744538E-1	1.850867122E-1	1.368145108E0
1.496385524E1	3.608580232E-1	1.795890927E-1	1.436560035E0
1.497225826E1	3.982724249E-1	1.774511337E-1	1.479013920E0
1.498066128E1	4.375193417E-1	1.117850468E-1	1.515664816E0
1.498906430E1	4.805840850E-1	6.291726977E-2	1.565601468E0
1.499746732E1	4.911212027E-1	2.305948362E-2	1.603015900E0
1.500587034E1	4.995203316E-1	-1.236965694E-2	1.626075387E0
1.501427336E1	5.233433843E-1	-7.574506104E-2	1.659519315E0
1.502267638E1	5.515950918E-1	-1.324011385E-1	1.703958392E0
1.503107940E1	5.919110179E-1	-3.695625812E-2	1.765653968E0
1.503948242E1	6.325323582E-1	1.035386100E-1	1.841704488E0
1.504788544E1	6.638382673E-1	1.455343664E-1	1.898666024E0
1.505628846E1	6.726955175E-1	8.765657991E-2	1.920961976E0
1.506469148E1	6.884248853E-1	9.468132630E-3	1.962652206E0
1.507309450E1	7.124006152E-1	-1.032331884E-1	2.060998678E0
1.508149753E1	7.432484031E-1	-2.061609477E-1	2.192636251E0
1.508990055E1	7.913526297E-1	-2.692309320E-1	2.284874201E0
1.509830357E1	8.281561732E-1	-3.127537966E-1	2.306253910E0
1.510670659E1	8.333483934E-1	-3.500154912E-1	2.273573399E0
1.511510961E1	8.014315963E-1	-4.501944184E-1	2.299076319E0
1.512351263E1	7.543963790E-1	-5.587725043E-1	2.449344873E0
1.513191565E1	6.734591126E-1	-6.255075932E-1	2.637791157E0
1.514031867E1	5.595360994E-1	-8.655705452E-1	2.870065928E0
1.514872169E1	4.666872919E-1	-1.012937427E0	3.061260939E0
1.515712471E1	3.921639323E-1	-6.552863717E-1	3.201297760E0
1.516552774E1	3.019112647E-1	-3.681881726E-1	3.412345409E0
1.517393076E1	2.189887464E-1	-2.046338283E-2	3.557269096E0
1.518233378E1	1.556133330E-1	4.773771465E-1	3.445025921E0
1.519073680E1	7.773031294E-2	8.762603998E-1	3.146168709E0
1.519913982E1	-1.847812906E-2	1.097692490E0	2.825168610E0
1.520754284E1	-1.111742035E-1	1.129303813E0	2.595337391E0
1.521594586E1	-1.455343664E-1	1.002705812E0	2.390703440E0
1.522434888E1	-1.014006436E-1	7.585195899E-1	2.148655176E0
1.523275190E1	2.886253223E-2	3.770454824E-1	1.869650722E0
1.524115492E1	2.087570578E-1	-2.157817930E-1	1.636154413E0
1.524955794E1	3.539859951E-1	-7.678350210E-1	1.393495321E0
1.525796096E1	5.199837089E-1	-9.320002198E-1	1.076312900E0
1.526636399E1	4.077405334E-1	-9.184088707E-1	9.544488192E-1
1.527476701E1	2.585411072E-1	-9.811733961E-1	1.069440842E0
1.528317003E1	2.127275616E-1	-7.127060294E-1	1.025001645E0
1.529157305E1	2.032594234E-1	-7.559234649E-2	7.108734846E-1
1.529997607E1	1.620272398E-1	4.158342779E-1	3.032856584E-1
1.530837909E1	5.757235363E-2	7.226322889E-1	-7.696675509E-2
1.531678211E1	-8.002099395E-2	9.501729012E-1	-4.346178174E-1
1.532518513E1	-1.724116355E-1	1.105938911E0	-7.479824424E-1
1.533358815E1	-1.803526580E-1	1.113269091E0	-9.863656163E-1
1.534199117E1	-1.458397806E-1	1.082421303E0	-1.176186442E0
1.535039419E1	-1.131594554E-1	1.123042703E0	-1.366923451E0
1.535879721E1	-1.009425074E-1	1.209782958E0	-1.592784286E0
1.536720024E1	-1.194206402E-1	1.256207347E0	-1.839261055E0
1.537560326E1	-1.459924877E-1	1.299424887E0	-2.083294630E0
1.538400628E1	-1.698155403E-1	1.345696568E0	-2.302283287E0
1.539240930E1	-1.846285909E-1	1.373948216E0	-2.508291483E0
1.540081232E1	-1.751604527E-1	1.386012435E0	-2.723615170E0
1.540921534E1	-1.374406368E-1	1.386317849E0	-2.937717199E0
1.541761836E1	-7.391251624E-2	1.301104665E0	-3.149223089E0
1.542602138E1	-1.068982761E-3	1.152057886E0	-3.359049082E0
1.543442440E1	6.841489673E-2	9.403993487E-1	-3.569944143E0
1.544282742E1	1.236965731E-1	7.081246972E-1	-3.770149231E0
1.545123044E1	1.634016484E-1	5.274665952E-1	-3.921028614E0
1.545963346E1	1.997470558E-1	3.246653080E-1	-4.065952301E0
1.546803648E1	2.315111160E-1	1.075091213E-1	-4.197284222E0
1.547643950E1	2.678565085E-1	-9.880454093E-2	-4.298990250E0
1.548484253E1	2.898470163E-1	-3.290939629E-1	-4.392602444E0
1.549324555E1	2.762556672E-1	-5.013529062E-1	-4.471554756E0
1.550164857E1	2.273878902E-1	-5.935907960E-1	-4.554324627E0
1.551005159E1	1.615691036E-1	-6.267293096E-1	-4.644882679E0
1.551845461E1	8.887827396E-2	-6.641436815E-1	-4.736814976E0
1.552685763E1	1.298050396E-2	-7.010999322E-1	-4.844629765E0
1.553526065E1	-4.398100078E-2	-7.310314775E-1	-4.953054905E0
1.554366367E1	-8.261708915E-2	-8.316685557E-1	-5.006504059E0
1.555206669E1	-1.111742035E-1	-1.033706307E0	-4.987873077E0
1.556046971E1	-1.485885978E-1	-1.262926698E0	-4.921290874E0
1.556887274E1	-2.238755226E-1	-1.431825995E0	-4.847989082E0
1.557727576E1	-3.436015844E-1	-1.511388779E0	-4.800496101E0
1.558567878E1	-4.821111858E-1	-1.449082375E0	-4.781865120E0
1.559408180E1	-6.151232123E-1	-1.286749721E0	-4.772855282E0
1.560248482E1	-7.279772162E-1	-1.127013206E0	-4.744908810E0
1.561088784E1	-8.096780181E-1	-9.399412274E-1	-4.700316906E0
1.561929086E1	-8.499939442E-1	-7.708892226E-1	-4.618157864E0
1.562769388E1	-8.481613994E-1	-6.586460471E-1	-4.448342323E0
1.563609690E1	-8.238802552E-1	-5.447230339E-1	-4.171170712E0
1.564449992E1	-7.840224504E-1	-4.286620617E-1	-3.824972868E0
1.565290294E1	-7.403468490E-1	-3.684936166E-1	-3.454188585E0
1.566130596E1	-7.067502737E-1	-2.884726226E-1	-3.094552279E0
1.566970899E1	-6.748335361E-1	-1.995943487E-1	-2.717506647E0
1.567811201E1	-6.406260729E-1	-9.208522737E-2	-2.298160076E0
1.568651503E1	-6.076403260E-1	2.260134928E-2	-1.832236409E0
1.569491805E1	-5.523586273E-1	8.429691941E-2	-1.324622273E0
1.570332107E1	-4.660764635E-1	7.207997888E-2	-7.702783942E-1
1.571172409E1	-3.691044450E-1	3.374931216E-2	-1.983726472E-1
1.572012711E1	-2.675510943E-1	3.970507160E-2	3.437542915E-1
1.572853013E1	-1.776038408E-1	1.171299592E-1	8.496885300E-1
1.573693315E1	-1.009425074E-1	2.673983872E-1	1.343863964E0
1.574533617E1	-5.421269313E-2	4.701996744E-1	1.784742951E0
1.575373919E1	-1.172826737E-1	7.881456614E-1	2.058097124E0
1.576214221E1	-4.993676245E-1	1.066844702E0	1.977007151E0
1.577054524E1	-1.297897696E0	1.370435834E0	1.145949483E0
1.577894826E1	-1.406017661E0	3.368211746E0	-9.400939345E-1
1.578735128E1	-8.658760190E-1	5.594597340E0	-2.139339924E0
1.579575430E1	-6.922426820E-1	3.487785101E0	-8.264763355E-1
1.580415732E1	-1.215586066E-1	-7.316423059E-1	1.363563776E0
1.581256034E1	8.748859763E-1	-4.049612045E0	3.215958118E0
1.582096336E1	1.204285383E0	-4.797136307E0	3.829401493E0
1.582936638E1	1.010494113E0	-3.446858406E0	3.327590466E0
1.583776940E1	4.621059597E-1	-1.121210098E0	2.067870617E0
1.584617242E1	-2.322746664E-1	6.731536984E-1	1.194817185E0
1.585457544E1	-6.529957056E-1	1.442210436E0	1.191152096E0
1.586297846E1	-6.632274389E-1	1.447860718E0	1.598739982E0
1.587138148E1	-4.886777997E-1	1.354248405E0	1.747175932E0
1.587978451E1	-3.655920923E-1	1.169619799E0	1.507876515E0
1.588818753E1	-2.507528067E-1	8.217422962E-1	1.112505555E0
1.589659055E1	-1.360662282E-1	2.147128135E-1	8.562551737E-1
1.590499357E1	-4.672981426E-2	-2.993151546E-1	9.014578462E-1
1.591339659E1	2.122694254E-2	-5.021164417E-1	1.112505555E0
1.592179961E1	5.650337040E-2	-5.511369109E-1	1.281404853E0
1.593020263E1	6.001574174E-2	-5.537330508E-1	1.272700310E0
1.593860565E1	3.558185324E-2	-5.086830258E-1	1.147171140E0
1.594700867E1	-9.009997360E-3	-4.372139275E-1	9.863656163E-1
1.595541169E1	-6.245913357E-2	-3.278722763E-1	8.591566682E-1
1.596381471E1	-1.134648770E-1	-1.908897758E-1	8.000571728E-1
1.597221774E1	-1.414111406E-1	-7.269082218E-2	7.922688723E-1
1.598062076E1	-1.522536725E-1	3.206948051E-3	7.905890942E-1
1.598902378E1	-1.354553849E-1	1.160609815E-2	7.919634581E-1
1.599742680E1	-8.887827396E-2	-4.275930673E-2	8.131904006E-1
1.600582982E1	-3.405473381E-2	-1.291942000E-1	8.264763355E-1
1.601423284E1	1.695101149E-2	-2.373141646E-1	7.999044657E-1
1.602263586E1	5.711421743E-2	-3.100049794E-1	7.313368917E-1
1.603103888E1	1.088835225E-1	-3.990359604E-1	6.989619732E-1
1.603944190E1	1.751604527E-1	-5.602996349E-1	7.441646457E-1
1.604784492E1	2.170034945E-1	-6.691831946E-1	7.898254991E-1
1.605624794E1	2.162399292E-1	-6.450546980E-1	7.740961909E-1
1.606465096E1	2.066190839E-1	-5.809157491E-1	7.505785823E-1
1.607305398E1	2.021904439E-1	-5.166240931E-1	7.487460375E-1
1.608145700E1	1.913478971E-1	-4.515688419E-1	7.427902818E-1
1.608986003E1	1.612636745E-1	-3.794888556E-1	7.064448595E-1
1.609826305E1	1.270562261E-1	-2.965663373E-1	6.485670805E-1
1.610666607E1	1.000262350E-1	-2.307475507E-1	5.955760479E-1
1.611506909E1	8.139539510E-2	-1.892099380E-1	5.667135715E-1
1.612347211E1	7.666133344E-2	-1.568350345E-1	5.572454333E-1
1.613187513E1	7.986827940E-2	-1.365243644E-1	5.670189857E-1
1.614027815E1	8.567132801E-2	-1.079672500E-1	5.839699507E-1
1.614868117E1	9.071081877E-2	-1.273616552E-1	5.784723759E-1
1.615708419E1	1.003316641E-1	-1.699682474E-1	5.702258945E-1
1.616548721E1	1.068982705E-1	-1.881409585E-1	5.668662786E-1
1.617389024E1	1.023169160E-1	-1.837123185E-1	5.641174316E-1
1.618229326E1	8.750387281E-2	-1.397313178E-1	5.572454333E-1
1.619069628E1	6.505523622E-2	-6.597150117E-2	5.405998230E-1
1.619909930E1	4.993676394E-2	6.413896102E-3	5.279247165E-1
1.620750232E1	4.459185153E-2	6.856760383E-2	5.173876286E-1
1.621590534E1	5.344913527E-2	8.842013776E-2	5.137225389E-1
1.622430836E1	6.306997687E-2	1.878355257E-2	5.186093450E-1
1.623271138E1	7.910472155E-2	-3.390202299E-2	5.111264586E-1
1.624111440E1	9.422318637E-2	-3.710897267E-2	5.361711979E-1
1.624951742E1	1.033858955E-1	-1.969982497E-2	5.613686442E-1
1.625792044E1	1.136175916E-1	-1.527118147E-3	5.412106514E-1
1.626632346E1	1.130067408E-1	-2.336490713E-2	5.311316848E-1
1.627472649E1	1.117850468E-1	-2.153236605E-2	5.344913602E-1
1.628312950E1	1.139230132E-1	-5.818320066E-2	5.395308137E-1
1.629153253E1	1.175880954E-1	-9.788827598E-2	5.467082858E-1
1.629993555E1	1.096470803E-1	-1.718007922E-1	5.703786016E-1
1.630833857E1	1.122431830E-1	-1.939440072E-1	6.064186096E-1
1.631674159E1	1.162136942E-1	-1.968455315E-1	6.427640319E-1
1.632514461E1	1.307213157E-1	-1.893626451E-1	6.736118197E-1
1.633354763E1	1.508792788E-1	-1.569877416E-1	7.021689415E-1
1.634195065E1	1.574458778E-1	-1.751604527E-1	7.562289238E-1
1.635035367E1	1.704263836E-1	-1.620272398E-1	8.394568563E-1
1.635875669E1	1.904316396E-1	-1.014006436E-1	9.239065051E-1
1.636715971E1	1.953184158E-1	-5.696150661E-2	1.002400398E0
1.637556274E1	2.040229887E-1	1.282779220E-2	1.091736794E0
1.638396576E1	2.312056869E-1	1.128540337E-1	1.175422788E0
1.639236878E1	2.591519356E-1	1.441599578E-1	1.246281147E0
1.640077180E1	2.852656841E-1	1.737860441E-1	1.330272675E0
1.640917482E1	3.251234591E-1	2.270824611E-1	1.412431598E0
1.641757784E1	3.503209054E-1	1.867665499E-1	1.495354056E0
1.642598086E1	3.826957941E-1	2.115058601E-1	1.580109119E0
1.643438388E1	4.159869850E-1	2.226538211E-1	1.656312346E0
1.644278690E1	4.495835900E-1	2.345653474E-1	1.749161124E0
1.645118992E1	5.022691488E-1	3.135173619E-1	1.826738715E0
1.645959294E1	5.291464329E-1	3.987305462E-1	1.904163599E0
1.646799596E1	5.398362875E-1	5.654918551E-1	1.962499499E0
1.647639898E1	5.708367825E-1	5.454866290E-1	1.997165084E0
1.648480201E1	5.902311802E-1	3.946073353E-1	2.008465767E0
1.649320503E1	6.090146899E-1	1.928750277E-1	2.032747030E0
1.650160805E1	6.387935281E-1	-3.497100621E-2	2.109408379E0
1.651001107E1	6.723901033E-1	-2.866400778E-1	2.208823681E0
1.651841409E1	7.033905983E-1	-4.804313779E-1	2.279376507E0
1.652681711E1	7.232431769E-1	-6.169557571E-1	2.312209606E0
1.653522013E1	7.386670709E-1	-7.111788988E-1	2.328549862E0
1.654362315E1	7.444701195E-1	-7.643226385E-1	2.340766668E0
1.655202617E1	7.261446714E-1	-7.777612805E-1	2.369476557E0
1.656042919E1	7.010999322E-1	-7.241594195E-1	2.431935549E0
1.656883221E1	6.568135023E-1	-7.307260633E-1	2.525853395E0
1.657723524E1	6.319214702E-1	-7.640172243E-1	2.598086119E0
1.658563826E1	6.207735538E-1	-8.382351398E-1	2.606027126E0
1.659404128E1	5.357130170E-1	-1.051268101E0	2.628628492E0
1.660244430E1	4.480564594E-1	-8.698465228E-1	2.699486732E0
1.661084732E1	3.457395434E-1	-5.079194903E-1	2.935426474E0
1.661925034E1	2.757975459E-1	-2.770192325E-1	3.273072243E0
1.662765336E1	2.258607745E-1	4.138490185E-2	3.387300730E0
1.663605638E1	1.753131598E-1	4.575245976E-1	3.215347290E0
1.664445940E1	8.826743066E-2	9.107732773E-1	2.929470778E0
1.665286242E1	-3.985778242E-2	1.227039456E0	2.691851139E0
1.666126544E1	-1.519482583E-1	1.420983434E0	2.481719732E0
1.666966846E1	-1.711899489E-1	1.424343109E0	2.246696234E0
1.667807148E1	-9.804098308E-2	1.204132676E0	1.981741190E0
1.668647450E1	5.650337040E-2	6.748335361E-1	1.744885206E0
1.669487753E1	1.956238300E-1	6.200099736E-2	1.479013920E0
1.670328055E1	3.177932799E-1	-1.638597846E-1	1.178171635E0
1.671168357E1	1.988307834E-1	-4.288147688E-1	1.112352848E0
1.672008659E1	1.476723254E-1	-6.526902914E-1	1.018740535E0
1.672848961E1	1.780619770E-1	-3.578037918E-1	6.723901033E-1
1.673689263E1	2.394521236E-1	-4.275930673E-2	2.399102598E-1
1.674529565E1	2.864873707E-1	-1.056765765E-1	-8.948912472E-2
1.675369867E1	2.883199155E-1	-2.203631550E-1	-3.523061574E-1
1.676210169E1	2.609844804E-1	-2.470877171E-1	-6.166502833E-1
1.677050471E1	2.542651594E-1	-2.866400778E-1	-8.718317747E-1
1.677890774E1	2.525853515E-1	-3.272614181E-1	-1.107771516E0
1.678731076E1	1.969982386E-1	-1.934858710E-1	-1.352415800E0
1.679571378E1	1.204896197E-1	7.406523079E-2	-1.585912228E0
1.680411680E1	7.956285775E-2	2.987042964E-1	-1.775580287E0
1.681251982E1	5.039490014E-2	4.450022280E-1	-1.984337330E0
1.682092284E1	-1.832541777E-3	6.200099587E-1	-2.237533569E0
1.682932586E1	-6.704048812E-2	8.304468393E-1	-2.509818792E0
1.683772888E1	-1.122431830E-1	9.721634388E-1	-2.736748457E0
1.684613190E1	-1.265980899E-1	1.041647315E0	-2.925652981E0
1.685453492E1	-1.209477559E-1	1.072495103E0	-3.112725019E0
1.686293794E1	-8.948912472E-2	1.046228647E0	-3.323772669E0
1.687134096E1	-5.909947306E-2	9.994988441E-1	-3.543830395E0
1.687974398E1	-3.268032894E-2	8.886300325E-1	-3.743119240E0
1.688814700E1	-1.298050396E-2	7.463026643E-1	-3.919501543E0
1.689655003E1	1.007897966E-2	5.876350403E-1	-4.079237938E0
1.690495305E1	3.955236077E-2	4.092676640E-1	-4.229506493E0
1.691335607E1	6.306997687E-2	2.014268786E-1	-4.363282204E0
1.692175909E1	7.391251624E-2	5.192201585E-3	-4.487436771E0
1.693016211E1	7.559234649E-2	-1.568350345E-1	-4.600595951E0
1.693856513E1	7.635590434E-2	-3.232909143E-1	-4.700469494E0
1.694696815E1	8.185353130E-2	-5.213581324E-1	-4.788126469E0
1.695537117E1	9.529217333E-2	-7.666133046E-1	-4.878837109E0
1.696377419E1	1.096470803E-1	-1.074633002E0	-4.972754955E0
