"Time (s)"	"Acceleration x (m/s^2)"	"Acceleration y (m/s^2)"	"Acceleration z (m/s^2)"
4.497346500E-2	-7.088736892E-1	9.798608780E0	4.444667995E-1
5.337648600E-2	-7.489534616E-1	9.813564301E0	4.085744619E-1
6.177950700E-2	-8.183453679E-1	9.759127617E0	3.649054468E-1
7.018252700E-2	-8.494520187E-1	9.708877563E0	3.774677813E-1
7.858554800E-2	-8.315058947E-1	9.715457916E0	4.283152521E-1
8.698856900E-2	-8.219345808E-1	9.736394882E0	4.492524564E-1
9.539159000E-2	-8.380861282E-1	9.740582466E0	4.360919297E-1
1.037946110E-1	-8.662018180E-1	9.713663101E0	4.498506486E-1
1.121976320E-1	-8.566305041E-1	9.672985077E0	4.695914388E-1
1.206006520E-1	-8.291130662E-1	9.671789169E0	4.594219327E-1
1.290036730E-1	-8.626125455E-1	9.720243454E0	4.307080805E-1
1.374066940E-1	-8.985049129E-1	9.742377281E0	4.301098585E-1
1.458097150E-1	-8.823533654E-1	9.730413437E0	4.366901219E-1
1.542127360E-1	-8.733802438E-1	9.701101303E0	4.666004181E-1
1.626157570E-1	-8.673982024E-1	9.711270332E0	4.546363056E-1
1.710187770E-1	-8.733802438E-1	9.741181374E0	4.444667995E-1
1.794217980E-1	-8.183453679E-1	9.759127617E0	4.187439680E-1
1.878248190E-1	-7.854440212E-1	9.756135941E0	4.480560422E-1
1.962278400E-1	-7.794619799E-1	9.743574142E0	4.510470629E-1
2.046308610E-1	-7.980063558E-1	9.741779327E0	4.492524564E-1
2.130338820E-1	-8.195417523E-1	9.733404160E0	4.833501875E-1
2.214369020E-1	-8.494520187E-1	9.735796928E0	4.911268353E-1
2.298399230E-1	-8.656035662E-1	9.730413437E0	4.462614357E-1
2.382429440E-1	-8.464609981E-1	9.724431038E0	4.253242314E-1
2.466459650E-1	-8.099704385E-1	9.729216576E0	4.797609448E-1
2.550489860E-1	-8.075776696E-1	9.734601021E0	4.677968323E-1
2.634520070E-1	-8.117650747E-1	9.753743172E0	4.061816335E-1
2.718550270E-1	-8.105686903E-1	9.762716293E0	4.025924206E-1
2.802580480E-1	-8.321040869E-1	9.774082184E0	4.366901219E-1
2.886610690E-1	-8.273184299E-1	9.739984512E0	4.444667995E-1
2.970640900E-1	-8.213363886E-1	9.717850685E0	4.540380836E-1
3.054671110E-1	-8.338986635E-1	9.705288887E0	4.869394004E-1
3.138701320E-1	-8.662018180E-1	9.725028992E0	4.851447940E-1
3.222731520E-1	-8.871390224E-1	9.729815483E0	4.719842672E-1
3.306761730E-1	-8.913264275E-1	9.733404160E0	4.624129832E-1
3.390791940E-1	-8.715856671E-1	9.756733894E0	4.043870270E-1
3.474822150E-1	-8.482556343E-1	9.767501831E0	3.517449200E-1
3.558852360E-1	-8.428717852E-1	9.761520386E0	3.852444589E-1
3.642882570E-1	-8.673982024E-1	9.744172096E0	4.432703853E-1
3.726912770E-1	-8.530412912E-1	9.744770050E0	4.211367965E-1
3.810942980E-1	-8.207381964E-1	9.739984512E0	4.175475538E-1
3.894973190E-1	-8.207381964E-1	9.725028992E0	4.396811724E-1
3.979003400E-1	-8.494520187E-1	9.728618622E0	4.552344978E-1
4.063033610E-1	-8.632107973E-1	9.728618622E0	4.301098585E-1
4.147063820E-1	-8.638089895E-1	9.730413437E0	4.157529473E-1
4.231094020E-1	-8.344969153E-1	9.752547264E0	4.450650215E-1
4.315124230E-1	-8.141579032E-1	9.738788605E0	4.899304509E-1
4.399154440E-1	-8.392825127E-1	9.684351921E0	5.078766346E-1
4.483184650E-1	-8.733802438E-1	9.692128181E0	4.959124923E-1
4.567214860E-1	-8.530412912E-1	9.771091461E0	4.588237405E-1
4.651245070E-1	-8.141579032E-1	9.811170578E0	3.678964674E-1
4.735275270E-1	-8.297112584E-1	9.795618057E0	3.415754437E-1
4.819305480E-1	-8.955138922E-1	9.732806206E0	3.690928817E-1
4.903335690E-1	-9.134600163E-1	9.712467194E0	3.786641955E-1
4.987365900E-1	-9.116654396E-1	9.726225853E0	3.678964674E-1
5.071396110E-1	-9.212366939E-1	9.734002113E0	3.900300860E-1
5.155426320E-1	-9.379864931E-1	9.736993790E0	4.097708762E-1
5.239456520E-1	-9.122636318E-1	9.716654778E0	4.881358147E-1
5.323486730E-1	-8.249256015E-1	9.735796928E0	4.971089065E-1
5.407516940E-1	-7.585247755E-1	9.735796928E0	4.642075896E-1
5.491547150E-1	-6.957131624E-1	9.753743172E0	4.199403822E-1
5.575577360E-1	-7.232306600E-1	9.722038269E0	4.450650215E-1
5.659607570E-1	-6.269195080E-1	9.654440880E0	4.648058116E-1
5.743637770E-1	-6.143572330E-1	9.734002113E0	5.318048596E-1
5.827667980E-1	-6.909275651E-1	9.833304405E0	5.539384484E-1
5.911698190E-1	-7.591229677E-1	9.842277527E0	5.084748268E-1
5.995728400E-1	-8.757730722E-1	9.815957069E0	5.575276613E-1
6.079758610E-1	-1.106082320E0	9.751350403E0	5.802595019E-1
6.163788820E-1	-1.073779106E0	9.692128181E0	3.248256743E-1
6.247819020E-1	-8.297112584E-1	9.790832520E0	3.924229145E-1
6.331849230E-1	-6.023930907E-1	9.912865639E0	4.528416991E-1
6.415879440E-1	-5.988038778E-1	9.862616539E0	4.229314029E-1
6.499909650E-1	-6.999006271E-1	9.767501831E0	6.424728632E-1
6.583939860E-1	-7.172485590E-1	9.690333366E0	6.329016089E-1
6.667970070E-1	-6.927221417E-1	9.491728783E0	3.918247223E-1
6.752000270E-1	-7.106683254E-1	9.325428009E0	5.754738450E-1
6.836030480E-1	-7.016952634E-1	9.343972206E0	1.021735311E0
6.920060690E-1	-7.692924738E-1	9.451051712E0	1.100698471E0
7.004090900E-1	-1.028315544E0	9.492327690E0	5.383850932E-1
7.088121110E-1	-1.335195065E0	9.667003632E0	1.998006850E-1
7.172151320E-1	-1.485344648E0	9.903892517E0	1.190429255E-1
7.256181520E-1	-1.447059512E0	9.943972588E0	9.032905847E-2
7.340211730E-1	-1.243669510E0	9.746564865E0	3.032902777E-1
7.424241940E-1	-9.702895880E-1	9.543174744E0	6.693921089E-1
7.508272150E-1	-8.237292171E-1	9.468399048E0	8.901300430E-1
7.592302360E-1	-9.337990284E-1	9.580264091E0	8.961120844E-1
7.676332570E-1	-1.219741344E0	9.768698692E0	7.603194118E-1
7.760362770E-1	-1.458425403E0	9.875777245E0	4.869394004E-1
7.844392980E-1	-1.621137381E0	9.839884758E0	2.931207716E-1
7.928423190E-1	-1.642074585E0	9.753145218E0	2.895315289E-1
8.012453400E-1	-1.512862086E0	9.670592308E0	2.697907388E-1
8.096483610E-1	-1.290329576E0	9.668798447E0	4.109672904E-1
8.180513820E-1	-1.158724308E0	9.732208252E0	6.520441771E-1
8.264544020E-1	-1.136590719E0	9.651450157E0	7.818548083E-1
8.348574230E-1	-1.064207911E0	9.539586067E0	8.530412912E-1
8.432604440E-1	-1.000798106E0	9.459425926E0	8.464609981E-1
8.516634650E-1	-9.750752449E-1	9.571888924E0	7.525427341E-1
8.600664860E-1	-9.541380405E-1	9.746564865E0	6.963114142E-1
8.684695070E-1	-9.050851464E-1	9.801599503E0	5.497509837E-1
8.768725270E-1	-9.218349457E-1	9.751350403E0	5.389832854E-1
8.852755480E-1	-1.113858938E0	9.619745255E0	5.401797295E-1
8.936785690E-1	-1.253839016E0	9.659825325E0	5.270192027E-1
9.020815900E-1	-1.286740422E0	9.808777809E0	4.594219327E-1
9.104846110E-1	-1.210170031E0	9.817750931E0	3.667000830E-1
9.188876320E-1	-1.082154036E0	9.659226418E0	2.667997181E-1
9.272906520E-1	-1.021137118E0	9.539586067E0	3.828516304E-1
9.356936730E-1	-1.032503009E0	9.568299294E0	5.216353536E-1
9.440966940E-1	-9.613165259E-1	9.658628464E0	3.020938635E-1
9.524997150E-1	-9.696913958E-1	9.789037704E0	1.896311939E-1
9.609027360E-1	-1.012163997E0	9.882955551E0	3.487538993E-1
9.693057570E-1	-9.487541914E-1	9.808777809E0	6.418746710E-1
9.777087770E-1	-8.009973764E-1	9.622138023E0	1.022931695E0
9.861117980E-1	-9.146564603E-1	9.457631111E0	1.369292736E0
9.945148190E-1	-1.172483087E0	9.346364975E0	1.134197950E0
1.002917840E0	-1.252044439E0	9.473184586E0	7.381857634E-1
1.011320861E0	-9.643075466E-1	9.683155060E0	6.005984545E-1
1.019723882E0	-6.005984545E-1	9.851250648E0	6.897311211E-1
1.028126902E0	-4.193421602E-1	9.987641335E0	9.439685345E-1
1.036529923E0	-4.725824594E-1	9.948160172E0	1.355534077E0
1.044932944E0	-8.829515576E-1	9.729815483E0	1.576870084E0
1.053335965E0	-1.534995675E0	9.574281693E0	1.043270707E0
1.061738986E0	-1.951945066E0	9.716654778E0	8.081758618E-1
1.070142007E0	-1.456032634E0	9.811769485E0	1.268794179E0
1.078545027E0	-3.744767308E-1	9.686744690E0	2.073979139E0
1.086948048E0	3.409772217E-1	9.405587196E0	2.632703066E0
1.095351069E0	4.049852192E-1	9.354142189E0	2.788834810E0
1.103754090E0	2.745763958E-1	9.458230019E0	2.267797709E0
1.112157111E0	-3.014956415E-1	9.853045464E0	1.751546144E0
1.120560132E0	-1.091127157E0	1.004686451E1	9.146564603E-1
1.128963152E0	-1.277767301E0	9.833903313E0	7.603194118E-1
1.137366173E0	-7.998009920E-1	9.436694145E0	1.162911773E0
1.145769194E0	-1.369891018E-1	9.318847656E0	1.371087432E0
1.154172215E0	6.311069727E-1	9.759725571E0	1.231107235E0
1.162575236E0	8.554341197E-1	1.011147022E1	1.325623751E0
1.170978257E0	2.338984162E-1	1.010488987E1	1.348355532E0
1.179381277E0	-5.180460811E-1	9.786046028E0	9.702895880E-1
1.187784298E0	-5.503492355E-1	9.400203705E0	6.993024349E-1
1.196187319E0	-1.166501045E-1	9.282357216E0	1.107278705E0
1.204590340E0	3.481557071E-1	9.613762856E0	1.167697430E0
1.212993361E0	4.570291340E-1	1.023470020E1	1.047458172E0
1.221396382E0	5.820540786E-1	1.068215847E1	8.123632669E-1
1.229799402E0	9.248259664E-1	1.080778122E1	2.255235314E-1
1.238202423E0	1.472782373E0	1.081974602E1	9.571290575E-3
1.246605444E0	1.892124534E0	1.071087265E1	3.385843933E-1
1.255008465E0	2.277967215E0	1.039501953E1	8.817551732E-1
1.263411486E0	2.347358942E0	9.977472305E0	1.441675663E0
1.271814507E0	1.835294962E0	9.627521515E0	1.664208174E0
1.280217527E0	1.108475089E0	9.579665184E0	1.685743570E0
1.288620548E0	6.628118753E-1	9.820143700E0	1.730010748E0
1.297023569E0	5.898307562E-1	1.009292603E1	1.344168067E0
1.305426590E0	7.621139884E-1	1.026161957E1	1.126421213E0
1.313829611E0	1.062413216E0	1.022632599E1	1.225723386E0
1.322232632E0	1.389631748E0	1.006181908E1	1.426720500E0
1.330635652E0	1.649253011E0	9.929018021E0	1.515254974E0
1.339038673E0	1.832303882E0	9.987641335E0	1.576271892E0
1.347441694E0	1.730608940E0	1.000379372E1	1.657627940E0
1.355844715E0	1.348355532E0	9.836894035E0	1.450648785E0
1.364247736E0	9.696913958E-1	9.510273933E0	1.316052437E0
1.372650757E0	8.775677085E-1	9.323633194E0	1.289731383E0
1.381053777E0	1.054038405E0	9.221340179E0	1.518245935E0
1.389456798E0	1.409372568E0	9.135198593E0	1.621137381E0
1.397859819E0	1.748555183E0	9.144769669E0	1.521835208E0
1.406262840E0	1.800599098E0	9.230911255E0	1.650449395E0
1.414665861E0	1.617548108E0	9.315258980E0	1.699502230E0
1.423068882E0	1.530808330E0	9.303893089E0	1.687538147E0
1.431471902E0	1.498505235E0	9.218947411E0	1.729412556E0
1.439874923E0	1.465603828E0	9.110671997E0	1.596610904E0
1.448277944E0	1.413560033E0	9.083752632E0	1.561316729E0
1.456680965E0	1.403988719E0	9.108279228E0	1.409970760E0
1.465083986E0	1.728814363E0	9.210572243E0	1.175474167E0
1.473487007E0	2.062613010E0	9.327222824E0	1.098305583E0
1.481890027E0	2.041077614E0	9.318249702E0	1.369292736E0
1.490293048E0	1.925624013E0	9.226125717E0	1.506880045E0
1.498696069E0	1.835294962E0	9.244669914E0	1.378864050E0
1.507099090E0	1.748555183E0	9.407979965E0	1.399203062E0
1.515502111E0	1.766501307E0	9.424132347E0	1.267597795E0
1.523905132E0	1.951945066E0	9.448657990E0	1.097707391E0
1.532308152E0	2.109871387E0	9.527023315E0	1.010369420E0
1.540711173E0	2.145165443E0	9.592825890E0	9.888339639E-1
1.549114194E0	2.316252232E0	9.795019150E0	5.790630579E-1
1.557517215E0	2.489133835E0	1.005643559E1	5.467599630E-1
1.565920236E0	2.571087837E0	1.020120144E1	6.484549642E-1
1.574323257E0	2.467000246E0	1.027059269E1	5.964110494E-1
1.582726277E0	2.162513494E0	1.028255749E1	5.958128572E-1
1.591129298E0	1.709073544E0	1.023051357E1	5.503492355E-1
1.599532319E0	1.575075507E0	1.071864891E1	5.575276613E-1
1.607935340E0	1.460219979E0	1.077727318E1	3.768695518E-2
1.616338361E0	1.172483087E0	1.073480034E1	2.440679073E-1
1.624741382E0	9.948160052E-1	1.072163963E1	2.165504545E-1
1.633144402E0	1.051645517E0	1.081735325E1	-3.708875179E-2
1.641547423E0	9.942178130E-1	1.092443180E1	-7.956135273E-2
1.649950444E0	9.409775138E-1	1.082812023E1	-2.255235314E-1
1.658353465E0	6.981059909E-1	1.078504944E1	-5.982056726E-3
1.666756486E0	3.553341627E-1	1.069531918E1	1.561316848E-1
1.675159507E0	2.045863420E-1	1.066660500E1	1.034895778E-1
1.683562527E0	6.640082598E-2	1.135753250E1	1.360319614E0
1.691965548E0	-1.208375469E-1	1.304925823E1	2.334198475E0
1.700368569E0	-5.886343718E-1	1.505743504E1	2.129014015E0
1.708771590E0	-1.169492126E0	1.625085449E1	1.289133191E0
1.717174611E0	-1.838286042E0	1.586501217E1	6.017948985E-1
1.725577632E0	-2.379662037E0	1.420080376E1	5.036891699E-1
1.733980652E0	-2.580060959E0	1.249232864E1	8.608179688E-1
1.742383673E0	-2.021935225E0	1.165902805E1	1.436890006E0
1.750786694E0	-1.031306505E0	1.163569832E1	2.010569334E0
1.759189715E0	1.136590764E-1	1.188993549E1	2.362912416E0
1.767592736E0	1.483550072E0	1.219681549E1	2.569891453E0
1.775995757E0	3.619144201E0	1.236610699E1	1.770688772E0
1.784398777E0	6.064609051E0	1.360499096E1	1.915454507E0
1.792801798E0	6.891329288E0	1.486660671E1	3.860221148E0
1.801204819E0	5.846862316E0	1.400878048E1	4.095914364E0
1.809607840E0	4.055834293E0	1.208375454E1	3.495315790E0
1.818010861E0	2.805584431E0	1.040638542E1	3.362514019E0
1.826413882E0	2.440080881E0	9.333803177E0	3.070589542E0
1.834816902E0	2.609971285E0	8.992825508E0	1.986042738E0
1.843219923E0	2.635694027E0	9.585647583E0	9.206385016E-1
1.851622944E0	2.038086653E0	1.006062317E1	1.794617027E-1
1.860025965E0	1.092921734E0	1.025145054E1	-1.920240223E-1
1.868428986E0	2.177468538E-1	1.043629551E1	1.812563092E-1
1.876832007E0	-7.310073376E-1	9.661619186E0	8.775677085E-1
1.885235027E0	-1.389631748E0	8.438288689E0	1.078564763E0
1.893638048E0	-1.432702541E0	7.557730198E0	1.733001828E0
1.902041069E0	-7.483552694E-1	6.519245148E0	5.150550604E-1
1.910444090E0	4.133601189E-1	6.453442574E0	-9.343972206E-1
1.918847111E0	1.202991605E0	6.883552551E0	-1.208973646E0
1.927250132E0	1.602592945E0	7.178467751E0	-7.549355626E-1
1.935653152E0	1.888535261E0	7.227520943E0	-2.679961324E-1
1.944056173E0	2.066202402E0	7.351349354E0	-1.447657645E-1
1.952459194E0	1.828714728E0	7.225726128E0	-4.785645287E-3
1.960862215E0	1.329811215E0	6.634100914E0	-1.232303679E-1
1.969265236E0	9.637092948E-1	6.028716564E0	-4.510470629E-1
1.977668257E0	6.945167780E-1	5.629713535E0	-5.132604837E-1
1.986071277E0	6.604190469E-1	5.387440205E0	-4.091726840E-1
1.994474298E0	9.008977413E-1	5.426323414E0	-4.887340367E-1
2.002877319E0	1.241874933E0	5.840879917E0	-4.265206456E-1
2.011280340E0	1.610369682E0	6.294320107E0	-5.114658475E-1
2.019683361E0	2.006979942E0	6.745965004E0	-7.992027402E-1
2.028086382E0	2.280359983E0	7.058228493E0	-7.447660565E-1
2.036489402E0	2.476571321E0	7.221538544E0	-8.213363886E-1
2.044892423E0	2.589632273E0	7.318448067E0	-1.126421213E0
2.053295444E0	2.650649309E0	7.554739475E0	-1.344766378E0
2.061698465E0	2.530410051E0	7.789236069E0	-1.269990563E0
2.070101486E0	2.336591244E0	7.920841217E0	-1.065404296E0
2.078504507E0	2.331805706E0	7.944170952E0	-8.374879360E-1
2.086907527E0	2.803789854E0	8.140382767E0	-5.300102234E-1
2.095310548E0	3.432504177E0	8.427521706E0	-6.933203340E-1
2.103713569E0	3.847060680E0	8.884550095E0	-8.650053740E-1
2.112116590E0	3.869194269E0	9.357730865E0	-1.159322619E0
2.120519611E0	3.766302824E0	9.942776680E0	-1.307079315E0
2.128922632E0	3.812962770E0	1.052662468E1	-1.143769264E0
2.137325652E0	4.107878208E0	1.099442196E1	-6.969096065E-1
2.145728673E0	4.470989227E0	1.132283688E1	-2.542374134E-1
2.154131694E0	4.590630054E0	1.184865952E1	-1.016949583E-2
2.162534715E0	4.207180500E0	1.278006554E1	-4.366901144E-2
2.170937736E0	3.567100286E0	1.392263889E1	-2.434697002E-1
2.179340757E0	3.667000771E0	1.477448368E1	-2.937189937E-1
2.187743777E0	4.404588223E0	1.535115337E1	-6.628118753E-1
2.196146798E0	5.100301266E0	1.554437447E1	-8.291130662E-1
2.204549819E0	5.803193092E0	1.573221111E1	-2.279163599E-1
2.212952840E0	6.383452415E0	1.569811249E1	7.178468257E-2
2.221355861E0	6.678966045E0	1.526860142E1	-1.070788130E-1
2.229758882E0	6.801000118E0	1.446700573E1	-5.766702294E-1
2.238161902E0	7.044469833E0	1.335793209E1	-5.982056609E-4
2.246564923E0	7.688138962E0	1.204367447E1	1.135394335E0
2.254967944E0	8.565108299E0	1.086760235E1	1.834098577E0
2.263370965E0	9.069993973E0	1.001815033E1	1.989033818E0
2.271773986E0	8.571090698E0	9.319445610E0	1.898106575E0
2.280177007E0	7.595417500E0	8.563314438E0	1.154536963E0
2.288580027E0	7.040282249E0	8.006982803E0	1.950150430E-1
2.296983048E0	7.339983463E0	7.954938889E0	3.152543902E-1
2.305386069E0	7.981858253E0	8.190033913E0	1.500299811E0
2.313789090E0	8.565108299E0	8.629714966E0	2.288734913E0
2.322192111E0	8.414361000E0	9.849455833E0	2.081755638E0
2.330595132E0	6.459424496E0	1.364925861E1	9.302098155E-1
2.338998152E0	6.957131624E-1	2.118784714E1	-5.623133183E-1
2.347401173E0	-7.523034573E0	2.638864708E1	-2.283350945E0
2.355804194E0	-1.457169151E1	1.837089539E1	-7.420143127E0
2.364207215E0	-2.305065918E1	1.143171024E1	-1.498505235E0
2.372610236E0	-1.225783253E1	9.975677490E0	4.307679176E0
2.381013257E0	7.103094101E0	1.117448139E1	4.113262177E0
2.389416277E0	1.950569153E1	1.381914902E1	-1.009771109E0
2.397819298E0	1.676770401E1	1.305524063E1	-3.970889091E0
2.406222319E0	4.330410957E0	9.391230583E0	-1.956730723E0
2.414625340E0	-6.884748936E0	6.355337143E0	1.931007862E0
2.423028361E0	-1.227996540E1	6.385845661E0	3.949353695E0
2.431431382E0	-1.068455124E1	7.249654293E0	2.754737139E0
2.439834402E0	-6.139384747E0	8.026124954E0	6.999006271E-1
2.448237423E0	-2.541775942E0	8.539983749E0	0.000000000E0
2.456640444E0	-4.145565331E-1	8.563912392E0	2.554338276E-1
2.465043465E0	1.280160069E0	9.166305542E0	2.255235434E0
2.473446486E0	3.050250769E0	1.062054348E1	3.167499065E0
2.481849507E0	3.327219963E0	1.197547913E1	1.607378602E0
2.490252527E0	1.003789067E0	1.190010548E1	-2.051845491E-1
2.498655548E0	-2.758326292E0	1.060798073E1	-1.136590764E-1
2.507058569E0	-5.446064472E0	8.956933022E0	6.119644046E-1
2.515461590E0	-5.391029358E0	8.050651550E0	2.751746029E-2
2.523864611E0	-3.605385542E0	8.363512993E0	-4.857429862E-1
2.532267632E0	-1.890329838E0	9.355338097E0	5.832505226E-1
2.540670652E0	-7.860422134E-1	1.015334511E1	1.018744230E0
2.549073673E0	-5.144568682E-1	1.065643597E1	8.027920127E-1
2.557476694E0	-1.342373490E0	1.060020447E1	6.227321029E-1
2.565879715E0	-2.307877541E0	1.002473068E1	9.349954724E-1
2.574282736E0	-2.781058073E0	9.378668785E0	1.121037364E0
2.582685757E0	-2.638087034E0	9.229715347E0	7.836494446E-1
2.591088777E0	-1.901695848E0	9.507881165E0	-1.896311939E-1
2.599491798E0	-8.554341197E-1	1.013360405E1	-1.280160099E-1
2.607894819E0	7.058826834E-2	1.080419254E1	-3.008974493E-1
2.616297840E0	4.636093974E-1	1.126241779E1	1.489532143E-1
2.624700861E0	2.416750938E-1	1.115115166E1	9.972088337E-1
2.633103882E0	2.871387079E-2	1.061815071E1	9.601200819E-1
2.641506902E0	-1.022931710E-1	1.019462109E1	1.095314622E0
2.649909923E0	-2.237289101E-1	9.992427826E0	1.536790371E0
2.658312944E0	-3.463610709E-1	9.937392235E0	1.114457130E0
2.666715965E0	-1.956132501E-1	9.879964828E0	1.016949654E0
2.675118986E0	2.967100143E-1	9.915857315E0	8.111668825E-1
2.683522007E0	6.909275651E-1	1.004806042E1	9.726824164E-1
2.691925027E0	9.236295223E-1	1.015035343E1	9.840483069E-1
2.700328048E0	9.272187948E-1	1.023529911E1	1.116850019E0
2.708731069E0	7.441678643E-1	1.016829967E1	1.286142230E0
2.717134090E0	5.132604837E-1	1.002951622E1	1.111466169E0
2.725537111E0	3.146561682E-1	9.971489906E0	1.026520967E0
2.733940132E0	1.782652885E-1	9.935597420E0	9.667003751E-1
2.742343152E0	1.381855011E-1	9.867402077E0	9.595218897E-1
2.750746173E0	2.015953064E-1	9.738189697E0	8.464609981E-1
2.759149194E0	1.998006850E-1	9.233902931E0	5.718846321E-1
2.767552215E0	2.350948304E-1	9.183054924E0	9.840483069E-1
2.775955236E0	9.194421172E-1	1.006361389E1	8.434699774E-1
2.784358257E0	9.463613629E-1	1.029392338E1	1.776670814E-1
2.792761277E0	5.682953596E-1	1.001515961E1	7.483552694E-1
2.801164298E0	6.604190469E-1	9.515059471E0	9.266205430E-1
2.809567319E0	1.060618639E0	9.266205788E0	8.919246197E-1
2.817970340E0	1.251446247E0	9.183652878E0	9.852447510E-1
2.826373361E0	1.089332461E0	9.110074043E0	1.086939692E0
2.834776382E0	9.134600163E-1	9.102297783E0	7.980063558E-1
2.843179402E0	8.626125455E-1	9.201001167E0	8.644071817E-1
2.851582423E0	9.846464992E-1	9.352945328E0	7.668996453E-1
2.859985444E0	9.421738982E-1	9.577870369E0	9.074779749E-1
2.868388465E0	6.526423693E-1	9.723833084E0	9.589236975E-1
2.876791486E0	4.683950245E-1	9.754341125E0	7.986045480E-1
2.885194507E0	5.264210105E-1	9.728618622E0	6.975077987E-1
2.893597527E0	7.369893789E-1	9.789037704E0	6.945167780E-1
2.902000548E0	8.997012973E-1	9.899106979E0	4.121637046E-1
2.910403569E0	9.523434043E-1	1.011924744E1	1.034895778E-1
2.918806590E0	8.470591903E-1	1.040279675E1	-3.774677813E-1
2.927209611E0	7.118647099E-1	1.050449181E1	-8.937192559E-1
2.935612632E0	4.743770957E-1	1.049970531E1	-7.471588850E-1
2.944015652E0	2.392822644E-3	1.064327526E1	-2.895315289E-1
2.952418673E0	-7.004988194E-1	1.102493000E1	1.818545163E-1
2.960821694E0	-1.205384374E0	1.139462185E1	4.055834413E-1
2.969224715E0	-1.361516118E0	1.158784199E1	6.466603279E-1
2.977627736E0	-1.413560033E0	1.190668583E1	1.168295622E0
2.986030757E0	-1.759921074E0	1.300020504E1	2.356930256E0
2.994433777E0	-2.542972326E0	1.502453327E1	2.818745136E0
3.002836798E0	-3.617349625E0	1.721755600E1	2.314457655E0
3.011239819E0	-4.801796913E0	1.853420639E1	1.484746456E0
3.019642840E0	-6.188437462E0	1.797966957E1	1.209571838E0
3.028045861E0	-7.295117855E0	1.602712631E1	9.565308690E-1
3.036448882E0	-7.091728210E0	1.372523022E1	7.692924738E-1
3.044851902E0	-4.966901779E0	1.206221867E1	1.204187989E0
3.053254923E0	-8.183453679E-1	1.131984615E1	1.963909149E0
3.061657944E0	4.455435753E0	1.126181984E1	2.179861546E0
3.070060965E0	9.774680138E0	1.389392471E1	3.790230989E0
3.078463986E0	1.098006535E1	1.727976799E1	6.618547440E0
3.086867007E0	6.943971157E0	1.742812347E1	4.336392879E0
3.095270027E0	1.613958836E0	1.518545055E1	1.256830096E0
3.103673048E0	-2.212164640E0	1.224885941E1	8.237292171E-1
3.112076069E0	-3.485744476E0	9.044271469E0	1.250249892E-1
3.120479090E0	-1.982453585E0	7.568498135E0	2.548356056E-1
3.128882111E0	7.573283911E-1	7.808378696E0	9.708877802E-1
3.137285132E0	2.685345173E0	8.578866959E0	7.507480979E-1
3.145688152E0	3.121437073E0	8.678169250E0	3.828516304E-1
3.154091173E0	2.852244616E0	8.137989998E0	5.330012441E-1
3.162494194E0	2.357528448E0	7.343572617E0	8.051848412E-1
3.170897215E0	1.826920033E0	6.251847267E0	7.369893789E-1
3.179300236E0	1.311266780E0	5.000999451E0	3.972085714E-1
3.187703257E0	1.190429211E0	4.293920040E0	5.988038778E-1
3.196106277E0	1.570888042E0	3.992424488E0	6.951149702E-1
3.204509298E0	2.167299032E0	4.030709743E0	4.689932466E-1
3.212912319E0	2.649452925E0	4.342374802E0	1.782652885E-1
3.221315340E0	2.850450039E0	4.782055855E0	-1.106680483E-1
3.229718361E0	2.702693224E0	5.222933769E0	-1.423729509E-1
3.238121382E0	2.148754835E0	5.322834015E0	-1.483550072E-1
3.246524402E0	1.450648785E0	5.236692429E0	-3.026920557E-1
3.254927423E0	7.100701332E-1	4.989035130E0	-4.851447940E-1
3.263330444E0	2.261217386E-1	4.742574692E0	-3.984049559E-1
3.271733465E0	2.422732860E-1	4.807180882E0	-2.787638307E-1
3.280136486E0	6.137589812E-1	5.036293507E0	-3.960121572E-1
3.288539507E0	1.147956610E0	5.324030399E0	-6.891329288E-1
3.296942527E0	1.749153376E0	5.733202934E0	-8.243274093E-1
3.305345548E0	2.335993052E0	6.139982700E0	-7.800601721E-1
3.313748569E0	2.836691141E0	6.423532486E0	-7.854440212E-1
3.322151590E0	3.254837036E0	6.831508636E0	-9.212366939E-1
3.330554611E0	3.099303484E0	7.000202656E0	-1.005583763E0
3.338957632E0	2.852244616E0	7.100701332E0	-9.906286001E-1
3.347360652E0	2.830111027E0	7.183851719E0	-1.016949654E0
3.355763673E0	3.026322365E0	7.512865067E0	-1.160519004E0
3.364166694E0	3.215953588E0	7.950751305E0	-1.328614831E0
3.372569715E0	3.145963669E0	8.325227737E0	-1.632503271E0
3.380972736E0	2.730808735E0	8.775676727E0	-1.662413478E0
3.389375757E0	2.120040894E0	9.188439369E0	-1.669592023E0
3.397778777E0	1.567897081E0	9.602396965E0	-1.529013634E0
3.406181798E0	1.266401410E0	1.004387283E1	-1.438086390E0
3.414584819E0	1.237687469E0	1.071386337E1	-1.191027522E0
3.422987840E0	1.286142230E0	1.136291695E1	-8.997012973E-1
3.431390861E0	1.512862086E0	1.219202995E1	-7.304090858E-1
3.439793882E0	1.738385677E0	1.341715431E1	-4.983053207E-1
3.448196902E0	1.585843205E0	1.449751377E1	-6.831508875E-1
3.456599923E0	1.157527924E0	1.523031616E1	-9.104689956E-1
3.465002944E0	8.069794178E-1	1.563171196E1	-6.400800347E-1
3.473405965E0	9.056833982E-1	1.599123383E1	-5.527420044E-1
3.481808986E0	1.189232826E0	1.654995728E1	-1.435693622E0
3.490212007E0	1.632503271E0	1.697707748E1	-1.806581140E0
3.498615027E0	3.029313564E0	1.704048729E1	-1.283151150E0
3.507018048E0	5.372485161E0	1.674258041E1	-2.129612118E-1
3.515421069E0	7.619943619E0	1.613480377E1	-4.085744619E-1
3.523824090E0	9.046066284E0	1.512682629E1	-1.328016520E0
3.532227111E0	9.598209381E0	1.390828133E1	-1.760519266E0
3.540630132E0	9.417551994E0	1.257966709E1	-1.533799291E0
3.549033152E0	9.058030128E0	1.135633659E1	-1.312463164E0
3.557436173E0	8.423932076E0	1.050867844E1	-1.052842021E0
3.565839194E0	7.447660446E0	9.998409271E0	-7.142575383E-1
3.574242215E0	6.589235306E0	9.672387123E0	-4.815555513E-1
3.582645236E0	5.924628735E0	9.276374817E0	-9.990034252E-2
3.591048257E0	5.590830326E0	8.970691681E0	5.102694035E-1
3.599451277E0	5.498108387E0	9.121439934E0	1.023529887E0
3.607854298E0	5.441278458E0	9.997811317E0	9.930213690E-1
3.616257319E0	4.887938499E0	1.160040379E1	1.399801254E0
3.624660340E0	3.242274761E0	1.314856052E1	1.301695466E0
3.633063361E0	-2.733799815E-1	1.465723515E1	8.338986635E-1
3.641466382E0	-6.104090691E0	1.601576042E1	1.213161111E0
3.649869402E0	-1.465544033E1	1.534098434E1	1.759921074E0
3.658272423E0	-2.296750832E1	1.050030422E1	3.120240688E0
3.666675444E0	-1.828176308E1	6.790830612E0	2.639881611E0
3.675078465E0	-5.142774105E0	7.637889862E0	4.407579422E0
3.683481486E0	7.803592682E0	9.190832138E0	4.416552544E0
3.691884507E0	2.007219315E1	1.413739395E1	1.566700578E0
3.700287527E0	2.113281059E1	1.780439568E1	-1.057627559E0
3.708690548E0	1.077428246E1	1.566640759E1	-3.425923824E0
3.717093569E0	-6.777670383E-1	1.224227905E1	-2.866003275E0
3.725496590E0	-8.957531929E0	1.025623608E1	-6.340979934E-1
3.733899611E0	-1.186421299E1	8.316255569E0	-2.187638044E0
3.742302632E0	-1.079043388E1	6.832107067E0	-2.955734253E0
3.750705652E0	-7.679764271E0	6.181259155E0	-9.804590940E-1
3.759108673E0	-3.290729284E0	6.415755749E0	1.962114573E0
3.767511694E0	1.095314622E0	7.624729156E0	4.296313286E0
3.775914715E0	3.829712629E0	9.351150513E0	4.349553585E0
3.784317736E0	3.795614958E0	1.111406326E1	3.753142357E0
3.792720757E0	5.180460811E-1	1.166740322E1	3.538984776E0
3.801123777E0	-3.326621771E0	1.059182930E1	2.331805706E0
3.809526798E0	-5.493322372E0	9.131608963E0	1.189232826E0
3.817929819E0	-5.662016392E0	8.205587387E0	4.983053207E-1
3.826332840E0	-4.228117466E0	8.228319168E0	6.197410822E-1
3.834735861E0	-2.150549412E0	9.239884377E0	1.070189953E0
3.843138882E0	-7.310073376E-1	1.022154045E1	1.409372568E0
3.851541902E0	-3.607180119E-1	1.076949692E1	1.452443361E0
3.859944923E0	-9.206385016E-1	1.068395329E1	1.028315544E0
3.868347944E0	-2.047059774E0	1.017607689E1	1.055832982E0
3.876750965E0	-3.006581545E0	9.569496155E0	1.034895778E0
3.885153986E0	-3.276372433E0	9.227322578E0	1.230509043E0
3.893557007E0	-2.758326292E0	9.256035805E0	1.214955688E0
3.901960027E0	-2.147558212E0	9.369695663E0	1.423729420E0
3.910363048E0	-1.752742529E0	9.469595909E0	1.663609982E0
3.918766069E0	-1.737189293E0	9.531808853E0	1.842473388E0
3.927169090E0	-1.997408748E0	9.328418732E0	1.554138303E0
3.935572111E0	-2.314457655E0	9.092725754E0	1.447657704E0
3.943975132E0	-2.358724833E0	9.044869423E0	1.326221943E0
3.952378152E0	-1.999203324E0	9.230313301E0	1.088136077E0
3.960781173E0	-1.436291814E0	9.471988678E0	9.619147182E-1
3.969184194E0	-8.793623447E-1	9.700503349E0	9.912267923E-1
3.977587215E0	-4.773681164E-1	9.822537422E0	1.033699393E0
3.985990236E0	-2.799602449E-1	9.830911636E0	1.025922656E0
3.994393257E0	-1.764706671E-1	9.746564865E0	8.524430394E-1
4.002796277E0	-1.190429255E-1	9.736394882E0	7.016952634E-1
4.011199298E0	-1.459621787E-1	9.775279045E0	4.851447940E-1
4.019602319E0	-2.644068897E-1	9.812367439E0	4.151547253E-1
4.028005340E0	-3.140579760E-1	9.826126099E0	3.613162339E-1
4.036408361E0	-3.110669553E-1	9.771689415E0	3.445664644E-1
4.044811382E0	-8.494520187E-2	9.754341125E0	2.123630047E-1
4.053214402E0	3.529413417E-2	9.847063065E0	2.769692242E-1
4.061617423E0	2.871387079E-2	9.874580383E0	2.440679073E-1
4.070020444E0	-9.092725813E-2	9.876375198E0	5.084748268E-1
4.078423465E0	-2.350948304E-1	9.757930756E0	7.148557901E-1
4.086826486E0	-3.122633696E-1	9.596415520E0	8.356932998E-1
4.095229507E0	-3.391826153E-1	9.636494637E0	9.433703423E-1
4.103632527E0	-3.158525825E-1	9.721440315E0	9.619147182E-1
4.112035548E0	-2.709871531E-1	9.692726135E0	1.017547846E0
4.120438569E0	-8.434699476E-2	9.806385040E0	1.066002488E0
4.128841590E0	-3.469592705E-2	1.017727280E1	1.125224829E0
4.137244611E0	-2.374876440E-1	1.040040398E1	9.559326172E-1
4.145647632E0	-5.252245665E-1	1.012702370E1	7.328019142E-1
4.154050652E0	-6.239284873E-1	9.602396965E0	4.731806815E-1
4.162453673E0	-3.332005441E-1	9.349356651E0	1.651047617E-1
4.170856694E0	2.476571500E-1	9.355338097E0	2.662015259E-1
4.179259715E0	5.377869010E-1	9.536594391E0	5.198407173E-1
4.187662736E0	2.608176768E-1	9.754940033E0	7.525427341E-1
4.196065757E0	-2.231307179E-1	9.968499184E0	9.074779749E-1
4.204468777E0	-3.517449200E-1	1.010249710E1	1.277767301E0
4.212871798E0	-2.129612118E-1	1.004566765E1	1.500299811E0
4.221274819E0	-1.920240223E-1	1.000558758E1	1.758724689E0
4.229677840E0	-2.500499785E-1	9.973284721E0	2.100300074E0
4.238080861E0	-2.691925466E-1	1.000259686E1	1.822134495E0
4.246483882E0	-4.839483798E-1	1.017428207E1	1.150349498E0
4.254886902E0	-6.813562512E-1	1.020120144E1	8.464609981E-1
4.263289923E0	-3.302095234E-1	1.011565781E1	5.850451589E-1
4.271692944E0	2.183450609E-1	1.001934624E1	2.033899277E-1
4.280095965E0	5.748756528E-1	1.000558758E1	-1.136590727E-2
4.288498986E0	7.740781307E-1	1.016590691E1	-2.261217386E-1
4.296902007E0	5.527420044E-1	1.049910736E1	-2.452643216E-1
4.305305027E0	-7.896314561E-2	1.049133110E1	-6.161518097E-1
4.313708048E0	-3.152543902E-1	9.978668213E0	-4.384847581E-1
4.322111069E0	1.100698411E-1	9.535398483E0	4.067798331E-2
4.330514090E0	6.191428304E-1	9.492327690E0	2.524427772E-1
4.338917111E0	6.233302951E-1	9.793225288E0	4.911268353E-1
4.347320132E0	2.991028428E-1	1.027956581E1	2.638086975E-1
4.355723152E0	6.460621208E-2	1.086700439E1	-1.196411327E-1
4.364126173E0	-3.290131316E-2	1.125583744E1	-4.995017350E-1
4.372529194E0	-7.058826834E-2	1.114217854E1	-5.730810165E-1
4.380932215E0	-4.606183618E-2	1.061456108E1	-7.423732281E-1
4.389335236E0	-2.871387079E-2	1.004148006E1	-8.261220455E-1
4.397738257E0	1.196411345E-2	9.784252167E0	-8.189435601E-1
4.406141277E0	4.007977992E-2	9.952945709E0	-8.009973764E-1
4.414544298E0	-1.800599098E-1	1.043450165E1	-6.352944374E-1
4.422947319E0	-6.711867452E-1	1.115773201E1	-4.468596280E-1
4.431350340E0	-1.383649707E0	1.227398396E1	-1.902294010E-1
4.439753361E0	-2.300100803E0	1.410090351E1	2.093719877E-2
4.448156382E0	-3.235694408E0	1.590688705E1	1.130608693E-1
4.456559402E0	-3.888935089E0	1.649312782E1	1.034895778E-1
4.464962423E0	-4.054637909E0	1.526441383E1	2.386840582E-1
4.473365444E0	-4.090530396E0	1.379222965E1	3.212364316E-1
4.481768465E0	-3.716651678E0	1.330887985E1	1.064806059E-1
4.490171486E0	-2.358126640E0	1.338066387E1	-1.136590764E-1
4.498574507E0	1.830509305E-1	1.318505096E1	3.643072546E-1
4.506977527E0	3.406183004E0	1.300618744E1	1.428515077E0
4.515380548E0	6.815357208E0	1.347039509E1	2.780459881E0
4.523783569E0	1.017547798E1	1.642493248E1	4.707280159E0
4.532186590E0	8.859425545E0	1.831526184E1	4.308875561E0
4.540589611E0	3.782454491E0	1.645125389E1	1.280160069E0
4.548992632E0	-9.678967595E-1	1.288056469E1	1.512263894E0
4.557395652E0	-2.383849621E0	9.638887405E0	1.938784599E0
4.565798673E0	-8.315058947E-1	8.259425163E0	2.519043922E0
4.574201694E0	1.716850281E0	8.560322762E0	3.181855917E0
4.582604715E0	2.770888567E0	9.416953087E0	2.903092146E0
4.591007736E0	3.078366280E0	9.211171150E0	1.664806366E0
4.599410757E0	3.710071564E0	9.264410973E0	2.155933142E0
4.607813777E0	3.747160196E0	9.409176826E0	2.148156643E0
4.616216798E0	2.365305185E0	8.476573944E0	2.131406784E0
4.624619819E0	1.035493970E0	7.597810268E0	1.511067510E0
4.633022840E0	-6.299105883E-1	7.027122021E0	9.643075466E-1
4.641425861E0	-2.103889227E0	5.877370834E0	7.064808607E-1
4.649828882E0	-1.980060697E0	5.174479008E0	6.957131624E-1
4.658231902E0	-8.799605370E-1	5.277370453E0	9.547362328E-1
4.666634923E0	3.643072546E-1	5.660820007E0	1.066002488E0
4.675037944E0	1.021735311E0	5.907878876E0	8.440681696E-1
4.683440965E0	1.031904817E0	5.931209087E0	3.834498227E-1
4.691843986E0	7.519445419E-1	5.831308842E0	-4.426721856E-2
4.700247007E0	5.742774606E-1	5.730810165E0	-2.344966233E-1
4.708650027E0	7.692924738E-1	5.792425632E0	-4.354937077E-1
4.717053048E0	1.107876897E0	5.857629776E0	-5.114658475E-1
4.725456069E0	1.624726534E0	6.002395630E0	-7.848458290E-1
4.733859090E0	2.102692842E0	6.265605927E0	-1.068395257E0
4.742262111E0	2.328216314E0	6.457630157E0	-6.765705943E-1
4.750665132E0	2.461018085E0	6.443273067E0	-1.004985496E-1
4.759068152E0	2.626721144E0	6.340381622E0	4.845465720E-2
4.767471173E0	2.807379246E0	6.370292187E0	-1.076770201E-2
4.775874194E0	2.916252613E0	6.544369698E0	6.281159073E-2
4.784277215E0	2.860021353E0	6.771090031E0	1.860419661E-1
4.792680236E0	2.645863533E0	6.995417118E0	2.135594189E-1
4.801083257E0	2.350350142E0	7.147361279E0	1.872383654E-1
4.809486277E0	2.079362869E0	7.210172653E0	2.566302419E-1
4.817889298E0	1.963909149E0	7.188039303E0	4.037888348E-1
4.826292319E0	2.052443504E0	7.224529743E0	7.507480979E-1
4.834695340E0	2.315055847E0	7.395018578E0	1.116251707E0
4.843098361E0	2.478366137E0	7.651648521E0	1.432104349E0
4.851501382E0	2.417349100E0	7.920242786E0	1.685743570E0
4.859904402E0	2.065006018E0	8.174480438E0	1.689332843E0
4.868307423E0	1.439880967E0	8.529216766E0	1.875374794E0
4.876710444E0	7.435696125E-1	8.931210518E0	2.048854351E0
4.885113465E0	1.956132501E-1	9.443274498E0	2.265404940E0
4.893516486E0	3.110669367E-2	1.015633583E1	2.528615236E0
4.901919507E0	2.410768867E-1	1.102851963E1	2.736790895E0
4.910322527E0	7.196413875E-1	1.205504036E1	2.931207657E0
4.918725548E0	1.194018483E0	1.313360500E1	2.986840963E0
4.927128569E0	1.487737536E0	1.410568905E1	3.039483070E0
4.935531590E0	1.734796405E0	1.488814259E1	2.966501951E0
4.943934611E0	2.099103689E0	1.546840191E1	2.766701221E0
4.952337632E0	2.730808735E0	1.585185146E1	2.553740025E0
4.960740652E0	3.516252756E0	1.596670723E1	2.173879385E0
4.969143673E0	4.234697819E0	1.581835270E1	1.716850281E0
4.977546694E0	4.869394302E0	1.557308769E1	1.000798106E0
4.985949715E0	5.231308460E0	1.530389500E1	3.098705411E-1
4.994352736E0	5.562714577E0	1.475773335E1	-3.774677813E-1
5.002755757E0	6.183053493E0	1.414875984E1	-8.015955985E-2
5.011158777E0	7.679764271E0	1.365823174E1	1.727019787E0
5.019561798E0	1.000439167E1	1.326341629E1	2.806182861E0
5.027964819E0	1.175653553E1	1.303310680E1	3.297907829E0
5.036367840E0	1.151067352E1	1.254078388E1	3.464807272E0
5.044770861E0	9.255437851E0	1.149811077E1	2.692523718E0
5.053173882E0	6.750152588E0	1.033699417E1	1.119840980E0
5.061576902E0	5.193621635E0	9.566504478E0	2.925225794E-1
5.069979923E0	5.104488850E0	8.942576408E0	-4.893322289E-1
5.078382944E0	5.995217323E0	8.851051331E0	-6.867401004E-1
5.086785965E0	6.993622303E0	9.304491043E0	4.845465720E-2
5.095188986E0	7.478168964E0	9.958928108E0	1.728814393E-1
5.103592007E0	6.931408882E0	1.152742290E1	-7.106683254E-1
5.111995027E0	4.218546391E0	1.444546986E1	-2.433500528E0
5.120398048E0	-1.195813060E0	1.878605080E1	-6.080162525E0
5.128801069E0	-1.113500023E1	2.233041954E1	-9.853643417E0
5.137204090E0	-2.011287117E1	1.659781456E1	-1.579861164E1
5.145607111E0	-2.194158554E1	8.209774017E0	-1.134317589E1
5.154010132E0	-1.940818405E1	8.207980156E0	2.715853691E0
5.162413152E0	-4.113860130E0	8.508278847E0	5.690132141E0
5.170816173E0	1.026999474E1	1.081316566E1	7.944769382E0
5.179219194E0	2.036172485E1	1.441017628E1	5.872584820E0
5.187622215E0	1.684068489E1	1.340279770E1	2.592025042E0
5.196025236E0	4.286143780E0	8.675776482E0	4.698307037E0
5.204428257E0	-5.456831932E0	6.597609997E0	6.116652966E0
5.212831277E0	-1.106142044E1	7.007380962E0	3.655036688E0
5.221234298E0	-1.281655598E1	7.338188648E0	-1.174277663E0
5.229637319E0	-1.040997505E1	8.492127419E0	-4.175475597E0
5.238040340E0	-6.047859192E0	9.208179474E0	-3.567100286E0
5.246443361E0	-1.049850941E0	9.826724052E0	-2.401197433E0
5.254846382E0	3.773481369E0	1.085264683E1	-2.417947292E0
5.263249402E0	7.063612461E0	1.246182060E1	-2.404188633E0
5.271652423E0	6.932605267E0	1.373599815E1	-8.147560954E-1
5.280055444E0	2.780459881E0	1.304088306E1	7.292127013E-1
5.288458465E0	-1.625923038E0	1.107398319E1	1.024726272E0
5.296861486E0	-4.844867706E0	9.083752632E0	1.640279889E0
5.305264507E0	-6.403193474E0	7.567899704E0	1.922633052E0
5.313667527E0	-6.067600250E0	6.818347931E0	2.046461582E0
5.322070548E0	-4.419543266E0	7.308278561E0	2.289333105E0
5.330473569E0	-2.541775942E0	8.670392990E0	1.992623091E0
5.338876590E0	-1.403988719E0	1.008455086E1	1.436291814E0
5.347279611E0	-1.144367456E0	1.082812023E1	9.314061999E-1
5.355682632E0	-1.462014675E0	1.080479050E1	4.510470629E-1
5.364085652E0	-1.978864312E0	1.014197922E1	2.847459018E-1
5.372488673E0	-2.446661234E0	9.515059471E0	3.894318938E-1
5.380891694E0	-2.501696110E0	9.327820778E0	4.307080805E-1
5.389294715E0	-2.237289190E0	9.519247055E0	3.056831062E-1
5.397697736E0	-1.855035782E0	9.893723488E0	2.985046208E-1
5.406100757E0	-1.321436286E0	1.018863869E1	3.475574851E-1
5.414503777E0	-7.543373108E-1	1.037228775E1	4.677968323E-1
5.422906798E0	-3.248256743E-1	1.033280659E1	5.904290080E-1
5.431309819E0	-7.776673418E-3	1.015932655E1	6.101697683E-1
5.439712840E0	1.202393398E-1	1.003071213E1	8.865407705E-1
5.448115861E0	-4.725824669E-2	1.006839943E1	1.039681435E0
5.456518882E0	-4.636093974E-1	1.013420200E1	8.554341197E-1
5.464921902E0	-7.322037220E-1	1.013360405E1	7.824530005E-1
5.473324923E0	-6.179464459E-1	9.984052658E0	6.957131624E-1
5.481727944E0	-1.950150430E-1	9.796216011E0	5.300102234E-1
5.490130965E0	3.314059377E-1	9.684949875E0	5.563312769E-1
5.498533986E0	7.686942816E-1	9.705288887E0	7.070791125E-1
5.506937007E0	9.744769931E-1	9.815957069E0	7.334001660E-1
5.515340027E0	8.518448472E-1	9.937392235E0	5.802595019E-1
5.523743048E0	5.306084156E-1	1.003430176E1	4.749752879E-1
5.532146069E0	3.320041299E-1	1.001755238E1	4.396811724E-1
5.540549090E0	1.645065546E-1	9.493523598E0	3.912265003E-1
5.548952111E0	2.697907388E-1	9.924830437E0	1.299900889E0
5.557355132E0	8.117650747E-1	1.042134094E1	3.403790295E-1
5.565758152E0	7.010970116E-1	1.033340454E1	2.201396823E-1
5.574161173E0	4.911268353E-1	9.797411919E0	7.339983582E-1
5.582564194E0	6.502495408E-1	9.397810936E0	7.597211599E-1
5.590967215E0	7.351947427E-1	9.360722542E0	8.901300430E-1
5.599370236E0	5.754738450E-1	9.404391289E0	9.661021233E-1
5.607773257E0	2.973082066E-1	9.496515274E0	8.632107973E-1
5.616176277E0	1.435693651E-1	9.492925644E0	8.985049129E-1
5.624579298E0	3.146561682E-1	9.326025963E0	9.038887620E-1
5.632982319E0	5.802595019E-1	9.052646637E0	9.948160052E-1
5.641385340E0	9.248259664E-1	8.875576973E0	9.421738982E-1
5.649788361E0	1.122233868E0	8.915059090E0	8.733802438E-1
5.658191382E0	1.207777262E0	9.131608963E0	6.837490797E-1
5.666594402E0	1.177268744E0	9.373284340E0	4.348955154E-1
5.674997423E0	1.194018483E0	9.489336014E0	2.781656384E-1
5.683400444E0	1.197607756E0	9.486943245E0	4.169493318E-1
5.691803465E0	9.750752449E-1	9.561718941E0	7.022934556E-1
5.700206486E0	4.917250574E-1	9.627521515E0	6.484549642E-1
5.708609507E0	2.530409992E-1	9.567103386E0	4.630111754E-1
5.717012527E0	3.577269912E-1	9.605388641E0	4.695914388E-1
5.725415548E0	3.493520916E-1	9.961918831E0	3.086741269E-1
5.733818569E0	7.477571070E-2	1.049372387E1	-1.657029688E-1
5.742221590E0	-1.968096644E-1	1.080598736E1	-6.454638839E-1
5.750624611E0	-2.021935135E-1	1.078983593E1	-1.236491084E0
5.759027632E0	-4.905286431E-2	1.074736309E1	-1.337587833E0
5.767430652E0	-1.459621787E-1	1.096152020E1	-1.079761267E0
5.775833673E0	-4.372883439E-1	1.138026428E1	-7.740781307E-1
5.784236694E0	-8.063812256E-1	1.175174999E1	-3.116651475E-1
5.792639715E0	-1.140179992E0	1.189831066E1	9.092725813E-2
5.801042736E0	-1.472184181E0	1.219621658E1	9.493523836E-1
5.809445757E0	-1.988435626E0	1.307737350E1	1.990230203E0
5.817848777E0	-2.727219582E0	1.448614788E1	2.346760750E0
5.826251798E0	-3.547359467E0	1.547617912E1	1.983051777E0
5.834654819E0	-4.073182583E0	1.525125313E1	1.217946768E0
5.843057840E0	-4.545166492E0	1.428874016E1	8.446664214E-1
5.851460861E0	-5.303092957E0	1.365045452E1	1.221535921E0
5.859863882E0	-5.900102615E0	1.357448292E1	1.473978758E0
5.868266902E0	-5.928217888E0	1.368873978E1	1.479960799E0
5.876669923E0	-5.151747227E0	1.364148235E1	1.469791293E0
5.885072944E0	-3.309871912E0	1.299003601E1	8.679963946E-1
5.893475965E0	-9.822536707E-1	1.231047440E1	1.517647743E0
5.901878986E0	2.733201742E0	1.174158096E1	9.595218897E-1
5.910282007E0	6.645466805E0	1.326939774E1	2.918645382E0
5.918685027E0	7.999804497E0	1.479542065E1	4.595416069E0
5.927088048E0	6.031707764E0	1.484327698E1	4.229313850E0
5.935491069E0	2.678765059E0	1.355773354E1	3.506681681E0
5.943894090E0	1.208973646E0	1.230688477E1	2.155933142E0
5.952297111E0	1.748555183E0	1.144008541E1	-2.871387079E-2
5.960700132E0	2.471785784E0	1.069053364E1	-4.067798555E-1
5.969103152E0	2.285743713E0	9.687940598E0	8.039883971E-1
5.977506173E0	1.651645780E0	9.071788788E0	1.765304923E0
5.985909194E0	1.075573802E0	8.444271088E0	1.433898926E0
5.994312215E0	6.873382926E-1	7.548757076E0	1.016949654E0
6.002715236E0	6.041877270E-1	6.574878216E0	1.051047325E0
6.011118257E0	7.262216806E-1	5.967101574E0	1.566700578E0
6.019521277E0	8.021938205E-1	5.469394207E0	1.913659930E0
6.027924298E0	8.506484628E-1	4.971088886E0	1.767697692E0
6.036327319E0	9.409775138E-1	4.791028976E0	1.107278705E0
6.044730340E0	9.553344250E-1	4.875376225E0	4.384847581E-1
6.053133361E0	1.006780148E0	5.074578762E0	-8.973085321E-3
6.061536382E0	1.392024517E0	5.538786411E0	-3.451646566E-1
6.069939402E0	1.765304923E0	5.915057659E0	-5.084748268E-1
6.078342423E0	1.827518344E0	5.815755367E0	-7.136593461E-1
6.086745444E0	1.707278967E0	5.649454117E0	-4.139583111E-1
6.095148465E0	1.732403636E0	5.577669621E0	3.589233849E-3
6.103551486E0	1.787438512E0	5.515456200E0	-1.375873014E-2
6.111954507E0	1.655833244E0	5.600999832E0	6.699903309E-2
6.120357527E0	1.400399446E0	5.785246849E0	-6.819544733E-2
6.128760548E0	1.210768223E0	5.882754326E0	-4.701896608E-1
6.137163569E0	1.250249863E0	6.098706722E0	-5.653043389E-1
6.145566590E0	1.562513232E0	6.391827583E0	-7.190431952E-1
6.153969611E0	2.091925144E0	6.732804775E0	-1.236491084E0
6.162372632E0	2.488535643E0	7.165905476E0	-1.527219057E0
6.170775652E0	2.693121910E0	7.559525013E0	-1.487139225E0
6.179178673E0	2.757728100E0	7.759325504E0	-1.244866014E0
6.187581694E0	2.999403238E0	7.948358536E0	-9.780662656E-1
6.195984715E0	3.355933666E0	8.106285095E0	-8.644071817E-1
6.204387736E0	3.621536970E0	8.222934723E0	-1.009172916E0
6.212790757E0	3.598206997E0	8.475975990E0	-1.235294700E0
6.221193777E0	3.233899832E0	8.801998138E0	-1.519442320E0
6.229596798E0	2.685943365E0	9.299705505E0	-1.468594909E0
6.237999819E0	2.140379906E0	9.722038269E0	-1.214955688E0
6.246402840E0	1.904088616E0	1.002652550E1	-9.284151793E-1
6.254805861E0	1.941775560E0	1.032562828E1	-5.814558864E-1
6.263208882E0	2.038086653E0	1.074556828E1	-2.362912297E-1
6.271611902E0	2.040479422E0	1.141196918E1	2.572284266E-2
6.280014923E0	1.930409670E0	1.231884956E1	1.202393398E-1
6.288417944E0	1.693520188E0	1.329212952E1	4.785645287E-3
6.296820965E0	1.362712502E0	1.421157169E1	-2.901297510E-1
6.305223986E0	9.266205430E-1	1.487378597E1	-4.827519655E-1
6.313627007E0	4.402793646E-1	1.533679676E1	-5.539384484E-1
6.322030027E0	5.982056633E-2	1.572563076E1	-5.066801906E-1
6.330433048E0	1.058823988E-1	1.631605911E1	-4.953143001E-1
6.338836069E0	5.054838061E-1	1.666840172E1	-5.700899959E-1
6.347239090E0	1.346560955E0	1.645125389E1	-6.556333899E-1
6.355642111E0	2.606382132E0	1.610549164E1	-4.031906128E-1
6.364045132E0	3.853042603E0	1.509153271E1	-6.693921089E-1
6.372448152E0	5.134399414E0	1.372582912E1	-1.340578914E0
6.380851173E0	6.482156754E0	1.261436272E1	-1.533799291E0
6.389254194E0	7.673782349E0	1.157587814E1	-1.522433400E0
6.397657215E0	8.261219978E0	1.046261692E1	-1.562513232E0
6.406060236E0	8.015357971E0	9.354740143E0	-6.562315822E-1
6.414463257E0	7.351349354E0	8.075776100E0	3.762713671E-1
6.422866277E0	6.608976364E0	7.127620220E0	8.530412912E-1
6.431269298E0	6.185446739E0	7.115057945E0	9.732806087E-1
6.439672319E0	6.323033810E0	7.990232944E0	7.328019142E-1
6.448075340E0	6.713063717E0	9.456435204E0	5.491527915E-1
6.456478361E0	6.508477688E0	1.076830006E1	1.920240223E-1
6.464881382E0	5.764309883E0	1.176012516E1	-3.349951804E-1
6.473284402E0	4.573282242E0	1.229551888E1	-3.457628787E-1
6.481687423E0	2.849253654E0	1.212862015E1	1.884347796E-1
6.490090444E0	9.409775138E-1	1.187318611E1	5.294120312E-1
6.498493465E0	-1.554736495E0	1.309711456E1	-4.097708762E-1
6.506896486E0	-6.437889099E0	1.665284920E1	-2.608176768E-1
6.515299507E0	-1.765185356E1	1.642433548E1	2.072782516E0
6.523702527E0	-2.986481857E1	1.020897770E1	1.424327731E0
6.532105548E0	-2.549672127E1	7.828119278E0	-5.682953596E-1
6.540508569E0	-1.143829060E1	7.192824841E0	1.744367719E0
6.548911590E0	5.721837044E0	1.024546814E1	3.381058455E0
6.557314611E0	2.259901428E1	1.616710663E1	6.777670383E-1
6.565717632E0	2.442413902E1	1.808854294E1	-2.549552441E0
6.574120652E0	1.067198944E1	1.321555901E1	-5.474180222E0
6.582523673E0	-1.506281853E0	1.054217815E1	-3.731008768E0
6.590926694E0	-9.668199539E0	1.038126087E1	1.990828395E0
6.599329715E0	-1.333161163E1	9.125627518E0	4.340580463E0
6.607732736E0	-1.216750336E1	7.366902828E0	3.420539856E0
6.616135757E0	-8.395816803E0	5.946164131E0	2.124228239E0
6.624538777E0	-4.052843571E0	5.697908878E0	1.698904037E0
6.632941798E0	-2.273181453E-2	7.296912670E0	2.481955290E0
6.641344819E0	2.665006161E0	9.794421196E0	2.654836655E0
6.649747840E0	2.574079037E0	1.187019539E1	1.137787223E0
6.658150861E0	2.829512656E-1	1.247677517E1	-5.168496966E-1
6.666553882E0	-1.911267042E0	1.135274696E1	-5.485545993E-1
6.674956902E0	-2.490330219E0	9.875179291E0	-1.172483116E-1
6.683359923E0	-1.818545222E0	9.309276581E0	7.118647546E-2
6.691762944E0	-9.738788009E-1	9.700503349E0	3.475574851E-1
6.700165965E0	-4.253242314E-1	1.034118080E1	8.548358679E-1
6.708568986E0	-8.075776696E-2	1.069950676E1	1.067797065E0
6.716972007E0	1.872383654E-1	1.077966595E1	1.063609719E0
6.725375027E0	2.991028428E-1	1.049133110E1	5.288137794E-1
6.733778048E0	1.244267747E-1	1.008275604E1	6.239284873E-1
6.742181069E0	-3.996013701E-1	9.702297211E0	1.135394335E0
6.750584090E0	-8.925228715E-1	9.643673897E0	1.436890006E0
6.758987111E0	-8.991031051E-1	9.648459435E0	9.194421172E-1
6.767390132E0	-6.945167780E-1	9.608379364E0	1.369292736E0
6.775793152E0	-2.524427772E-1	9.578469276E0	1.397408366E0
6.784196173E0	2.679961324E-1	9.608379364E0	1.531406522E0
6.792599194E0	6.538388133E-1	9.627521515E0	1.831705689E0
6.801002215E0	8.721838593E-1	9.689137459E0	1.319043517E0
6.809405236E0	8.733802438E-1	9.825528145E0	9.601200819E-1
6.817808257E0	7.710871100E-1	9.981060982E0	1.105484009E0
6.826211277E0	7.507480979E-1	9.965508461E0	1.315454245E0
6.834614298E0	8.285148144E-1	9.861420631E0	1.284945726E0
6.843017319E0	8.793623447E-1	9.784252167E0	1.399203062E0
6.851420340E0	6.687939167E-1	9.482755661E0	1.506281853E0
6.859823361E0	3.349951804E-1	9.141180992E0	1.321436286E0
6.868226382E0	3.900300860E-1	9.601201057E0	1.693520188E0
6.876629402E0	6.239284873E-1	9.923035622E0	1.016351461E0
6.885032423E0	3.122633696E-1	9.902696609E0	1.055832982E0
6.893435444E0	1.256231871E-2	9.626923561E0	1.184447169E0
6.901838465E0	2.811566554E-2	9.494122505E0	1.208973646E0
6.910241486E0	7.477571070E-2	9.595816612E0	1.229312658E0
6.918644507E0	-1.561316848E-1	9.727422714E0	1.235294700E0
6.927047527E0	-5.970092416E-1	9.727422714E0	1.076171994E0
6.935450548E0	-8.847461939E-1	9.684351921E0	8.578268886E-1
6.943853569E0	-8.763712645E-1	9.638289452E0	7.399803996E-1
6.952256590E0	-6.861419082E-1	9.634101868E0	6.191428304E-1
6.960659611E0	-4.863412082E-1	9.646664619E0	5.359922647E-1
6.969062632E0	-4.540380836E-1	9.522237778E0	7.040880919E-1
6.977465652E0	-4.390829504E-1	9.434899330E0	7.980063558E-1
6.985868673E0	-4.313062727E-1	9.508479118E0	6.951149702E-1
6.994271694E0	-4.983053207E-1	9.689137459E0	6.436693072E-1
7.002674715E0	-3.696911037E-1	9.803992271E0	2.518445849E-1
7.011077736E0	1.603191197E-1	1.005942631E1	-3.020938635E-1
7.019480757E0	8.602197170E-1	1.039143085E1	-3.020938635E-1
7.027883777E0	1.371685624E0	1.051645565E1	-4.360919297E-1
7.036286798E0	1.423729420E0	1.029870892E1	-7.459624410E-1
7.044689819E0	8.536394835E-1	1.000259686E1	-2.548356056E-1
7.053092840E0	-1.405783296E-1	1.015693378E1	6.065805554E-1
7.061495861E0	-1.290927768E0	1.074616623E1	1.523629785E0
7.069898882E0	-2.127219439E0	1.133599758E1	1.946561217E0
7.078301902E0	-2.308475733E0	1.168534946E1	1.875374794E0
7.086704923E0	-1.769492388E0	1.174875927E1	1.592423439E0
7.095107944E0	-8.620143533E-1	1.158006477E1	1.303490162E0
7.103510965E0	2.991028363E-3	1.136351490E1	9.296116233E-1
7.111913986E0	5.563312769E-1	1.127378368E1	7.046862841E-1
7.120317007E0	4.677968323E-1	1.148255730E1	5.162515044E-1
7.128720027E0	-2.356930375E-1	1.179422283E1	8.015955985E-2
7.137123048E0	-1.073779106E0	1.215553856E1	-3.230310678E-1
7.145526069E0	-1.780858278E0	1.276690483E1	-1.818545163E-1
7.153929090E0	-2.519043922E0	1.382513142E1	1.172483116E-1
7.162332111E0	-3.549752474E0	1.499581909E1	4.989035130E-1
7.170735132E0	-4.837689400E0	1.573998737E1	5.653043389E-1
7.179138152E0	-6.046064377E0	1.572084522E1	5.395814776E-1
7.187541173E0	-6.816553593E0	1.503290844E1	8.021938205E-1
7.195944194E0	-6.510272026E0	1.374317646E1	1.265803218E0
7.204347215E0	-4.451846600E0	1.226082325E1	1.378265858E0
7.212750236E0	-9.744769931E-1	1.099920750E1	1.957927108E0
7.221153257E0	4.207778454E0	1.094656563E1	1.718046665E0
7.229556277E0	8.169096947E0	1.369053459E1	4.713860512E0
7.237959298E0	8.320442200E0	1.674796295E1	6.571289062E0
7.246362319E0	5.176273346E0	1.754537201E1	5.414957523E0
7.254765340E0	2.103291035E0	1.652243996E1	3.099901676E0
7.263168361E0	1.371685624E0	1.448734474E1	8.590233326E-1
7.271571382E0	2.158924341E0	1.224766254E1	-1.531406492E-1
7.279974402E0	2.230110645E0	1.044287586E1	3.445664644E-1
7.288377423E0	1.280160069E0	9.016754150E0	1.416550994E0
7.296780444E0	2.440679073E-1	7.848458290E0	1.699502230E0
7.305183465E0	-3.978067636E-1	7.001399040E0	1.471585870E0
7.313586486E0	-5.276173949E-1	6.116054535E0	9.607182741E-1
7.321989507E0	-1.495514214E-1	5.350949764E0	7.579265833E-1
7.330392527E0	1.212562919E0	5.287539959E0	2.943171740E0
7.338795548E0	3.828516245E0	5.361717224E0	1.998006940E0
7.347198569E0	5.807380676E0	5.712265968E0	-6.275177598E-1
7.355601590E0	5.407779217E0	6.812366009E0	-1.116251707E0
7.364004611E0	3.407379389E0	6.886543751E0	-4.223332107E-1
7.372407632E0	1.575075507E0	5.958128452E0	-4.043870270E-1
7.380810652E0	5.443671346E-1	5.288137913E0	-9.990034252E-2
7.389213673E0	5.126622319E-1	5.229514122E0	-1.363908947E-1
7.397616694E0	1.063011408E0	5.546562672E0	-4.486542344E-1
7.406019715E0	1.451246977E0	5.709274769E0	-7.692924738E-1
7.414422736E0	1.391426325E0	5.779264927E0	-5.114658475E-1
7.422825757E0	1.384846091E0	5.572285652E0	-8.554340899E-2
7.431228777E0	1.779661894E0	5.425725460E0	3.008974493E-1
7.439631798E0	2.498705149E0	5.556134224E0	7.483552694E-1
7.448034819E0	3.003590584E0	5.837290764E0	1.063609719E0
7.456437840E0	2.963510752E0	5.997610092E0	8.231309652E-1
7.464840861E0	2.570489645E0	6.151348591E0	4.552344978E-1
7.473243882E0	2.067996979E0	6.318248272E0	3.170489892E-2
7.481646902E0	1.547558069E0	6.453442574E0	-2.506481707E-1
7.490049923E0	1.186241865E0	6.622735023E0	-4.420739710E-1
7.498452944E0	1.039083242E0	6.689733982E0	-5.694918036E-1
7.506855965E0	1.247856975E0	6.897311211E0	-2.572284341E-1
7.515258986E0	1.992024899E0	7.247859955E0	-8.614161611E-2
7.523662007E0	3.040081263E0	7.719245911E0	-2.189432681E-1
7.532065027E0	3.929612875E0	8.273183823E0	-3.170489967E-1
7.540468048E0	4.375874519E0	8.753543854E0	-5.306084156E-1
7.548871069E0	4.286143780E0	9.035298347E0	-7.399803996E-1
7.557274090E0	3.720839262E0	9.175278664E0	-7.944171429E-1
7.565677111E0	2.961117983E0	9.060422897E0	-8.093722463E-1
7.574080132E0	2.307877541E0	8.907281876E0	-7.178468108E-1
7.582483152E0	1.913061738E0	8.980263710E0	-6.358926296E-1
7.590886173E0	1.704886079E0	9.321240425E0	-6.801598072E-1
7.599289194E0	1.770090580E0	1.014018440E1	-6.741777658E-1
7.607692215E0	1.890928149E0	1.104287624E1	-6.963114142E-1
7.616095236E0	2.076371908E0	1.195813084E1	-6.011967063E-1
7.624498257E0	2.333600283E0	1.285244846E1	-2.757728100E-1
7.632901277E0	2.700898647E0	1.380598831E1	-3.242274821E-1
7.641304298E0	2.955136061E0	1.452921867E1	-7.692924738E-1
7.649707319E0	2.723032236E0	1.478584957E1	-1.226321578E0
7.658110340E0	2.420938253E0	1.540678692E1	-1.365105271E0
7.666513361E0	2.804388046E0	1.543789387E1	-1.058824062E0
7.674916382E0	3.855435371E0	1.557248974E1	4.588237405E-1
7.683319402E0	4.804787636E0	1.511127281E1	1.567897081E0
7.691722423E0	5.682355404E0	1.457827187E1	8.189435601E-1
7.700125444E0	6.473183632E0	1.480858135E1	6.430711150E-1
7.708528465E0	6.941578388E0	1.492642784E1	6.239284873E-1
7.716931486E0	6.775875568E0	1.425284767E1	9.116654396E-1
7.725334507E0	6.406184196E0	1.284467220E1	1.049850941E0
7.733737527E0	6.392425537E0	1.141974640E1	1.014556766E0
7.742140548E0	6.541976929E0	1.036630630E1	1.384247899E0
7.750543569E0	6.745367050E0	9.654440880E0	1.984846354E0
7.758946590E0	7.015157700E0	9.188439369E0	2.566302299E0
7.767349611E0	7.667201996E0	8.842078209E0	3.430709362E0
7.775752632E0	8.679366112E0	8.879166603E0	4.093521118E0
7.784155652E0	9.138788223E0	9.763314247E0	4.114458561E0
7.792558673E0	8.267202377E0	1.105603695E1	3.018545866E0
7.800961694E0	6.071787357E0	1.215853024E1	1.444666624E0
7.809364715E0	2.943171740E0	1.255035496E1	-4.426721856E-2
7.817767736E0	-4.689932466E-1	1.258505058E1	-1.438086390E0
7.826170757E0	-4.551746845E0	1.304267788E1	-2.861217737E0
7.834573777E0	-1.114696407E1	1.413021564E1	-3.056830883E0
7.842976798E0	-2.223530388E1	1.286082363E1	-1.517049551E0
7.851379819E0	-2.928037262E1	7.848458290E0	-2.156531334E0
7.859782840E0	-2.336651039E1	6.624529362E0	3.798605800E-1
7.868185861E0	-1.045244789E1	7.901100159E0	7.549355626E-1
7.876588882E0	3.892524242E0	1.221595764E1	-1.027119160E0
7.884991902E0	1.980838394E1	1.892244148E1	-2.190030813E0
7.893394923E0	2.412204552E1	2.120040894E1	-1.558923960E0
7.901797944E0	1.285902882E1	1.630888176E1	9.092725813E-2
7.910200965E0	1.387238979E0	1.078684425E1	3.672982752E-1
7.918603986E0	-6.317051888E0	8.201997757E0	1.597209096E0
7.927007007E0	-1.113440228E1	6.379863262E0	1.351944804E0
7.935410027E0	-1.211366463E1	5.099703312E0	-1.095314622E0
7.943813048E0	-9.107681274E0	5.733202934E0	-3.876372576E-1
7.952216069E0	-4.994419098E0	7.325028419E0	2.611167669E0
7.960619090E0	-1.706082582E0	8.709874153E0	3.606581926E0
7.969022111E0	-1.375873014E-2	9.900303841E0	3.330210924E0
7.977425132E0	-2.877369225E-1	1.063071251E1	1.540977836E0
7.985828152E0	-1.957927108E0	1.059123135E1	-2.949153781E-1
7.994231173E0	-3.667000771E0	9.867402077E0	2.476571500E-1
8.002634194E0	-4.485944271E0	9.004789352E0	1.015154958E0
8.011037215E0	-4.122235298E0	8.611170769E0	6.574280262E-1
8.019440236E0	-2.999403238E0	9.136993408E0	3.445664644E-1
8.027843257E0	-2.146960020E0	9.764511108E0	7.794619799E-1
8.036246277E0	-1.752742529E0	1.025384331E1	8.303094506E-1
8.044649298E0	-1.828116536E0	1.047099209E1	3.260220885E-1
8.053052319E0	-2.221735716E0	1.026939678E1	-8.614161611E-2
8.061455340E0	-2.668595552E0	9.858428955E0	6.340979785E-2
8.069858361E0	-2.989831924E0	9.481559753E0	5.377869010E-1
8.078261382E0	-3.007179976E0	9.337391853E0	6.460621357E-1
8.086664402E0	-2.795415163E0	9.337990761E0	9.397810698E-1
8.095067423E0	-2.419143677E0	9.420542717E0	1.374078393E0
8.103470444E0	-1.976471543E0	9.471389771E0	1.475773335E0
8.111873465E0	-1.676172256E0	9.616155624E0	1.096511006E0
8.120276486E0	-1.442872047E0	9.780064583E0	9.140582681E-1
8.128679507E0	-1.186241865E0	9.884152412E0	7.292127013E-1
8.137082527E0	-8.620143533E-1	1.004207802E1	8.009973764E-1
8.145485548E0	-5.282155871E-1	1.012283611E1	9.349954724E-1
8.153888569E0	-2.727817893E-1	1.005583763E1	9.738788009E-1
8.162291590E0	-1.615155302E-2	9.894321442E0	8.757730722E-1
8.170694611E0	3.535395563E-1	9.712467194E0	6.263213158E-1
8.179097632E0	6.466603279E-1	9.668798447E0	7.758727670E-1
8.187500652E0	7.974081635E-1	9.714859962E0	8.075776696E-1
8.195903673E0	8.662018180E-1	9.814760208E0	7.345965505E-1
8.204306694E0	9.720842242E-1	9.897911072E0	8.279166222E-1
8.212709715E0	1.094716311E0	9.846465111E0	9.409775138E-1
8.221112736E0	1.140778184E0	9.684351921E0	9.804590940E-1
8.229515757E0	1.096511006E0	9.560523033E0	1.004985452E0
8.237918777E0	9.553344250E-1	9.532406807E0	1.122233868E0
8.246321798E0	7.800601721E-1	9.600004196E0	1.197607756E0
8.254724819E0	6.520441771E-1	9.669396400E0	1.010967612E0
8.263127840E0	5.563312769E-1	9.683155060E0	8.691928387E-1
8.271530861E0	5.730810165E-1	9.674779892E0	8.793623447E-1
8.279933882E0	6.873382926E-1	9.699306488E0	1.070788145E0
8.288336902E0	8.189435601E-1	9.766903877E0	1.253839016E0
8.296739923E0	8.267202377E-1	9.770493507E0	1.215553880E0
8.305142944E0	6.759724021E-1	9.729216576E0	1.045663476E0
8.313545965E0	4.953143001E-1	9.616754532E0	9.415757060E-1
8.321948986E0	4.731806815E-1	9.495916367E0	8.291130662E-1
8.330352007E0	5.192425251E-1	9.485149384E0	6.765705943E-1
8.338755027E0	4.791627228E-1	9.613164902E0	5.641079545E-1
8.347158048E0	3.164508045E-1	9.824930191E0	6.592226624E-1
8.355561069E0	1.986042857E-1	1.002293587E1	7.375875711E-1
8.363964090E0	5.503492057E-2	1.009531879E1	7.393822074E-1
8.372367111E0	-9.690931439E-2	1.006002426E1	6.921239495E-1
8.380770132E0	-1.692921966E-1	9.924231529E0	6.580262184E-1
8.389173152E0	-4.965107143E-2	9.857831001E0	5.000999570E-1
8.397576173E0	9.690931439E-2	9.861420631E0	2.572284341E-1
8.405979194E0	2.243271172E-1	9.933803558E0	-3.828516230E-2
8.414382215E0	3.002992272E-1	9.887143135E0	-2.667997181E-1
8.422785236E0	3.266202807E-1	9.866804123E0	-4.295116663E-1
8.431188257E0	-6.221338734E-2	1.019761181E1	2.644068897E-1
8.439591277E0	-7.938188910E-1	1.086102200E1	8.111668825E-1
8.447994298E0	-1.454836130E0	1.165424252E1	8.793623447E-1
8.456397319E0	-1.513460279E0	1.218066406E1	6.628118753E-1
8.464800340E0	-9.726824164E-1	1.223629665E1	4.390829504E-1
8.473203361E0	-4.319044948E-1	1.202513027E1	4.666004181E-1
8.481606382E0	-1.842473447E-1	1.216511059E1	6.909275651E-1
8.490009402E0	-3.337987661E-1	1.308754349E1	1.057029366E0
8.498412423E0	-1.079162955E0	1.471226978E1	1.360917926E0
8.506815444E0	-2.472383976E0	1.609592056E1	1.089930773E0
8.515218465E0	-4.109673023E0	1.655713654E1	6.831508875E-1
8.523621486E0	-5.614160061E0	1.616531181E1	2.865405083E-1
8.532024507E0	-6.627520561E0	1.527518177E1	1.351944804E-1
8.540427527E0	-6.733402729E0	1.446999645E1	2.249253243E-1
8.548830548E0	-5.876173973E0	1.360020542E1	3.888336718E-1
8.557233569E0	-4.024727821E0	1.244028473E1	5.198407173E-1
8.565636590E0	-4.319044948E-1	1.169013500E1	1.024128079E0
8.574039611E0	3.881756544E0	1.188156128E1	3.062214851E0
8.582442632E0	8.330014229E0	1.333819199E1	3.843471289E0
8.590845652E0	9.828518867E0	1.661037636E1	6.728617191E0
8.599248673E0	7.030112743E0	1.808016777E1	7.182057381E0
8.607651694E0	3.177668571E0	1.650688744E1	4.222733974E0
8.616054715E0	9.302098155E-1	1.374736404E1	1.855035782E0
8.624457736E0	6.699903607E-1	1.131745243E1	1.010967612E0
8.632860757E0	7.806583643E-1	9.454042435E0	9.948160052E-1
8.641263777E0	3.894318938E-1	8.047062874E0	1.653440475E0
8.649666798E0	-1.615155339E-1	6.873383045E0	2.148754835E0
8.658069819E0	1.615155339E-1	6.802196503E0	1.716850281E0
8.666472840E0	5.569294691E-1	6.880561352E0	5.485545993E-1
8.674875861E0	6.251249313E-1	7.100701332E0	1.798206210E0
8.683278882E0	1.064207911E0	6.131608009E0	2.337189436E0
8.691681902E0	1.937588096E0	5.141577721E0	-6.005984545E-1
8.700084923E0	1.965105653E0	4.561916351E0	-2.482553482E0
8.708487944E0	1.400399446E0	4.168296814E0	-3.619144261E-1
8.716890965E0	1.737787485E0	3.812364578E0	1.714457393E0
8.725293986E0	2.708675146E0	3.932005882E0	1.698305845E0
8.733697007E0	2.976671457E0	4.402793884E0	9.732806087E-1
8.742100027E0	2.335394859E0	4.944169998E0	3.122633696E-1
8.750503048E0	1.260419369E0	5.218746185E0	-2.333002090E-1
8.758906069E0	1.615155339E-1	5.178666592E0	-2.805584669E-1
8.767309090E0	-4.259224236E-1	4.879563808E0	-4.396811724E-1
8.775712111E0	-1.028913707E-1	4.764110088E0	-5.078766346E-1
8.784115132E0	7.549355626E-1	4.974678040E0	-3.810569942E-1
8.792518152E0	1.721635938E0	5.347958565E0	-5.030909777E-1
8.800921173E0	2.379662037E0	5.800800323E0	-5.551348329E-1
8.809324194E0	2.650649309E0	6.132804394E0	-6.233302951E-1
8.817727215E0	2.699103832E0	6.492924213E0	-6.101697683E-1
8.826130236E0	2.530410051E0	6.699305058E0	-7.316055298E-1
8.834533257E0	2.239083767E0	6.723831654E0	-7.698906660E-1
8.842936277E0	2.105085611E0	6.746563435E0	-6.454638839E-1
8.851339298E0	2.258824587E0	6.982854843E0	-5.036891699E-1
8.859742319E0	2.512463808E0	7.267002583E0	-5.904290080E-1
8.868145340E0	2.831307411E0	7.718647480E0	-8.039883971E-1
8.876548361E0	3.054438114E0	8.240880966E0	-8.350951076E-1
8.884951382E0	3.062214851E0	8.712865829E0	-1.000199914E0
8.893354402E0	2.824128866E0	9.220742226E0	-1.041476011E0
8.901757423E0	2.416152716E0	9.720243454E0	-9.840483069E-1
8.910160444E0	1.890329838E0	1.010429192E1	-7.866404653E-1
8.918563465E0	1.467996716E0	1.049671459E1	-5.228317380E-1
8.926966486E0	1.253839016E0	1.102851963E1	-1.357926875E-1
8.935369507E0	1.234098315E0	1.172004509E1	1.333998591E-1
8.943772527E0	1.258026481E0	1.256830120E1	2.799602449E-1
8.952175548E0	1.204187989E0	1.348535061E1	3.475574851E-1
8.960578569E0	1.010369420E0	1.428215981E1	2.853440940E-1
8.968981590E0	6.765705943E-1	1.501855087E1	1.633101404E-1
8.977384611E0	1.986042857E-1	1.567238998E1	8.973085135E-2
8.985787632E0	-1.573280841E-1	1.615753555E1	1.028913707E-1
8.994190652E0	-8.793623000E-2	1.659243011E1	2.398804724E-1
9.002593673E0	4.743770957E-1	1.688375664E1	4.683950245E-1
9.010996694E0	1.387238979E0	1.670728683E1	6.065805554E-1
9.019399715E0	2.579462767E0	1.627956963E1	4.414757788E-1
9.027802736E0	3.898506403E0	1.573161221E1	-2.087737769E-1
9.036205757E0	5.306682587E0	1.484507179E1	-1.218544960E0
9.044608777E0	6.662814617E0	1.378864002E1	-1.415952802E0
9.053011798E0	7.829914093E0	1.275912857E1	-7.686942816E-1
9.061414819E0	8.633303642E0	1.180199909E1	-2.015953064E-1
9.069817840E0	8.759525299E0	1.102911758E1	-4.366901144E-2
9.078220861E0	7.737192154E0	1.036451149E1	1.477568001E-1
9.086623882E0	6.293721676E0	9.454640388E0	1.603191197E-1
9.095026902E0	5.239683151E0	8.584849358E0	3.134597540E-1
9.103429923E0	5.026721954E0	8.106285095E0	6.311069727E-1
9.111832944E0	5.412564754E0	8.188837051E0	8.237292171E-1
9.120235965E0	6.035296917E0	8.933005333E0	1.054636598E0
9.128638986E0	6.463612080E0	1.005105114E1	9.553344250E-1
9.137042007E0	6.281757832E0	1.111286640E1	5.940182209E-1
9.145445027E0	5.408975601E0	1.180140114E1	7.704889178E-1
9.153848048E0	4.235296249E0	1.186720371E1	1.132403374E0
9.162251069E0	2.909672260E0	1.149153042E1	1.114457130E0
9.170654090E0	1.444068432E0	1.127378368E1	1.812563092E-1
9.179057111E0	-9.547362328E-1	1.298405361E1	-7.298108935E-1
9.187460132E0	-5.940780640E0	1.692084503E1	-6.197410822E-1
9.195863152E0	-1.706441498E1	1.797847366E1	9.314061999E-1
9.204266173E0	-2.877249527E1	1.351466274E1	-1.759921074E0
9.212669194E0	-2.632643318E1	8.453842163E0	-2.373680115E0
9.221072215E0	-1.273819160E1	7.124031067E0	2.638087034E0
9.229475236E0	6.181857109E0	1.033579731E1	3.842873096E0
9.237878257E0	2.403829575E1	1.647159195E1	3.092723191E-1
9.246281277E0	2.561696053E1	1.873819351E1	-1.674975872E0
9.254684298E0	1.106501007E1	1.293859005E1	-2.023131609E0
9.263087319E0	-1.567897081E0	8.857631683E0	-7.872386575E-1
9.271490340E0	-1.031067276E1	7.613363266E0	2.471785784E0
9.279893361E0	-1.415055466E1	7.310671329E0	2.301297188E0
9.288296382E0	-1.295773315E1	7.291528702E0	-1.232901812E0
9.296699402E0	-9.094520569E0	6.869793892E0	-1.723430514E0
9.305102423E0	-4.304089546E0	7.324429989E0	1.297508121E0
9.313505444E0	3.852444589E-1	8.469993591E0	3.029313564E0
9.321908465E0	3.504288673E0	1.012762165E1	4.131208420E0
9.330311486E0	3.241676569E0	1.121994495E1	2.420938253E0
9.338714507E0	-1.794617064E-2	1.115533924E1	-7.603194118E-1
9.347117527E0	-3.573680639E0	1.042313576E1	-6.107679605E-1
9.355520548E0	-5.148756027E0	9.425926208E0	3.140579760E-1
9.363923569E0	-4.499104977E0	8.727222443E0	2.841476798E-1
9.372326590E0	-2.824128866E0	8.917451859E0	5.210371017E-1
9.380729611E0	-1.521835208E0	9.379266739E0	1.569093466E0
9.389132632E0	-6.299105883E-1	9.873982430E0	2.161317110E0
9.397535652E0	-5.078766346E-1	1.023470020E1	1.798804402E0
9.405938673E0	-1.519442320E0	1.013479996E1	8.171489239E-1
9.414341694E0	-2.812762976E0	9.697511673E0	7.908278704E-1
9.422744715E0	-3.517449379E0	9.266803741E0	1.234696507E0
9.431147736E0	-3.422334671E0	9.123234749E0	1.036092162E0
9.439550757E0	-2.720639229E0	9.244071960E0	5.084748268E-1
9.447953777E0	-1.874178290E0	9.542576790E0	8.925228715E-1
9.456356798E0	-1.104885817E0	9.934401512E0	1.068993568E0
9.464759819E0	-6.376872063E-1	1.021615601E1	8.051848412E-1
9.473162840E0	-3.918247223E-1	1.021854877E1	9.888339639E-1
9.481565861E0	-3.756731451E-1	9.984650612E0	9.738788009E-1
9.489968882E0	-4.372883439E-1	9.853045464E0	7.573283911E-1
9.498371902E0	-4.181457460E-1	9.957133293E0	7.262216806E-1
9.506774923E0	-3.637090325E-1	1.007318497E1	8.829515576E-1
9.515177944E0	-2.626122832E-1	1.012522888E1	7.118647099E-1
9.523580965E0	-2.291127741E-1	1.009472084E1	6.813562512E-1
9.531983986E0	-9.571290575E-3	1.012821960E1	6.729813814E-1
9.540387007E0	2.171486616E-1	1.016650486E1	6.436693072E-1
9.548790027E0	4.725824594E-1	1.015214825E1	7.220342159E-1
9.557193048E0	6.119644046E-1	1.008933640E1	8.087740541E-1
9.565596069E0	6.023930907E-1	9.996016502E0	8.380861282E-1
9.573999090E0	4.947160780E-1	9.908080101E0	9.571290612E-1
9.582402111E0	3.565305769E-1	9.818947792E0	8.979067206E-1
9.590805132E0	3.086741269E-1	9.728618622E0	9.870393276E-1
9.599208152E0	3.361915946E-1	9.703494072E0	1.044467092E0
9.607611173E0	3.601198196E-1	9.708279610E0	1.136590719E0
9.616014194E0	2.871387303E-1	9.679565430E0	1.086341500E0
9.624417215E0	1.423729509E-1	9.581459999E0	1.005583763E0
9.632820236E0	8.075776696E-2	9.504889488E0	1.045065284E0
9.641223257E0	1.130608693E-1	9.455238342E0	1.165304661E0
9.649626277E0	2.506481707E-1	9.415159225E0	1.168893814E0
9.658029298E0	4.301098585E-1	9.408578873E0	1.079162955E0
9.666432319E0	5.371887088E-1	9.476774216E0	9.696913958E-1
9.674835340E0	5.694918036E-1	9.571888924E0	9.565308690E-1
9.683238361E0	5.958128572E-1	9.655039787E0	8.039883971E-1
9.691641382E0	3.098705411E-1	9.734002113E0	8.135597110E-1
9.700044402E0	-1.507478207E-1	9.778867722E0	6.765705943E-1
9.708447423E0	-4.342973232E-1	9.774680138E0	3.714857101E-1
9.716850444E0	-3.278166950E-1	9.721440315E0	1.639083475E-1
9.725253465E0	1.615155302E-2	9.673583984E0	1.010967568E-1
9.733656486E0	4.091726840E-1	9.618548393E0	-3.349951655E-2
9.742059507E0	6.418746710E-1	9.990633011E0	2.321037948E-1
9.750462527E0	8.691928387E-1	1.040159988E1	-2.925225794E-1
9.758865548E0	6.783652306E-1	1.037767220E1	-7.447660565E-1
9.767268569E0	2.697907388E-1	1.005464077E1	-4.827519655E-1
9.775671590E0	-2.333002090E-1	1.006241703E1	2.685943544E-1
9.784074611E0	-9.714859724E-1	1.069292641E1	9.756734371E-1
9.792477632E0	-1.786242127E0	1.169192982E1	1.233500123E0
9.800880652E0	-2.062014818E0	1.249771309E1	8.494520187E-1
9.809283673E0	-1.728814363E0	1.268973637E1	4.983053207E-1
9.817686694E0	-1.159322619E0	1.235713387E1	4.899304509E-1
9.826089715E0	-7.471588850E-1	1.187378407E1	6.508477330E-1
9.834492736E0	-8.697910309E-1	1.195992565E1	7.668996453E-1
9.842895757E0	-1.545763373E0	1.280100250E1	8.195417523E-1
9.851298777E0	-2.593819857E0	1.435573959E1	8.524430394E-1
9.859701798E0	-3.905086517E0	1.629751587E1	1.146760225E0
9.868104819E0	-5.263611794E0	1.765843201E1	9.547362328E-1
9.876507840E0	-6.309275150E0	1.778884125E1	3.308077157E-1
9.884910861E0	-6.726224422E0	1.673779488E1	-1.758724600E-1
9.893313882E0	-6.821339130E0	1.501615810E1	3.804588020E-1
9.901716902E0	-6.162116528E0	1.344885921E1	8.518448472E-1
9.910119923E0	-3.869194269E0	1.197488117E1	9.864411354E-1
9.918522944E0	9.786644578E-1	1.030887794E1	6.131607890E-1
9.926925965E0	6.818347931E0	1.149512005E1	2.949153900E0
9.935328986E0	9.777072906E0	1.451246929E1	8.073982239E0
9.943732007E0	9.576076508E0	1.696391678E1	9.614361763E0
9.952135027E0	6.660421848E0	1.657567978E1	5.644070625E0
9.960538048E0	4.316053867E0	1.460459328E1	1.625923038E0
9.968941069E0	3.025125980E0	1.248215961E1	-5.204389244E-2
9.977344090E0	1.861017823E0	1.031127071E1	-3.409772366E-2
9.985747111E0	7.555337548E-1	8.397012711E0	5.641079545E-1
9.994150132E0	-3.649054468E-2	7.212565422E0	1.110269666E0
1.000255315E1	-6.035895348E-1	6.227919102E0	1.100698471E0
1.001095617E1	-7.884350419E-1	4.976472855E0	6.873382926E-1
1.001935919E1	-3.158525825E-1	4.536193371E0	1.607378602E0
1.002776222E1	7.555337548E-1	4.160520554E0	2.231307030E0
1.003616524E1	2.227119684E0	3.693321705E0	7.070791125E-1
1.004456826E1	3.119642496E0	3.933202267E0	-2.793620527E-1
1.005297128E1	3.008974552E0	4.237689018E0	4.384847581E-1
1.006137430E1	2.727219582E0	4.336990833E0	1.043868899E0
1.006977732E1	2.559123755E0	4.537389755E0	8.123632669E-1
1.007818034E1	2.296511650E0	5.053043365E0	6.963114142E-1
1.008658336E1	1.895115495E0	5.409573555E0	5.096712112E-1
1.009498638E1	1.360319614E0	5.377270699E0	2.333002165E-2
1.010338940E1	9.379864931E-1	5.274977684E0	-2.632105052E-1
1.011179242E1	6.418746710E-1	5.090730190E0	-2.446661144E-1
1.012019544E1	6.191428304E-1	4.920241356E0	-2.333002165E-2
1.012859847E1	9.768698215E-1	5.044668198E0	4.486542344E-1
1.013700149E1	1.481755376E0	5.333601475E0	8.027920127E-1
1.014540451E1	2.013560295E0	5.718247890E0	7.776673436E-1
1.015380753E1	2.361117840E0	6.147759438E0	4.642075896E-1
1.016221055E1	2.455035925E0	6.585047722E0	2.991028363E-3
1.017061357E1	2.438286304E0	6.910471916E0	-2.285145670E-1
1.017901659E1	2.432304144E0	7.074978352E0	-2.015953064E-1
1.018741961E1	2.578864574E0	7.222734928E0	-5.264209956E-2
1.019582263E1	2.974876642E0	7.330412388E0	-1.106680483E-1
1.020422565E1	3.448655605E0	7.627122402E0	-1.154536903E-1
1.021262867E1	3.858426571E0	8.074580193E0	-3.463610709E-1
1.022103169E1	4.043870449E0	8.626125336E0	-7.112665176E-1
1.022943472E1	3.798605919E0	9.247062683E0	-8.033902049E-1
1.023783774E1	3.256033421E0	9.808777809E0	-7.064808607E-1
1.024624076E1	2.669193745E0	1.033280659E1	-3.924229145E-1
1.025464378E1	2.234896421E0	1.058465099E1	3.050848842E-2
1.026304680E1	2.166102648E0	1.071087265E1	3.750749528E-1
1.027144982E1	2.403590441E0	1.109970570E1	6.891329288E-1
1.027985284E1	2.451446772E0	1.194317627E1	1.086341500E0
1.028825586E1	2.106282234E0	1.294517040E1	8.500502706E-1
1.029665888E1	1.441675663E0	1.391845131E1	5.760720372E-1
1.030506190E1	8.045865893E-1	1.460638809E1	3.457628787E-1
1.031346492E1	3.326023519E-1	1.488634777E1	1.806581169E-1
1.032186794E1	-2.566302419E-1	1.509332657E1	4.217349887E-1
1.033027096E1	-8.907282352E-1	1.545763397E1	9.852447510E-1
1.033867399E1	-1.042672515E0	1.588295841E1	1.118644595E0
1.034707701E1	-5.850451589E-1	1.634656715E1	1.229312658E0
1.035548003E1	2.416750938E-1	1.656431389E1	8.745766878E-1
1.036388305E1	1.412363529E0	1.613121414E1	4.588237405E-1
1.037228607E1	3.065804005E0	1.518365574E1	2.057827413E-1
1.038068909E1	4.818546772E0	1.391785336E1	6.759724021E-2
1.038909211E1	6.778268337E0	1.253001595E1	-2.506481707E-1
1.039749513E1	8.871988297E0	1.172064304E1	-2.799602449E-1
1.040589815E1	1.023589706E1	1.114935684E1	-6.640082598E-2
1.041430117E1	9.705288887E0	1.024008465E1	9.140582681E-1
1.042270419E1	7.555935860E0	8.886344910E0	2.032702923E0
1.043110722E1	5.247459888E0	7.630113125E0	2.122433662E0
1.043951024E1	3.847060680E0	7.107281685E0	2.100300074E0
1.044791326E1	3.812364578E0	7.411767960E0	1.878365755E0
1.045631628E1	4.895116806E0	8.645268440E0	1.648654819E0
1.046471930E1	6.001199245E0	1.021376324E1	1.524826288E0
1.047312232E1	6.426523209E0	1.153520012E1	1.090528965E0
1.048152534E1	5.724828243E0	1.248395348E1	4.498506486E-1
1.048992836E1	3.681357622E0	1.323530006E1	-1.429711580E-1
1.049833138E1	4.474578202E-1	1.399262905E1	-1.421336651E0
1.050673440E1	-4.301098824E0	1.551685619E1	-3.653840065E0
1.051513742E1	-1.234337521E1	1.648654747E1	-4.191029072E0
1.052354044E1	-2.386541557E1	1.150469112E1	-7.014559746E0
1.053194347E1	-2.619961357E1	6.007181168E0	-9.116654396E0
1.054034649E1	-1.529731560E1	7.746763229E0	-3.960121393E0
1.054874951E1	-3.608974695E0	9.854840279E0	4.007977962E0
1.055715253E1	1.033938694E1	1.408355618E1	7.152745247E0
1.056555555E1	2.138286209E1	1.966959953E1	7.746165276E0
1.057395857E1	2.126561356E1	1.979522324E1	4.819743156E0
1.058236159E1	1.159681511E1	1.366361523E1	-1.564906001E0
1.059076461E1	3.200998545E0	9.726225853E0	-2.946761131E0
1.059916763E1	-3.824927092E0	8.254639626E0	-2.578266263E-1
1.060757065E1	-1.010189915E1	7.649854183E0	2.614158630E0
1.061597367E1	-1.460220051E1	6.433103561E0	3.541377544E0
1.062437669E1	-1.449871063E1	5.401198864E0	1.576870084E0
1.063277972E1	-8.985647202E0	5.790032387E0	-8.464609981E-1
1.064118274E1	-1.757528186E0	8.187042236E0	-1.092921734E0
1.064958576E1	4.164707661E0	1.094836044E1	4.540380836E-1
1.065798878E1	6.748358250E0	1.269272804E1	2.262413740E0
1.066639180E1	4.657629490E0	1.259761333E1	2.796611547E0
1.067479482E1	2.033899277E-1	1.142273712E1	1.193420291E0
1.068319784E1	-3.762713671E0	1.017667484E1	-4.007977843E-1
1.069160086E1	-6.698108673E0	8.950951576E0	-3.511467278E-1
1.070000388E1	-8.012965202E0	7.712067604E0	1.066002488E0
1.070840690E1	-6.736393929E0	7.365108013E0	1.565504193E0
1.071680992E1	-4.305884361E0	8.032107353E0	1.255035520E0
1.072521294E1	-2.440080881E0	8.877969742E0	1.626521230E0
1.073361596E1	-2.261815548E0	9.253643036E0	2.187039852E0
1.074201899E1	-3.247658491E0	9.131608963E0	2.103889227E0
1.075042201E1	-4.157529354E0	8.868398666E0	9.595218897E-1
1.075882503E1	-4.582853794E0	8.769096375E0	7.178468257E-2
1.076722805E1	-4.240081787E0	8.984451294E0	3.774677813E-1
1.077563107E1	-3.159124136E0	9.287740707E0	7.998009920E-1
1.078403409E1	-1.847857237E0	9.565906525E0	9.804590940E-1
1.079243711E1	-1.013958573E0	9.754341125E0	9.655039310E-1
1.080084013E1	-6.538388133E-1	1.001635551E1	1.030708313E0
1.080924315E1	-8.135597110E-1	1.010847950E1	9.337990284E-1
1.081764617E1	-1.089332461E0	1.014078236E1	6.167500615E-1
1.082604919E1	-1.007378340E0	1.016112137E1	2.853440940E-1
1.083445222E1	-5.581258535E-1	1.020000458E1	1.639083475E-1
1.084285524E1	2.691925503E-2	1.038485050E1	5.353940725E-1
1.085125826E1	3.810569942E-1	1.036810017E1	8.691928387E-1
1.085966128E1	4.857429862E-1	1.019282627E1	1.103689432E0
1.086806430E1	8.506484628E-1	1.063729286E1	1.244866014E0
1.087646732E1	9.403793216E-1	1.072941685E1	8.907282352E-1
1.088487034E1	4.564309120E-1	1.034895802E1	1.205982566E0
1.089327336E1	3.152543902E-1	9.926026344E0	1.179661512E0
1.090167638E1	4.019941986E-1	9.790832520E0	1.403390527E0
1.091007940E1	3.930211067E-1	9.850054741E0	1.360319614E0
1.091848242E1	1.351944804E-1	9.934999466E0	1.155733347E0
1.092688544E1	-1.645065546E-1	9.965508461E0	1.186241865E0
1.093528847E1	-3.403790295E-1	9.964909554E0	1.228714466E0
1.094369149E1	-3.786641955E-1	9.931410789E0	1.277169108E0
1.095209451E1	-3.547359705E-1	9.887143135E0	1.281356573E0
1.096049753E1	-3.397808075E-1	9.846465111E0	1.139581800E0
1.096890055E1	-3.254238665E-1	9.769296646E0	1.067198873E0
1.097730357E1	-2.506481707E-1	9.641879082E0	9.661021233E-1
1.098570659E1	-2.536391914E-1	9.593423843E0	8.386843204E-1
1.099410961E1	-2.667997181E-1	9.642477036E0	4.689932466E-1
1.100251263E1	-3.571287692E-1	9.687342644E0	7.357929349E-1
1.101091565E1	-3.583251834E-1	9.639486313E0	8.350951076E-1
1.101931867E1	-3.888336718E-1	9.549157143E0	9.840483069E-1
1.102772169E1	-4.749752879E-1	9.554540634E0	1.057627559E0
1.103612472E1	-5.515456200E-1	9.561120987E0	6.861419082E-1
1.104452774E1	-4.408775866E-1	9.681958199E0	4.414757788E-1
1.105293076E1	-2.153540403E-2	9.918848038E0	-9.212367237E-2
1.106133378E1	3.960121572E-1	1.012044334E1	-1.704886109E-1
1.106973680E1	8.386843204E-1	1.014377308E1	-5.126622319E-1
1.107813982E1	1.104287624E0	1.000139999E1	-9.355936646E-1
1.108654284E1	1.089930773E0	9.717252731E0	-9.541380405E-1
1.109494586E1	5.826523304E-1	9.658628464E0	-2.458625287E-1
1.110334888E1	-3.828516304E-1	1.023828983E1	6.239284873E-1
1.111175190E1	-1.511067510E0	1.132104206E1	1.064207911E0
1.112015492E1	-2.316850424E0	1.224407387E1	1.071984529E0
1.112855794E1	-2.187039852E0	1.244028473E1	7.495517135E-1
1.113696096E1	-1.446461320E0	1.194616699E1	6.155536175E-1
1.114536399E1	-6.933203340E-1	1.141077328E1	7.848458290E-1
1.115376701E1	-4.660021961E-1	1.133719349E1	7.986045480E-1
1.116217003E1	-6.921239495E-1	1.187318611E1	7.334001660E-1
1.117057305E1	-1.314257860E0	1.282672596E1	6.652047038E-1
1.117897607E1	-2.286342144E0	1.412303734E1	7.345965505E-1
1.118737909E1	-3.644867182E0	1.578006744E1	1.205384374E0
1.119578211E1	-5.000401020E0	1.717268944E1	1.425524116E0
1.120418513E1	-5.848058701E0	1.772662926E1	1.274776220E0
1.121258815E1	-6.324828625E0	1.721815300E1	1.481755376E0
1.122099117E1	-6.154938221E0	1.602353668E1	1.184447169E0
1.122939419E1	-5.318048477E0	1.487617874E1	1.067797065E0
1.123779722E1	-3.996612072E0	1.379282761E1	1.042074203E0
1.124620024E1	-1.793420553E0	1.251984596E1	1.505683661E0
1.125460326E1	2.475973129E0	1.215613747E1	7.387840152E-1
1.126300628E1	5.679962635E0	1.408834171E1	2.933600664E0
1.127140930E1	5.583053589E0	1.561735535E1	5.371886730E0
1.127981232E1	3.437887907E0	1.478644753E1	5.435894966E0
1.128821534E1	1.736590981E0	1.266102314E1	4.279563427E0
1.129661836E1	1.577468276E0	1.050688457E1	2.100300074E0
1.130502138E1	2.260020971E0	9.164510727E0	3.864408433E-1
1.131342440E1	2.631506681E0	8.228319168E0	-3.864408433E-1
1.132182742E1	2.450848579E0	7.630113125E0	-3.858426511E-1
1.133023044E1	1.834696770E0	7.384250641E0	7.800601721E-1
1.133863347E1	8.775677085E-1	7.041478634E0	1.490130305E0
1.134703649E1	8.350951076E-1	5.868397713E0	4.163511276E0
1.135543951E1	3.203391314E0	4.653441906E0	2.319243431E0
1.136384253E1	4.856831551E0	4.469194412E0	-1.021137118E0
1.137224555E1	4.622933388E0	4.652245522E0	-3.238087177E0
1.138064857E1	2.908475876E0	4.653441906E0	-1.688136339E0
1.138905159E1	1.301695466E0	4.210769653E0	4.594219327E-1
1.139745461E1	5.575276613E-1	3.595814228E0	9.332008362E-1
1.140585763E1	7.621139884E-1	3.668795347E0	7.411768436E-1
1.141426065E1	1.477568030E0	4.198207378E0	3.948157430E-1
1.142266367E1	2.238485575E0	4.911268711E0	7.716853172E-2
1.143106669E1	2.360519648E0	5.377270699E0	-3.278166950E-1
1.143946972E1	1.947757602E0	5.538786411E0	-3.954139352E-1
1.144787274E1	1.509272933E0	5.579464436E0	-2.338984162E-1
1.145627576E1	1.395613790E0	5.763711452E0	7.058826834E-2
1.146467878E1	1.369292736E0	5.912664890E0	1.016949639E-1
1.147308180E1	1.241276741E0	5.900102615E0	-4.965107143E-2
1.148148482E1	1.142572761E0	5.833701611E0	-3.110669553E-1
1.148988784E1	1.284347534E0	6.013761520E0	-4.546363056E-1
1.149829086E1	1.734198213E0	6.452246189E0	-3.523431420E-1
1.150669388E1	2.446661234E0	7.001997471E0	-3.074777126E-1
1.151509690E1	3.065205812E0	7.460821152E0	-2.679961324E-1
1.152349992E1	3.366701365E0	7.850851059E0	-5.802594870E-2
1.153190294E1	3.410370588E0	8.074580193E0	-9.332008660E-2
1.154030596E1	3.361317635E0	8.241478920E0	-3.230310678E-1
1.154870899E1	3.228515863E0	8.434102058E0	-4.719842672E-1
1.155711201E1	3.134597778E0	8.680562019E0	-5.066801906E-1
1.156551503E1	3.019144058E0	8.938986778E0	-5.060819983E-1
1.157391805E1	2.755933523E0	9.195018768E0	-3.738785386E-1
1.158232107E1	2.468794823E0	9.597013474E0	-2.542374134E-1
1.159072409E1	2.127219439E0	9.981060982E0	-1.561316848E-1
1.159912711E1	1.838286042E0	1.044826031E1	-1.118644550E-1
1.160753013E1	1.611566067E0	1.111884880E1	-6.041877344E-2
1.161593315E1	1.333998680E0	1.180140114E1	-1.423729509E-1
1.162433617E1	9.541380405E-1	1.247019482E1	-1.698904037E-1
1.163273919E1	4.612165689E-1	1.316231918E1	1.016949583E-2
1.164114222E1	1.016949583E-2	1.377129269E1	4.486542568E-2
1.164954524E1	-2.943171859E-1	1.440359592E1	-5.084748194E-2
1.165794826E1	-4.133601189E-1	1.507657719E1	-1.256231815E-1
1.166635128E1	-1.609173268E-1	1.570110416E1	-2.452643216E-2
1.167475430E1	3.523431420E-1	1.602353668E1	2.632105052E-1
1.168315732E1	1.125224829E0	1.586142349E1	6.640082598E-1
1.169156034E1	2.407179594E0	1.558445358E1	8.195417523E-1
1.169996336E1	3.952344894E0	1.543191147E1	8.560323119E-1
1.170836638E1	5.585446358E0	1.530150223E1	4.516452849E-1
1.171676940E1	6.839285374E0	1.483609867E1	-4.336991012E-1
1.172517242E1	7.437490940E0	1.389392471E1	-8.793623447E-1
1.173357544E1	7.782655716E0	1.234636688E1	-7.722834945E-1
1.174197846E1	8.117053032E0	1.057627583E1	-3.894318938E-1
1.175038149E1	8.365905762E0	9.193822861E0	6.484549642E-1
1.175878451E1	8.665607452E0	8.258229256E0	1.994417667E0
1.176718753E1	8.316853523E0	7.928019524E0	2.829512835E0
1.177559055E1	7.235895634E0	8.236693382E0	2.744567633E0
1.178399357E1	6.398407936E0	9.077771187E0	1.813759565E0
1.179239659E1	6.445665836E0	1.037647533E1	1.180858016E0
1.180079961E1	6.618547440E0	1.167996597E1	1.149153113E0
1.180920263E1	6.105885029E0	1.247079372E1	1.386042476E0
1.181760565E1	4.522434711E0	1.246361542E1	1.547558069E0
1.182600867E1	1.987837434E0	1.242712402E1	9.020941257E-1
1.183441169E1	-1.691725612E0	1.365524101E1	-3.290131092E-1
1.184281472E1	-7.551149845E0	1.714158249E1	-1.540977836E0
1.185121774E1	-1.954158401E1	1.793420601E1	-1.115653515E0
1.185962076E1	-3.127478981E1	1.223749352E1	-2.231307030E0
1.186802378E1	-2.422972298E1	1.010548782E1	-1.858624935E0
1.187642680E1	-8.726025581E0	8.547162056E0	2.769692242E-1
1.188482982E1	7.898109436E0	9.869794846E0	7.896314561E-2
1.189323284E1	2.429313278E1	1.605224991E1	-1.576870084E0
1.190163586E1	2.392045021E1	1.773261070E1	-2.120040894E0
1.191003888E1	8.965906143E0	1.195155048E1	-5.006981492E-1
1.191844190E1	-3.210569859E0	8.749356270E0	2.306082726E0
1.192684492E1	-1.168893814E1	7.929814339E0	4.939383984E0
1.193524794E1	-1.479123306E1	6.892525673E0	1.851446509E0
1.194365097E1	-1.220698452E1	6.233901024E0	-2.498106956E0
1.195205399E1	-7.271189690E0	6.951747894E0	6.807580590E-1
1.196045701E1	-2.410768747E0	7.921439171E0	4.271786690E0
1.196886003E1	1.709671736E0	9.099306107E0	4.012763500E0
1.197726305E1	3.985246181E0	1.064088249E1	2.503490686E0
1.198566607E1	3.211168051E0	1.148794174E1	5.539384484E-1
1.199406909E1	-1.328016520E-1	1.121276665E1	-1.854437590E-2
1.200247211E1	-3.165106058E0	1.038185883E1	3.194418252E-1
1.201087513E1	-4.571487427E0	9.365508080E0	1.501496136E-1
1.201927815E1	-4.460819721E0	8.729615211E0	1.728814393E-1
1.202768117E1	-3.378665686E0	8.868997574E0	8.386843204E-1
1.203608419E1	-2.249851465E0	9.356534958E0	1.657029629E0
1.204448722E1	-1.369890928E0	9.908080101E0	1.235294700E0
1.205289024E1	-8.596215248E-1	1.038963604E1	5.569294691E-1
1.206129326E1	-1.010369420E0	1.041176987E1	8.171489239E-1
1.206969628E1	-1.704287887E0	1.000977516E1	1.326820135E0
1.207809930E1	-2.450848579E0	9.421140671E0	1.291526079E0
1.208650232E1	-2.778067112E0	8.931210518E0	1.177268744E0
1.209490534E1	-2.588435888E0	8.885149002E0	1.296311617E0
1.210330836E1	-2.311466694E0	9.102895737E0	1.395613790E0
1.211171138E1	-2.091925144E0	9.388239861E0	1.393819213E0
1.212011440E1	-1.772483349E0	9.619147301E0	1.210170031E0
1.212851742E1	-1.414158225E0	9.808179855E0	9.672985673E-1
1.213692044E1	-1.144367456E0	1.002114105E1	7.770691514E-1
1.214532346E1	-8.775677085E-1	1.017727280E1	7.160521746E-1
1.215372649E1	-6.400800347E-1	1.026760197E1	6.813562512E-1
1.216212951E1	-4.923232496E-1	1.023470020E1	7.728816867E-1
1.217053253E1	-4.642075896E-1	1.008754253E1	9.565308690E-1
1.217893555E1	-5.449653864E-1	9.904491425E0	1.000199914E0
1.218733857E1	-6.317051649E-1	9.750154495E0	9.553344250E-1
1.219574159E1	-5.874379873E-1	9.707083702E0	9.008977413E-1
1.220414461E1	-3.912265003E-1	9.754940033E0	8.829515576E-1
1.221254763E1	-1.962114573E-1	9.832706451E0	7.746763229E-1
1.222095065E1	-1.268195957E-1	9.893723488E0	9.284151793E-1
1.222935367E1	-1.698904037E-1	9.943972588E0	1.248455167E0
1.223775669E1	-2.745763958E-1	9.918848038E0	1.378864050E0
1.224615972E1	-3.140579760E-1	9.802198410E0	1.272383451E0
1.225456274E1	-3.714857101E-1	9.688538551E0	1.147956610E0
1.226296576E1	-4.624129832E-1	9.592227936E0	1.158126116E0
1.227136878E1	-5.126622319E-1	9.582656860E0	1.049850941E0
1.227977180E1	-4.845465720E-1	9.616155624E0	9.463613629E-1
1.228817482E1	-3.780659735E-1	9.613762856E0	9.876375198E-1
1.229657784E1	-2.955136001E-1	9.494122505E0	1.010369420E0
1.230498086E1	-2.297109663E-1	9.339784622E0	9.804590940E-1
1.231338388E1	5.623133108E-2	9.683155060E0	1.220339537E0
1.232178690E1	3.248256743E-1	9.827322960E0	7.046862841E-1
1.233018992E1	1.525424421E-1	9.770493507E0	7.345965505E-1
1.233859294E1	6.759724021E-2	9.587442398E0	7.034898400E-1
1.234699597E1	2.099701911E-1	9.488738060E0	5.928218365E-1
1.235539899E1	4.325026870E-1	9.631111145E0	6.263213158E-1
1.236380201E1	3.672982752E-1	9.821340561E0	8.003991842E-1
1.237220503E1	1.615155339E-1	1.006540871E1	6.759724021E-1
1.238060805E1	7.178467698E-3	1.013001442E1	4.893322289E-1
1.238901107E1	2.392822690E-2	1.003908730E1	4.695914388E-1
1.239741409E1	4.127619043E-2	9.909276962E0	2.063809484E-1
1.240581711E1	3.708875179E-2	9.786046028E0	-8.374879509E-2
1.241422013E1	1.830509305E-1	9.721440315E0	-6.544370055E-1
1.242262315E1	4.462614357E-1	9.682557106E0	-9.487541914E-1
1.243102617E1	6.640082598E-1	9.796813965E0	-6.568298340E-1
1.243942919E1	5.982056856E-1	1.034656525E1	1.465603858E-1
1.244783222E1	7.178467698E-3	1.130728340E1	9.032905698E-1
1.245623524E1	-7.274180651E-1	1.215793228E1	1.152742267E0
1.246463826E1	-9.960124493E-1	1.235713387E1	9.320043921E-1
1.247304128E1	-7.106683254E-1	1.176730347E1	7.663014531E-1
1.248144430E1	-2.165504545E-1	1.106201935E1	9.960124493E-1
1.248984732E1	1.196411327E-1	1.087059307E1	1.162911773E0
1.249825034E1	1.627119333E-1	1.145384407E1	1.231705427E0
1.250665336E1	-1.339980662E-1	1.272503090E1	1.377069473E0
1.251505638E1	-7.639086246E-1	1.441675663E1	1.599003673E0
1.252345940E1	-1.701895118E0	1.596072483E1	1.731207132E0
1.253186242E1	-3.216551781E0	1.627239037E1	1.445863128E0
1.254026544E1	-5.132006168E0	1.528834248E1	1.116850019E0
1.254866846E1	-6.395416737E0	1.386640739E1	6.329016089E-1
1.255707149E1	-6.370890141E0	1.284646702E1	7.980063558E-1
1.256547451E1	-4.912465096E0	1.258265781E1	2.060220242E0
1.257387753E1	-1.828116536E0	1.265205002E1	1.983051777E0
1.258228055E1	2.060818434E0	1.301994610E1	2.151745796E0
1.259068357E1	5.772684574E0	1.419422436E1	2.739183664E0
1.259908659E1	7.223931789E0	1.652243996E1	4.704887390E0
1.260748961E1	4.912465096E0	1.783609962E1	3.960719585E0
1.261589263E1	6.167500615E-1	1.677607918E1	1.429113269E0
1.262429565E1	-3.153141975E0	1.412961769E1	1.325025558E0
1.263269867E1	-3.928416491E0	1.134497070E1	1.658824325E0
1.264110169E1	-2.067996979E0	9.498908043E0	1.308275819E0
1.264950472E1	6.969096065E-1	8.779266357E0	1.558325768E0
1.265790774E1	3.027518749E0	8.729615211E0	1.950748682E0
1.266631076E1	3.963710785E0	8.727820396E0	2.274976015E0
1.267471378E1	3.522833109E0	8.621937752E0	1.935195327E0
1.268311680E1	2.285145521E0	8.176275253E0	1.758724600E-1
1.269151982E1	6.538388133E-1	7.893323898E0	-2.099701911E-1
1.269992284E1	2.805584669E-1	6.483353138E0	2.050648928E0
1.270832586E1	2.459223509E0	5.487340450E0	1.596012712E0
1.271672888E1	3.867399693E0	5.233103275E0	-1.718644857E0
1.272513190E1	3.027518749E0	5.320441246E0	-2.275574446E0
1.273353492E1	1.241874933E0	4.762913704E0	-6.364908218E-1
1.274193794E1	9.092725813E-2	3.952344894E0	8.213363886E-1
1.275034097E1	1.872383654E-1	3.782454491E0	1.218544960E0
1.275874399E1	9.421738982E-1	3.893720627E0	8.452646136E-1
1.276714701E1	1.827518344E0	4.162913322E0	7.447660565E-1
1.277555003E1	2.294118643E0	4.488935471E0	6.771687865E-1
1.278395305E1	2.021337032E0	4.608576298E0	4.671986103E-1
1.279235607E1	1.408176184E0	4.600201607E0	3.846462369E-1
1.280075909E1	8.632107973E-1	4.625924587E0	5.294120312E-1
1.280916211E1	7.256234884E-1	4.735395908E0	6.346961856E-1
1.281756513E1	8.560323119E-1	4.836492538E0	5.120640397E-1
1.282596815E1	1.235294700E0	4.920839787E0	3.625126183E-1
1.283437117E1	1.683350682E0	5.132006168E0	4.630111754E-1
1.284277419E1	2.088335991E0	5.559125423E0	6.071787477E-1
1.285117722E1	2.251047850E0	6.036493301E0	6.005984545E-1
1.285958024E1	2.084746838E0	6.416353703E0	6.017948985E-1
1.286798326E1	1.779661894E0	6.658029079E0	7.142575383E-1
1.287638628E1	1.641476393E0	6.845865726E0	7.579265833E-1
1.288478930E1	1.791027784E0	7.128218651E0	7.902296782E-1
1.289319232E1	2.081755638E0	7.629515171E0	8.344969153E-1
1.290159534E1	2.266601324E0	8.231907845E0	7.477570772E-1
1.290999836E1	2.307279348E0	8.967700958E0	6.903293133E-1
1.291840138E1	2.210369825E0	9.707083702E0	7.872386575E-1
1.292680440E1	2.039283037E0	1.034177971E1	7.800601721E-1
1.293520742E1	1.716850281E0	1.076112175E1	8.715856671E-1
1.294361044E1	1.386640668E0	1.117328548E1	1.070189953E0
1.295201346E1	1.220937729E0	1.162911797E1	1.319641709E0
1.296041649E1	1.470389485E0	1.233978653E1	1.559522152E0
1.296881951E1	1.902892232E0	1.352483177E1	1.673181176E0
1.297722253E1	2.090130568E0	1.486242008E1	1.473380566E0
1.298562555E1	1.811964989E0	1.602593040E1	1.132403374E0
1.299402857E1	1.252642632E0	1.667378616E1	8.225327730E-1
1.300243159E1	7.782655358E-1	1.681077576E1	4.648058116E-1
1.301083461E1	4.492524564E-1	1.683769417E1	8.673982024E-1
1.301923763E1	5.665007830E-1	1.667079544E1	9.661021233E-1
1.302764065E1	1.558923960E0	1.666421509E1	7.974081635E-1
1.303604367E1	3.208176851E0	1.673300934E1	6.263213158E-1
1.304444669E1	4.885545731E0	1.644347763E1	1.579262912E-1
1.305284972E1	6.164509296E0	1.547857189E1	-8.183453679E-1
1.306125274E1	7.137191772E0	1.416670609E1	-5.802595019E-1
1.306965576E1	8.079365730E0	1.279382420E1	-2.907279432E-1
1.307805878E1	8.280961037E0	1.154835987E1	-7.441678643E-1
1.308646180E1	7.490731239E0	1.058225822E1	-9.643075466E-1
1.309486482E1	6.315257072E0	9.714262009E0	-3.176472187E-1
1.310326784E1	5.428118229E0	8.711668968E0	3.577269912E-1
1.311167086E1	5.285147190E0	7.615158081E0	7.148557901E-1
1.312007388E1	5.508277893E0	7.062416077E0	1.496710539E0
1.312847690E1	5.656632900E0	7.282555580E0	2.071586132E0
1.313687992E1	5.716453075E0	8.352746010E0	1.711466432E0
1.314528294E1	5.630311489E0	1.003669453E1	1.098305583E0
1.315368597E1	5.436492920E0	1.148674488E1	6.370890141E-1
1.316208899E1	5.211567879E0	1.211007500E1	5.413761139E-1
1.317049201E1	4.998606682E0	1.194796181E1	5.162515044E-1
1.317889503E1	4.344767570E0	1.150110245E1	9.810572863E-2
1.318729805E1	2.850450039E0	1.156211948E1	-7.166503668E-1
1.319570107E1	6.161518395E-2	1.353081417E1	-2.705684185E0
1.320410409E1	-5.931807518E0	1.897986984E1	-3.016152859E0
1.321250711E1	-1.848216248E1	2.033061790E1	-6.616154313E-1
1.322091013E1	-2.972005272E1	1.428993702E1	-1.955534339E0
1.322931315E1	-1.762732697E1	1.226501083E1	-9.505487680E-1
1.323771617E1	-2.051247120E0	1.006421185E1	2.133799553E0
1.324611919E1	1.504188156E1	1.192881870E1	1.061815023E0
1.325452222E1	2.590649223E1	1.573819256E1	-1.466202021E0
1.326292524E1	1.607976723E1	1.388495159E1	-3.191427231E0
1.327132826E1	2.036292076E0	1.062772179E1	-2.063809633E0
1.327973128E1	-9.696315765E0	9.489934921E0	3.333201885E0
1.328813430E1	-1.570529175E1	8.119445801E0	5.356333256E0
1.329653732E1	-1.342433357E1	6.045466423E0	8.045865893E-1
1.330494034E1	-8.983254433E0	5.240281582E0	-4.923232496E-1
1.331334336E1	-4.439882278E0	6.281757832E0	2.062613010E0
1.332174638E1	-4.689932466E-1	7.987242222E0	3.771088600E0
1.333014940E1	1.888535261E0	1.002473068E1	4.222733974E0
1.333855242E1	1.645065546E0	1.120020485E1	1.981855392E0
1.334695544E1	-5.988038778E-1	1.116132164E1	-7.453642488E-1
1.335535846E1	-3.196212769E0	1.042253685E1	6.580262445E-3
1.336376149E1	-4.296313286E0	9.594022751E0	9.553344250E-1
1.337216451E1	-3.474976778E0	8.990432739E0	4.755735099E-1
1.338056753E1	-1.880160451E0	9.218349457E0	5.856433511E-1
1.338897055E1	-1.040877819E0	9.689137459E0	1.803590059E0
1.339737357E1	-7.238288522E-1	1.000738239E1	2.299502611E0
1.340577659E1	-9.320043921E-1	1.016949654E1	1.680957913E0
1.341417961E1	-1.747956991E0	1.015454102E1	8.255237937E-1
1.342258263E1	-2.603989124E0	9.900303841E0	9.876375198E-1
1.343098565E1	-2.880360365E0	9.516854286E0	1.540379524E0
1.343938867E1	-2.315654039E0	9.299106598E0	9.475577474E-1
1.344779169E1	-1.357328653E0	9.457033157E0	9.625129104E-1
1.345619472E1	-4.755735099E-1	9.740582466E0	1.278365493E0
1.346459774E1	3.469592705E-2	1.002951622E1	1.013360381E0
1.347300076E1	8.733802289E-2	1.015932655E1	7.603194118E-1
1.348140378E1	-3.110669367E-2	1.022393322E1	7.914260626E-1
1.348980680E1	-1.429711580E-1	1.021077251E1	7.639086246E-1
1.349820982E1	-3.529413342E-1	9.625128746E0	7.770691514E-1
1.350661284E1	-2.267199457E-1	1.005165005E1	1.420738459E0
1.351501586E1	3.613162339E-1	1.048056316E1	6.035895348E-1
1.352341888E1	3.332005441E-1	1.059482002E1	4.654040039E-1
1.353182190E1	6.819544733E-2	1.025922680E1	9.451649189E-1
1.354022492E1	2.285145670E-1	9.914660454E0	8.955138922E-1
1.354862794E1	4.420739710E-1	9.753743172E0	1.004387259E0
1.355703097E1	4.552344978E-1	9.698110580E0	1.131805062E0
1.356543399E1	3.038884699E-1	9.679565430E0	1.163509965E0
1.357383701E1	1.902294010E-1	9.692726135E0	1.225723386E0
1.358224003E1	1.531406492E-1	9.683753014E0	1.261017561E0
1.359064305E1	1.328016520E-1	9.680164337E0	1.297508121E0
1.359904607E1	7.776673883E-2	9.703494072E0	1.240080357E0
1.360744909E1	-3.589234129E-2	9.707681656E0	1.229312658E0
1.361585211E1	-1.250249892E-1	9.654440880E0	1.202393413E0
1.362425513E1	-1.160518974E-1	9.585049629E0	1.133599758E0
1.363265815E1	-4.725824669E-2	9.564710617E0	1.063609719E0
1.364106117E1	-1.674975827E-2	9.604789734E0	8.967102766E-1
1.364946419E1	1.794617064E-2	9.627521515E0	8.147560954E-1
1.365786722E1	1.166501045E-1	9.601799011E0	5.479564071E-1
1.366627024E1	2.584248483E-1	9.573683739E0	3.870390654E-1
1.367467326E1	2.889333367E-1	9.600603104E0	2.703889608E-1
1.368307628E1	7.118647546E-2	9.689137459E0	1.316052526E-1
1.369147930E1	-1.339980662E-1	9.818349838E0	2.099701911E-1
1.369988232E1	-2.153540403E-1	9.947562218E0	3.565305769E-1
1.370828534E1	-1.417747438E-1	1.003370380E1	2.386840582E-1
1.371668836E1	8.374879137E-3	1.000020409E1	1.459621787E-1
1.372509138E1	2.781656384E-1	9.982257843E0	-9.870393574E-2
1.373349440E1	5.772684813E-1	9.962516785E0	-5.778666735E-1
1.374189742E1	6.915257573E-1	9.784252167E0	-9.631111026E-1
1.375030044E1	5.144568682E-1	9.574281693E0	-6.370890141E-1
1.375870347E1	-1.100698411E-1	9.990034103E0	4.492524564E-1
1.376710649E1	-1.269392371E0	1.100997543E1	1.503889084E0
1.377550951E1	-2.432304144E0	1.214776230E1	1.846062660E0
1.378391253E1	-2.940778971E0	1.268196011E1	1.649253011E0
1.379231555E1	-2.624926329E0	1.242174053E1	1.327418327E0
1.380071857E1	-1.790429592E0	1.173081303E1	1.170688510E0
1.380912159E1	-1.099501967E0	1.131446171E1	1.069591761E0
1.381752461E1	-8.015955687E-1	1.175474167E1	1.014556766E0
1.382592763E1	-1.018146038E0	1.312104321E1	8.775677085E-1
1.383433065E1	-1.973480463E0	1.521536064E1	1.122233868E0
1.384273367E1	-3.346362352E0	1.704527283E1	1.229312658E0
1.385113669E1	-4.720440865E0	1.760519218E1	9.254241586E-1
1.385953972E1	-5.846263885E0	1.690529251E1	1.006780148E0
1.386794274E1	-6.570092678E0	1.573759460E1	1.338186026E0
1.387634576E1	-6.551548481E0	1.430907917E1	1.063011408E0
1.388474878E1	-5.313860893E0	1.314377499E1	7.866404653E-1
1.389315180E1	-2.854637384E0	1.211904812E1	1.913659930E0
1.390155482E1	1.743171334E0	1.118106174E1	1.280758262E0
1.390995784E1	6.608377934E0	1.315872955E1	3.161516905E0
1.391836086E1	8.341978073E0	1.598884106E1	5.788836002E0
1.392676388E1	5.755934715E0	1.637647820E1	5.220541000E0
1.393516690E1	1.741974831E0	1.432822227E1	3.791427374E0
1.394356992E1	-3.326023519E-1	1.194676495E1	2.678765059E0
1.395197294E1	3.900300860E-1	1.046979523E1	8.087740541E-1
1.396037596E1	1.826321840E0	9.855438232E0	-1.411765367E-1
1.396877899E1	2.028515339E0	9.208778381E0	1.339980662E-1
1.397718201E1	1.141376376E0	8.226524353E0	1.102493048E0
1.398558503E1	2.811566554E-2	7.183851719E0	1.657029629E0
1.399398805E1	-7.244270444E-1	5.864210129E0	1.221535921E0
1.400239107E1	-5.688936114E-1	4.639683247E0	4.492524564E-1
1.401079409E1	4.390829504E-1	4.453640938E0	5.365904570E-1
1.401919711E1	1.552941918E0	4.554738045E0	2.151745796E0
1.402760013E1	2.889333248E0	4.377668858E0	8.847461939E-1
1.403600315E1	3.672982693E0	4.341178417E0	-1.232901812E0
1.404440617E1	3.586841106E0	4.619942188E0	-8.638089895E-1
1.405280919E1	3.498904943E0	5.052444935E0	3.320041299E-1
1.406121222E1	3.648456335E0	5.248656273E0	1.992024779E-1
1.406961524E1	3.437289715E0	5.615954876E0	-1.734796353E-2
1.407801826E1	2.541177750E0	5.809175014E0	-2.506481707E-1
1.408642128E1	1.366301775E0	5.633302689E0	-6.771687865E-1
1.409482430E1	2.817548811E-1	5.277370453E0	-6.616154313E-1
1.410322732E1	-3.822534084E-1	4.880161762E0	-9.571290761E-2
1.411163034E1	-2.895315289E-1	4.682155609E0	5.844469070E-1
1.412003336E1	2.715853751E-1	4.628317356E0	7.531409264E-1
1.412843638E1	9.583254457E-1	4.902295589E0	5.138586760E-1
1.413683940E1	1.502094388E0	5.590830326E0	4.965107143E-2
1.414524242E1	1.529611826E0	6.174080849E0	-4.366901219E-1
1.415364544E1	1.365703583E0	6.698108673E0	-5.144568682E-1
1.416204847E1	1.268195987E0	6.851847649E0	-7.268198729E-1
1.417045149E1	1.522433400E0	6.911069870E0	-6.807580590E-1
1.417885451E1	2.190030813E0	7.018148899E0	-6.675975323E-1
1.418725753E1	2.993421078E0	7.315456867E0	-8.596215248E-1
1.419566055E1	3.590430260E0	7.799405575E0	-8.751748800E-1
1.420406357E1	3.845266104E0	8.462815285E0	-9.708877802E-1
1.421246659E1	3.609572887E0	9.286544800E0	-1.220937729E0
1.422086961E1	2.950948477E0	1.013599682E1	-1.103689432E0
1.422927263E1	2.315055847E0	1.075633621E1	-9.254241586E-1
1.423767565E1	2.051247120E0	1.129831028E1	-9.248259664E-1
1.424607867E1	2.005783558E0	1.190309620E1	-7.244270444E-1
1.425448169E1	2.047657967E0	1.253061390E1	-6.454638839E-1
1.426288472E1	2.142174482E0	1.336870003E1	-5.060819983E-1
1.427128774E1	2.210369825E0	1.440539074E1	-2.476571500E-1
1.427969076E1	2.160718918E0	1.547199154E1	-2.231307179E-1
1.428809378E1	1.791027784E0	1.624905968E1	-3.194418252E-1
1.429649680E1	1.287936807E0	1.658166313E1	-1.316052489E-2
1.430489982E1	1.051645517E0	1.684427452E1	3.834498227E-1
1.431330284E1	1.146162033E0	1.748256111E1	4.851447940E-1
1.432170586E1	1.447059512E0	1.820399666E1	5.778666735E-1
1.433010888E1	2.336591244E0	1.815015793E1	7.393822074E-1
1.433851190E1	4.125226021E0	1.689631844E1	-9.631111473E-2
1.434691492E1	6.145366669E0	1.535653782E1	-1.060020447E0
1.435531794E1	7.810173035E0	1.401356602E1	-1.207179070E0
1.436372096E1	8.891130447E0	1.288654613E1	-6.149554253E-1
1.437212399E1	9.393623352E0	1.182114220E1	-9.631111473E-2
1.438052701E1	9.090332985E0	1.095434189E1	-1.794616925E-3
1.438893003E1	7.818548203E0	1.032921696E1	1.202393398E-1
1.439733305E1	5.991627693E0	9.409774780E0	4.211367965E-1
1.440573607E1	4.418945312E0	8.096714020E0	1.603191197E-1
1.441413909E1	4.022335052E0	7.273582458E0	9.828519225E-1
1.442254211E1	5.001597404E0	7.433303356E0	2.043470621E0
1.443094513E1	6.358327866E0	8.593224525E0	1.853241086E0
1.443934815E1	6.756134510E0	1.027478027E1	1.164108157E0
1.444775117E1	6.064010620E0	1.174636650E1	7.627122402E-1
1.445615419E1	4.752145767E0	1.271306705E1	8.093722463E-1
1.446455722E1	3.139383316E0	1.269212914E1	1.114457130E0
1.447296024E1	1.581057549E0	1.173380375E1	8.907282352E-1
1.448136326E1	9.332008660E-2	1.070249748E1	7.513462901E-1
1.448976628E1	-1.531406522E0	1.120379353E1	2.548356056E-1
1.449816930E1	-5.072783947E0	1.451964760E1	-1.129412293E0
1.450657232E1	-1.424985695E1	1.594517231E1	-7.190431952E-1
1.451497534E1	-2.824009323E1	9.835099220E0	-2.948555708E0
1.452337836E1	-2.959502792E1	5.617749214E0	-7.085746288E0
1.453178138E1	-1.690768433E1	5.809773445E0	-1.313061476E0
1.454018440E1	-2.876172781E0	8.080561638E0	4.636094093E0
1.454858742E1	1.604148293E1	1.440120316E1	5.573482037E0
1.455699044E1	2.795175743E1	2.162094688E1	6.156732559E0
1.456539347E1	2.247757721E1	2.032822418E1	2.820539713E0
1.457379649E1	8.705686569E0	1.289073372E1	-4.013959885E0
1.458219951E1	-2.130808592E0	8.657830238E0	-3.095714331E0
1.459060253E1	-1.022034359E1	6.996613503E0	1.445264935E0
1.459900555E1	-1.510588932E1	5.939583778E0	1.633699656E0
1.460740857E1	-1.645603943E1	5.545964718E0	1.131805062E0
1.461581159E1	-1.264307690E1	5.981458187E0	9.637092948E-1
1.462421461E1	-5.913262844E0	7.338188648E0	6.448656917E-1
1.463261763E1	2.201396823E-1	9.342177391E0	8.668000102E-1
1.464102065E1	4.226921082E0	1.115234852E1	2.136192322E0
1.464942367E1	4.151547432E0	1.146760273E1	3.806980848E0
1.465782669E1	7.489534616E-1	1.051525879E1	2.658426046E0
1.466622972E1	-2.761317253E0	9.507881165E0	-3.804588020E-1
1.467463274E1	-5.194818020E0	8.993423462E0	-1.115653515E0
1.468303576E1	-5.776872158E0	8.827720642E0	2.273181528E-1
1.469143878E1	-4.269393921E0	9.101698875E0	9.332008362E-1
1.469984180E1	-2.069193363E0	9.699904442E0	9.738788009E-1
1.470824482E1	-5.006981492E-1	1.009890842E1	1.488335729E0
1.471664784E1	-5.623133108E-2	1.014257717E1	1.802393675E0
1.472505086E1	-4.935196638E-1	9.990633011E0	1.645663738E0
1.473345388E1	-1.426122308E0	9.745368004E0	6.610172391E-1
1.474185690E1	-2.279761791E0	9.457631111E0	8.673982322E-2
1.475025992E1	-2.541177750E0	9.367900848E0	3.541377485E-1
1.475866294E1	-2.203191519E0	9.366703987E0	5.575276613E-1
1.476706596E1	-1.473380566E0	9.430113792E0	7.100701332E-1
1.477546899E1	-8.584251404E-1	9.537791252E0	1.164706469E0
1.478387201E1	-4.636093974E-1	9.574879646E0	1.438086390E0
1.479227503E1	-2.679961324E-1	9.665208817E0	1.277767301E0
1.480067805E1	-2.895315289E-1	9.856036186E0	8.333004713E-1
1.480908107E1	-3.266202807E-1	1.003609657E1	6.592226624E-1
1.481748409E1	-1.758724600E-1	1.019162941E1	5.563312769E-1
1.482588711E1	1.429711580E-1	1.031486034E1	5.605186820E-1
1.483429013E1	4.402793646E-1	1.031127071E1	5.539384484E-1
1.484269315E1	6.448656917E-1	1.024187946E1	7.154539824E-1
1.485109617E1	7.232306600E-1	1.009591675E1	9.607182741E-1
1.485949919E1	7.196413875E-1	9.962516785E0	1.025922656E0
1.486790222E1	6.412764788E-1	9.889535904E0	1.031306505E0
1.487630524E1	4.552344978E-1	9.841081619E0	1.111466169E0
1.488470826E1	1.902294010E-1	9.787840843E0	1.006780148E0
1.489311128E1	-2.871387079E-2	9.769894600E0	1.021137118E0
1.490151430E1	-1.495514214E-1	9.685547829E0	1.054038405E0
1.490991732E1	-1.968096644E-1	9.576674461E0	8.117650747E-1
1.491832034E1	-1.752742529E-1	9.568898201E0	7.501499057E-1
1.492672336E1	-7.537391037E-2	9.687940598E0	9.990034699E-1
1.493512638E1	6.221338734E-2	9.849455833E0	9.780662656E-1
1.494352940E1	7.417750359E-2	9.996614456E0	8.793623447E-1
1.495193242E1	-2.811566554E-2	1.000020409E1	8.697910309E-1
1.496033544E1	-8.673982322E-2	9.909276962E0	6.622136831E-1
1.496873847E1	-1.471585929E-1	9.779465675E0	5.599204898E-1
1.497714149E1	-9.332008660E-2	9.754940033E0	3.762713671E-1
1.498554451E1	-1.543370634E-1	9.774082184E0	3.355933726E-1
1.499394753E1	-2.817548811E-1	9.790233612E0	2.949153781E-1
1.500235055E1	-4.001995921E-1	9.925428391E0	1.519442350E-1
1.501075357E1	-5.024927258E-1	1.026341438E1	2.973082066E-1
1.501915659E1	-3.726821244E-1	1.057268715E1	4.666004330E-2
1.502755961E1	-1.375873014E-2	1.068634605E1	-1.914258152E-1
1.503596263E1	5.617151260E-1	1.034058285E1	-6.011967063E-1
1.504436565E1	1.136590719E0	9.588638306E0	-9.134600163E-1
1.505276867E1	1.356730461E0	9.001200676E0	-1.104287624E0
1.506117169E1	8.380861282E-1	9.067003250E0	-3.182454109E-1
1.506957472E1	-2.614158690E-1	1.004387283E1	5.647061467E-1
1.507797774E1	-1.429113269E0	1.147119141E1	1.182652593E0
1.508638076E1	-2.150549412E0	1.255334568E1	1.201196909E0
1.509478378E1	-2.046461582E0	1.280698490E1	1.147358418E0
1.510318680E1	-1.263410330E0	1.221296692E1	1.150349498E0
1.511158982E1	-3.517449200E-1	1.154536915E1	1.144965649E0
1.511999284E1	2.943171859E-1	1.118764210E1	1.000199914E0
1.512839586E1	4.827519655E-1	1.138804150E1	7.896314859E-1
1.513679888E1	1.531406492E-1	1.196351528E1	6.556333899E-1
1.514520190E1	-8.189435601E-1	1.262572861E1	7.663014531E-1
1.515360492E1	-1.992024899E0	1.324367523E1	6.879364848E-1
1.516200794E1	-2.983251572E0	1.431446362E1	1.204187989E0
1.517041096E1	-3.747758389E0	1.553420448E1	1.534995675E0
1.517881399E1	-4.530809879E0	1.626820374E1	1.831705689E0
1.518721701E1	-5.417350292E0	1.604088402E1	2.288136721E0
1.519562003E1	-6.004788399E0	1.508076477E1	2.455634356E0
1.520402305E1	-6.047859192E0	1.428634739E1	2.630310297E0
1.521242607E1	-5.106881618E0	1.355593872E1	1.894517303E0
1.522082909E1	-2.990430117E0	1.285902882E1	1.710868239E0
1.522923211E1	8.003991842E-1	1.210170078E1	7.579265833E-1
1.523763513E1	5.227120876E0	1.364148235E1	2.033301115E0
1.524603815E1	7.177271366E0	1.579023647E1	4.806582451E0
1.525444117E1	5.328815937E0	1.538285828E1	4.606781960E0
1.526284419E1	2.287538528E0	1.371506119E1	3.780659676E0
1.527124722E1	8.973084688E-1	1.187438202E1	1.922034740E0
1.527965024E1	1.984846354E0	1.054935646E1	-2.620140910E-1
1.528805326E1	3.525824070E0	9.908080101E0	-1.405783296E-1
1.529645628E1	3.832105398E0	9.401400566E0	9.954141974E-1
1.530485930E1	2.958725214E0	8.828319550E0	1.810170293E0
1.531326232E1	1.718644857E0	8.001599312E0	2.042872429E0
1.532166534E1	6.023930907E-1	6.595815659E0	8.111668825E-1
1.533006836E1	-4.127619043E-2	6.026922226E0	1.385444283E0
1.533847138E1	-1.172483116E-1	5.049454212E0	2.313859463E0
1.534687440E1	8.099704385E-1	3.942175388E0	7.836493850E-2
1.535527742E1	1.727617979E0	3.780061483E0	-9.002995491E-1
1.536368044E1	2.213959217E0	4.210769653E0	8.147560954E-1
1.537208347E1	2.858226538E0	4.272384644E0	1.389631748E0
1.538048649E1	3.370290756E0	4.161118507E0	5.276173949E-1
1.538888951E1	3.303291559E0	4.939383984E0	6.885347366E-1
1.539729253E1	2.671586514E0	5.575874805E0	3.194418252E-1
1.540569555E1	1.712662816E0	5.533402443E0	-3.690928817E-1
1.541409857E1	6.143572330E-1	5.116453171E0	-2.949153781E-1
1.542250159E1	4.426721856E-2	4.755734921E0	2.225325108E-1
1.543090461E1	3.272185028E-1	4.523033142E0	5.724828243E-1
1.543930763E1	1.117448211E0	4.542773724E0	7.477570772E-1
1.544771065E1	1.982453585E0	4.891527653E0	6.550351977E-1
1.545611367E1	2.531008244E0	5.315057278E0	3.320041299E-1
1.546451669E1	2.758924484E0	5.845067501E0	2.967100143E-1
1.547291972E1	2.848057270E0	6.218945980E0	1.782652885E-1
1.548132274E1	2.934797049E0	6.457031727E0	1.034895778E-1
1.548972576E1	3.108276606E0	6.638288021E0	2.775674164E-1
1.549812878E1	3.405584812E0	6.753143787E0	3.439682424E-1
1.550653180E1	3.736392498E0	6.912864685E0	3.074777126E-1
1.551493482E1	4.069592953E0	7.162914753E0	2.554338276E-1
1.552333784E1	4.256233215E0	7.552944660E0	1.441675574E-1
1.553174086E1	4.111467361E0	8.142177582E0	2.123630047E-1
1.554014388E1	3.682554007E0	8.746364594E0	1.926222295E-1
1.554854690E1	3.032902718E0	9.173483849E0	2.225325108E-1
1.555694992E1	2.424527645E0	9.386445045E0	1.896311939E-1
1.556535294E1	1.984248161E0	9.488738060E0	1.483550072E-1
1.557375596E1	1.634896040E0	9.738189697E0	1.812563092E-1
1.558215899E1	1.264008522E0	1.043868923E1	2.817548811E-1
1.559056201E1	9.637092948E-1	1.146102238E1	2.877369225E-1
1.559896503E1	7.992027402E-1	1.270887947E1	4.995017350E-1
1.560736805E1	8.362914920E-1	1.394776344E1	7.010970116E-1
1.561577107E1	1.161715388E0	1.508076477E1	4.474578202E-1
1.562417409E1	1.335793257E0	1.605165291E1	2.626122832E-1
1.563257711E1	1.049252748E0	1.652662849E1	2.380858511E-1
1.564098013E1	5.150550604E-1	1.632144356E1	1.280160099E-1
1.564938315E1	5.084748194E-2	1.550489235E1	1.423729509E-1
1.565778617E1	3.649054468E-1	1.445384502E1	-5.024927482E-2
1.566618919E1	1.830509305E0	1.400220013E1	-5.467599630E-1
1.567459222E1	3.802793503E0	1.420798302E1	-1.105484009E0
1.568299524E1	5.693123341E0	1.471765423E1	-1.561316729E0
1.569139826E1	7.122834682E0	1.496531105E1	-1.852044702E0
1.569980128E1	8.130811691E0	1.469013596E1	-2.089532375E0
1.570820430E1	8.306683540E0	1.377069473E1	-1.834098577E0
1.571660732E1	7.687541008E0	1.240798187E1	-1.317847013E0
1.572501034E1	6.736393929E0	1.096869946E1	-9.559326172E-1
1.573341336E1	6.095117569E0	9.756135941E0	-6.927221417E-1
1.574181638E1	5.722435474E0	9.045467377E0	-5.000999570E-1
1.575021940E1	5.559723377E0	8.697910309E0	-1.710868180E-1
1.575862242E1	5.712265968E0	8.584849358E0	4.845465720E-1
1.576702544E1	5.877968788E0	8.921639442E0	1.161715388E0
1.577542847E1	5.793023586E0	9.653842926E0	1.342373490E0
1.578383149E1	5.438287735E0	1.045304585E1	1.395015597E0
1.579223451E1	4.986044407E0	1.103151035E1	1.518844128E0
1.580063753E1	4.333401680E0	1.149930763E1	1.359123230E0
1.580904055E1	3.360719442E0	1.165065384E1	2.214557409E0
1.581744357E1	2.498106956E0	1.118943691E1	2.354537487E0
1.582584659E1	1.609173179E0	1.077607632E1	1.016351461E0
1.583424961E1	-2.703889608E-1	1.251087284E1	-1.375873014E-2
1.584265263E1	-4.722235680E0	1.692323875E1	-3.912265003E-1
1.585105565E1	-1.595534134E1	1.835354805E1	1.238285750E-1
1.585945867E1	-3.099722290E1	1.083111191E1	-4.074378967E0
1.586786169E1	-2.803430939E1	5.691328526E0	-6.440282345E0
1.587626472E1	-2.152044868E1	5.054837704E0	3.100499868E0
1.588466774E1	-3.324228764E0	7.777271748E0	5.371886730E0
1.589307076E1	1.760459518E1	1.400818157E1	5.079364300E0
1.590147378E1	2.602254486E1	1.991366768E1	3.808177233E0
1.590987680E1	1.983530235E1	1.878964043E1	-1.912463546E0
1.591827982E1	5.549553871E0	1.196052361E1	-5.649454117E0
1.592668284E1	-4.411168575E0	8.685946465E0	-6.299105883E-1
1.593508586E1	-1.109252739E1	6.673582554E0	3.877569199E0
1.594348888E1	-1.482592869E1	5.258825779E0	3.407379389E0
1.595189190E1	-1.557308769E1	4.789832592E0	1.537388563E0
1.596029492E1	-1.194437218E1	5.283352375E0	1.016949583E-2
1.596869794E1	-5.513063431E0	7.074978352E0	5.575276613E-1
1.597710097E1	6.562315822E-1	9.396614075E0	2.146960020E0
1.598550399E1	4.354937077E0	1.107996559E1	3.302095175E0
1.599390701E1	4.003790379E0	1.136949635E1	3.027518749E0
1.600231003E1	7.752745152E-1	1.088734341E1	1.374676585E0
1.601071305E1	-2.064407825E0	1.037408257E1	-6.352944374E-1
1.601911607E1	-3.894917011E0	9.833903313E0	-7.890332937E-1
1.602751909E1	-4.683351994E0	9.189037323E0	8.925228715E-1
1.603592211E1	-3.886542082E0	8.770891190E0	1.264008522E0
1.604432513E1	-2.276770830E0	8.946763992E0	1.059422255E0
1.605272815E1	-9.720842242E-1	9.494720459E0	1.441077471E0
1.606113117E1	-7.142575383E-1	9.961918831E0	2.017149448E0
1.606953419E1	-1.453041553E0	1.000199890E1	1.857428551E0
1.607793722E1	-2.499303341E0	9.619745255E0	1.255633712E0
1.608634024E1	-3.327219963E0	9.030512810E0	9.894321561E-1
1.609474326E1	-3.561716557E0	8.680562019E0	1.466202021E0
1.610314628E1	-2.984447956E0	8.625527382E0	1.101296663E0
1.611154930E1	-2.030908108E0	9.039485931E0	8.805587292E-1
1.611995232E1	-1.128814101E0	9.637691498E0	1.066002488E0
1.612835534E1	-5.904290080E-1	1.006540871E1	1.100100160E0
1.613675836E1	-4.289134443E-1	1.020060253E1	7.555337548E-1
1.614516138E1	-5.030909777E-1	1.006480980E1	5.300102234E-1
1.615356440E1	-6.137589812E-1	9.910472870E0	6.430711150E-1
1.616196742E1	-6.472585201E-1	9.919445992E0	5.916253924E-1
1.617037044E1	-6.137589812E-1	1.006899738E1	6.340979934E-1
1.617877347E1	-3.840480447E-1	1.018265629E1	7.513462901E-1
1.618717649E1	-2.572284266E-2	1.024187946E1	8.470591903E-1
1.619557951E1	3.212364316E-1	1.026999474E1	1.048056364E0
1.620398253E1	4.378865361E-1	1.025982571E1	1.396211982E0
1.621238555E1	3.888336718E-1	1.016770172E1	1.287338614E0
1.622078857E1	2.392822653E-1	1.003489971E1	1.219741344E0
1.622919159E1	7.537391037E-2	9.948758125E0	1.080359459E0
1.623759461E1	-1.256231815E-1	9.900901794E0	9.846464992E-1
1.624599763E1	-2.213360965E-1	9.894321442E0	8.458628058E-1
1.625440065E1	-2.303091735E-1	9.942776680E0	9.493523836E-1
1.626280367E1	-2.009970993E-1	1.011805058E1	1.036690354E0
1.627120669E1	-3.601198196E-1	1.017846966E1	1.333400369E0
1.627960972E1	-6.981059909E-1	1.005344391E1	1.277169108E0
1.628801274E1	-9.852447510E-1	9.887143135E0	1.238883972E0
1.629641576E1	-1.109073281E0	9.820742607E0	1.193420291E0
1.630481878E1	-9.906286001E-1	9.843474388E0	1.160519004E0
1.631322180E1	-7.286145091E-1	9.836894035E0	1.057627559E0
1.632162482E1	-4.576273263E-1	9.763913155E0	9.529415965E-1
1.633002784E1	-2.075773627E-1	9.693324089E0	4.055834413E-1
1.633843086E1	-7.118647546E-2	9.761520386E0	4.719842672E-1
1.634683388E1	-7.896314561E-2	9.885348320E0	4.420739710E-1
1.635523690E1	-2.386840582E-1	9.987043381E0	4.953143001E-1
1.636363992E1	-3.607180119E-1	9.977472305E0	1.202393398E-1
1.637204294E1	-3.960121572E-1	9.876375198E0	-2.273181453E-2
1.638044596E1	-2.440679073E-1	9.781859398E0	-9.690931439E-2
1.638884899E1	7.836493850E-2	1.004327488E1	-5.802594870E-2
1.639725201E1	2.895315289E-1	1.044287586E1	1.531406492E-1
1.640565503E1	2.919243574E-1	1.066481018E1	-3.230310604E-2
1.641405805E1	2.955136001E-1	1.052303600E1	-6.358926296E-1
1.642246107E1	3.559323549E-1	1.007198906E1	-7.100701332E-1
1.643086409E1	3.517449200E-1	9.857233047E0	-4.456632137E-1
1.643926711E1	-1.692921966E-1	1.036092186E1	7.561319470E-1
1.644767013E1	-1.058225870E0	1.141017437E1	1.526022673E0
1.645607315E1	-1.753340840E0	1.235354519E1	1.384846091E0
1.646447617E1	-1.709671736E0	1.262333584E1	9.661021233E-1
1.647287919E1	-1.077368379E0	1.252403355E1	1.218544960E0
1.648128222E1	-3.505485058E-1	1.280040455E1	2.085345030E0
1.648968524E1	-3.708875179E-1	1.381137276E1	2.530410051E0
1.649808826E1	-1.365703583E0	1.475414467E1	2.167897224E0
1.650649128E1	-3.214757204E0	1.492762375E1	1.740778446E0
1.651489430E1	-5.090730190E0	1.451127338E1	1.326221943E0
1.652329732E1	-6.221338749E0	1.432164192E1	8.494520187E-1
1.653170034E1	-6.613761902E0	1.457707596E1	9.469595551E-1
1.654010336E1	-6.169893265E0	1.471466255E1	7.944171429E-1
1.654850638E1	-5.082355499E0	1.442094421E1	3.607180119E-1
1.655690940E1	-3.613162279E0	1.381615829E1	1.022931710E-1
1.656531242E1	-1.744367719E0	1.350987625E1	7.716853023E-1
1.657371544E1	4.989035130E-1	1.335793209E1	2.406581402E0
1.658211846E1	3.975674868E0	1.356192017E1	3.130410194E0
1.659052149E1	6.537789822E0	1.482892036E1	5.303691387E0
1.659892451E1	6.448058605E0	1.505683613E1	6.507281303E0
1.660732753E1	3.905086517E0	1.317906857E1	4.932804108E0
1.661573055E1	1.664806366E0	1.090229797E1	3.676572084E0
1.662413357E1	1.432104349E0	9.489336014E0	2.341975212E0
1.663253659E1	2.884547710E0	9.069396019E0	7.501499057E-1
1.664093961E1	4.005585194E0	9.183652878E0	4.426721856E-2
1.664934263E1	3.500101328E0	8.837292671E0	3.343969584E-1
1.665774565E1	2.338984251E0	8.216354370E0	9.409775138E-1
1.666614867E1	9.852447510E-1	7.795217991E0	8.829515576E-1
1.667455169E1	3.290131092E-1	6.782455921E0	1.793420553E0
1.668295472E1	2.663211584E0	5.690730572E0	2.847459018E-1
1.669135774E1	4.782055855E0	5.808577061E0	-1.080957651E0
1.669976076E1	4.068994999E0	5.916851997E0	-2.126022816E0
1.670816378E1	1.801795483E0	5.086542606E0	-1.168295622E0
1.671656680E1	1.884347796E-1	3.640081406E0	1.256231871E-2
1.672496982E1	5.473581553E-1	2.906681299E0	4.115654826E-1
1.673337284E1	2.122433662E0	3.803391695E0	7.806583643E-1
1.674177586E1	3.259622574E0	4.967499733E0	4.857429862E-1
1.675017888E1	3.169293642E0	5.524429321E0	-5.024927258E-1
1.675858190E1	1.761715651E0	5.784648895E0	-3.678964674E-1
1.676698492E1	2.548356056E-1	5.531607628E0	-2.691925466E-1
1.677538794E1	-5.467599630E-1	4.998606682E0	-3.978067636E-1
1.678379096E1	-5.665007830E-1	4.465605259E0	-3.786641955E-1
1.679219399E1	2.991028363E-3	4.290330887E0	-2.315055877E-1
1.680059701E1	8.799605370E-1	4.566701889E0	-4.492524564E-1
1.680900003E1	1.625324726E0	5.184648514E0	-7.226324677E-1
1.681740305E1	2.089532375E0	5.974878311E0	-8.051848412E-1
1.682580607E1	2.234298229E0	6.661618233E0	-8.069794178E-1
1.683420909E1	2.067996979E0	7.002595425E0	-8.799605370E-1
1.684261211E1	1.767099500E0	7.098308563E0	-7.740781307E-1
1.685101513E1	1.689332843E0	6.929016113E0	-8.979067206E-1
1.685941815E1	1.967498422E0	6.907480717E0	-9.990034699E-1
1.686782117E1	2.449652195E0	7.179066181E0	-1.012762189E0
1.687622419E1	2.870789051E0	7.632505894E0	-9.080761671E-1
1.688462722E1	3.153740168E0	8.278568268E0	-8.907282352E-1
1.689303024E1	3.183052301E0	8.869595528E0	-1.012762189E0
1.690143326E1	3.037688255E0	9.421739578E0	-1.094118118E0
1.690983628E1	2.598007202E0	9.820742607E0	-1.036092162E0
1.691823930E1	2.117049932E0	1.008036327E1	-9.738788009E-1
1.692664232E1	1.764706731E0	1.037587738E1	-8.745766878E-1
1.693504534E1	1.597209096E0	1.076830006E1	-7.549355626E-1
1.694344836E1	1.625923038E0	1.123250771E1	-4.420739710E-1
1.695185138E1	1.869990945E0	1.179302597E1	-5.204389244E-2
1.696025440E1	2.181057930E0	1.260180092E1	2.374876440E-1
1.696865742E1	2.269592285E0	1.370907879E1	6.388836503E-1
1.697706044E1	1.963909149E0	1.473918915E1	7.064808607E-1
1.698546347E1	1.371685624E0	1.568555069E1	7.280163169E-1
1.699386649E1	9.104689956E-1	1.660977745E1	8.356932998E-1
1.700226951E1	9.667003751E-1	1.712842178E1	1.247856975E0
1.701067253E1	1.494915962E0	1.674258041E1	1.321436286E0
1.701907555E1	2.629113913E0	1.642134285E1	1.190429211E0
1.702747857E1	4.061816216E0	1.578126335E1	5.144568533E-2
1.703588159E1	5.294718266E0	1.521416473E1	-3.732803464E-1
1.704428461E1	6.069394588E0	1.438445377E1	-6.257231236E-1
1.705268763E1	6.496513367E0	1.342134190E1	-1.070189953E0
1.706109065E1	7.072585583E0	1.275613785E1	-2.321037948E-1
1.706949367E1	8.022536278E0	1.208016491E1	2.129612118E-1
1.707789669E1	8.224131584E0	1.134796143E1	1.356132269E0
1.708629972E1	7.536793232E0	1.032323551E1	1.913659930E0
1.709470274E1	6.278168201E0	9.434899330E0	1.920838356E0
1.710310576E1	5.158327579E0	8.804390907E0	2.313261271E0
1.711150878E1	4.872385025E0	8.236693382E0	2.572882652E0
1.711991180E1	5.424529076E0	8.392825127E0	1.923829436E0
1.712831482E1	5.821737289E0	9.455238342E0	1.173081279E0
1.713671784E1	5.598008633E0	1.090528965E1	1.103689432E0
1.714512086E1	4.680959225E0	1.241695499E1	2.090728760E0
1.715352388E1	2.581855536E0	1.409611797E1	1.496710539E0
1.716192690E1	-1.929811478E0	1.719003868E1	-7.381857634E-1
1.717032992E1	-1.044885826E1	1.902174377E1	-8.404789567E-1
1.717873294E1	-2.422314262E1	1.324666595E1	-1.917847395E0
1.718713596E1	-2.950230598E1	5.837889194E0	-3.875176191E0
1.719553899E1	-1.697288895E1	4.360919476E0	-1.866999865E0
1.720394201E1	-7.788637877E-1	8.559126854E0	2.264208317E0
1.721234503E1	1.513280869E1	1.370967770E1	2.713460922E0
1.722074805E1	2.241476631E1	1.821954918E1	1.410568953E0
1.722915107E1	1.479960823E1	1.683589935E1	-1.567298770E-1
1.723755409E1	4.022335052E0	1.199701500E1	-2.660818815E0
1.724595711E1	-3.060420275E0	9.717252731E0	-3.822534084E-1
1.725436013E1	-7.289734364E0	8.386244774E0	2.312064886E0
1.726276315E1	-9.699904442E0	7.185048103E0	2.735594511E0
1.727116617E1	-1.046620655E1	6.157330990E0	2.700300455E0
1.727956919E1	-8.635098457E0	5.622535229E0	1.384846091E0
1.728797222E1	-4.799404144E0	6.377470493E0	6.370890141E-1
1.729637524E1	-6.777670383E-1	8.355736732E0	1.288534999E0
1.730477826E1	2.242074728E0	1.053559780E1	2.045863390E0
1.731318128E1	2.652443886E0	1.189113235E1	2.977269650E0
1.732158430E1	4.444667995E-1	1.170987606E1	1.822732687E0
1.732998732E1	-2.073979139E0	1.065583706E1	-4.360919297E-1
1.733839034E1	-3.597010612E0	9.594022751E0	-2.199602127E0
1.734679336E1	-3.830909014E0	8.879166603E0	-2.145763636E0
1.735519638E1	-2.985046148E0	8.992825508E0	-3.044866920E-1
1.736359940E1	-1.446461320E0	9.709476471E0	6.867401004E-1
1.737200242E1	-1.615155302E-2	1.031127071E1	6.921239495E-1
1.738040544E1	7.483552694E-1	1.060439205E1	6.305087805E-1
1.738880846E1	5.012963414E-1	1.064267731E1	7.471588850E-1
1.739721149E1	-5.353940725E-1	1.047039413E1	6.646065116E-1
1.740561451E1	-1.801197290E0	1.006540871E1	6.131607890E-1
1.741401753E1	-2.686541557E0	9.634101868E0	7.393822074E-1
1.742242055E1	-2.721835852E0	9.242277145E0	5.174478889E-1
1.743082357E1	-1.971685886E0	9.256634712E0	9.002995491E-1
1.743922659E1	-1.041476011E0	9.388239861E0	1.620539188E0
1.744762961E1	-3.912265003E-1	9.484550476E0	2.063211441E0
1.745603263E1	-4.456632137E-1	9.543174744E0	1.850848317E0
1.746443565E1	-8.811569214E-1	9.547362328E0	1.567298889E0
1.747283867E1	-1.416550994E0	9.473783493E0	1.546361685E0
1.748124169E1	-1.608574986E0	9.452845573E0	1.133001566E0
1.748964472E1	-1.628315806E0	9.446265221E0	7.698906660E-1
