"Time (s)"	"Gyroscope x (rad/s)"	"Gyroscope y (rad/s)"	"Gyroscope z (rad/s)"
4.497346500E-2	-1.527118147E-3	1.068982668E-2	-1.801999472E-2
5.337648600E-2	1.221694518E-3	4.886778072E-3	-2.718270384E-2
6.177950700E-2	1.679830020E-3	-1.068982761E-3	-3.084778599E-2
7.018252700E-2	-1.221694518E-3	-7.177455351E-3	-2.870982140E-2
7.858554800E-2	-2.748812549E-3	-6.108472589E-3	-2.596100792E-2
8.698856900E-2	-4.123218823E-3	-8.246437646E-3	-2.535016090E-2
9.539159000E-2	-2.596100792E-3	-1.359135192E-2	-2.611372061E-2
1.037946110E-1	-4.886778072E-3	-1.771457121E-2	-2.519745007E-2
1.121976320E-1	-5.955760833E-3	-1.527118124E-2	-2.061609551E-2
1.206006520E-1	-3.970507067E-3	-8.093725890E-3	-1.634016447E-2
1.290036730E-1	-5.039489828E-3	-5.039489828E-3	-1.527118124E-2
1.374066940E-1	-4.886778072E-3	-6.719320081E-3	-1.267508045E-2
1.458097150E-1	-5.497625098E-3	-9.162709117E-3	-9.773556143E-3
1.542127360E-1	-5.955760833E-3	-1.221694518E-2	-8.704573847E-3
1.626157570E-1	-3.970507067E-3	-1.007897966E-2	-5.650337320E-3
1.710187770E-1	-5.039489828E-3	-4.886778072E-3	-3.512371797E-3
1.794217980E-1	-6.566607859E-3	-2.596100792E-3	-3.665083554E-3
1.878248190E-1	-7.482878864E-3	-5.039489828E-3	-5.497625098E-3
1.962278400E-1	-5.344913341E-3	-4.123218823E-3	-7.788302377E-3
2.046308610E-1	-5.650337320E-3	-1.527118147E-4	-8.551862091E-3
2.130338820E-1	-6.261184346E-3	2.596100792E-3	-7.635590620E-3
2.214369020E-1	-3.970507067E-3	3.512371797E-3	-7.635590620E-3
2.298399230E-1	-1.374406274E-3	4.886778072E-3	-8.857285604E-3
2.382429440E-1	-2.137965523E-3	7.635590737E-4	-7.330167107E-3
2.466459650E-1	-1.374406274E-3	-1.068982761E-3	-7.788302377E-3
2.550489860E-1	-3.054236295E-4	1.221694518E-3	-9.926267900E-3
2.634520070E-1	4.581354442E-4	1.221694518E-3	-8.246437646E-3
2.718550270E-1	-1.068982761E-3	1.374406274E-3	-9.162709117E-3
2.802580480E-1	-1.527118147E-4	-5.955760833E-3	-1.252236869E-2
2.886610690E-1	9.162708884E-4	-8.551862091E-3	-1.420219894E-2
2.970640900E-1	0.000000000E0	-7.330167107E-3	-1.511846948E-2
3.054671110E-1	-1.221694518E-3	-8.704573847E-3	-1.496575773E-2
3.138701320E-1	9.162708884E-4	-6.719320081E-3	-1.389677543E-2
3.222731520E-1	4.581354442E-4	-3.665083554E-3	-1.191152167E-2
3.306761730E-1	1.527118147E-4	-3.970507067E-3	-1.023169141E-2
3.390791940E-1	-1.527118147E-4	-6.108472589E-3	-8.857285604E-3
3.474822150E-1	-1.068982761E-3	-1.068982668E-2	-6.872031838E-3
3.558852360E-1	-4.275931045E-3	-9.926267900E-3	-7.177455351E-3
3.642882570E-1	-3.817795310E-3	-7.941014133E-3	-7.482878864E-3
3.726912770E-1	-4.886778072E-3	-4.886778072E-3	-5.497625098E-3
3.810942980E-1	-6.261184346E-3	-4.581354558E-3	-7.635590620E-3
3.894973190E-1	-5.803049076E-3	-7.941014133E-3	-9.468132630E-3
3.979003400E-1	-6.261184346E-3	-7.482878864E-3	-1.038440317E-2
4.063033610E-1	-7.330167107E-3	-8.399149403E-3	-1.252236869E-2
4.147063820E-1	-6.719320081E-3	-1.175880991E-2	-9.773556143E-3
4.231094020E-1	-8.551862091E-3	-1.511846948E-2	-1.038440317E-2
4.315124230E-1	-8.551862091E-3	-1.710372418E-2	-1.374406368E-2
4.399154440E-1	-7.330167107E-3	-1.527118124E-2	-1.603474095E-2
4.483184650E-1	-8.551862091E-3	-8.551862091E-3	-1.374406368E-2
4.567214860E-1	-6.261184346E-3	-5.039489828E-3	-9.162709117E-3
4.651245070E-1	-8.093725890E-3	-8.093725890E-3	-1.527118124E-2
4.735275270E-1	-1.160609815E-2	-1.618745178E-2	-2.092151903E-2
4.819305480E-1	-1.450762246E-2	-1.740914769E-2	-2.199050039E-2
4.903335690E-1	-1.710372418E-2	-1.740914769E-2	-1.786728203E-2
4.987365900E-1	-2.046338283E-2	-1.954711229E-2	-1.328592747E-2
5.071396110E-1	-2.428117767E-2	-2.458660305E-2	-1.053711493E-2
5.155426320E-1	-2.580829710E-2	-2.886253223E-2	-9.009997360E-3
5.239456520E-1	-3.023693897E-2	-2.886253223E-2	-4.886778072E-3
5.323486730E-1	-2.809897438E-2	-2.687728032E-2	-1.527118147E-3
5.407516940E-1	-2.870982140E-2	-3.161134571E-2	-7.941014133E-3
5.491547150E-1	-2.901524492E-2	-4.474456236E-2	-2.321219631E-2
5.575577360E-1	-2.993151546E-2	-5.665608495E-2	-3.497100621E-2
5.659607570E-1	-3.115320951E-2	-4.123219103E-2	-4.535540938E-2
5.743637770E-1	-3.237490356E-2	-8.246437646E-3	-4.795150831E-2
5.827667980E-1	-2.947338112E-2	8.704573847E-3	-4.382828996E-2
5.911698190E-1	-3.298575059E-2	3.268032894E-2	-5.039490014E-2
5.995728400E-1	-3.848337755E-2	4.657710344E-2	-6.215370819E-2
6.079758610E-1	-3.649812192E-2	4.795150831E-2	-7.284353673E-2
6.163788820E-1	-3.756710514E-2	4.886778072E-3	-6.688777357E-2
6.247819020E-1	-4.993676394E-2	-3.359660041E-3	-5.803048983E-2
6.331849230E-1	-5.283828825E-2	1.832541823E-2	-8.002099395E-2
6.415879440E-1	-5.558710173E-2	2.519745007E-2	-1.224748790E-1
6.499909650E-1	-4.856235534E-2	6.215370819E-2	-1.609582454E-1
6.583939860E-1	-3.023693897E-2	1.353026628E-1	-1.754658818E-1
6.667970070E-1	-2.626643144E-2	1.976090819E-1	-1.716480851E-1
6.752000270E-1	-4.459185153E-2	2.005106062E-1	-1.342336833E-1
6.836030480E-1	-5.238015205E-2	2.261662036E-1	-8.704573661E-2
6.920060690E-1	-4.688252881E-2	2.773246467E-1	-7.009471953E-2
7.004090900E-1	-4.504998401E-2	2.802261710E-1	-6.261184067E-2
7.088121110E-1	-5.940489471E-2	2.353289127E-1	-3.176405653E-2
7.172151320E-1	-7.498150319E-2	2.060082406E-1	6.108472589E-3
7.256181520E-1	-8.964183182E-2	1.898207814E-1	2.779355086E-2
7.340211730E-1	-1.075091213E-1	1.803526580E-1	3.588727489E-2
7.424241940E-1	-1.218640283E-1	2.148655206E-1	3.665083647E-2
7.508272150E-1	-1.334701329E-1	2.469350100E-1	3.436015919E-2
7.592302360E-1	-1.386623234E-1	2.663294077E-1	3.359659761E-2
7.676332570E-1	-1.389677525E-1	2.863346636E-1	3.985778242E-2
7.760362770E-1	-1.432436854E-1	2.893888950E-1	5.238015205E-2
7.844392980E-1	-1.514901221E-1	2.608317733E-1	6.597150117E-2
7.928423190E-1	-1.568350345E-1	2.221956849E-1	8.383878320E-2
8.012453400E-1	-1.621799469E-1	2.067717910E-1	1.050657257E-1
8.096483610E-1	-1.713426560E-1	2.086043358E-1	1.240019947E-1
8.180513820E-1	-1.795890927E-1	2.231119573E-1	1.253764033E-1
8.264544020E-1	-1.829487532E-1	2.348707765E-1	1.221694499E-1
8.348574230E-1	-1.806580722E-1	2.298312783E-1	1.288887709E-1
8.432604440E-1	-1.797417998E-1	2.363978922E-1	1.346918195E-1
8.516634650E-1	-1.734806150E-1	2.391466945E-1	1.476723254E-1
8.600664860E-1	-1.702736765E-1	2.344126403E-1	1.627907902E-1
8.684695070E-1	-1.704263836E-1	2.203631550E-1	1.679829955E-1
8.768725270E-1	-1.748550236E-1	1.988307834E-1	1.605001241E-1
8.852755480E-1	-1.777565479E-1	1.704263836E-1	1.583621502E-1
8.936785690E-1	-1.792836636E-1	1.572931707E-1	1.716480851E-1
9.020815900E-1	-1.843231618E-1	1.441599578E-1	1.908897758E-1
9.104846110E-1	-1.863084137E-1	1.120904684E-1	2.086043358E-1
9.188876320E-1	-1.928750277E-1	7.620319724E-2	2.150182426E-1
9.272906520E-1	-2.052446753E-1	5.573981255E-2	2.206685692E-1
9.356936730E-1	-2.104368806E-1	4.199574888E-2	2.374668717E-1
9.440966940E-1	-2.041756958E-1	7.941014133E-3	2.629697323E-1
9.524997150E-1	-2.145601064E-1	-5.161659420E-2	2.835858464E-1
9.609027360E-1	-2.264716178E-1	-8.063183725E-2	2.976353168E-1
9.693057570E-1	-2.357870489E-1	-9.468132257E-2	3.077143133E-1
9.777087770E-1	-2.402156889E-1	-9.086353332E-2	3.148917556E-1
9.861117980E-1	-2.243336588E-1	-5.971032009E-2	3.243598938E-1
9.945148190E-1	-2.089097649E-1	-3.420744836E-2	3.358132839E-1
1.002917840E0	-2.101314515E-1	-5.711421743E-2	3.550549746E-1
1.011320861E0	-2.228065431E-1	-1.230857223E-1	3.852919042E-1
1.019723882E0	-2.279987335E-1	-1.716480851E-1	4.004103839E-1
1.028126902E0	-2.354816198E-1	-1.835595965E-1	4.052971601E-1
1.036529923E0	-2.315111160E-1	-1.760767251E-1	4.117110670E-1
1.044932944E0	-1.866138428E-1	-1.699682474E-1	4.181249440E-1
1.053335965E0	-1.516428292E-1	-1.487413049E-1	4.300364852E-1
1.061738986E0	-1.554606259E-1	-1.766875684E-1	4.766135812E-1
1.070142007E0	-1.676775664E-1	-2.418955117E-1	5.441122055E-1
1.078545027E0	-1.725643575E-1	-2.643441558E-1	5.661026835E-1
1.086948048E0	-1.553079188E-1	-1.925695986E-1	5.422796607E-1
1.095351069E0	-1.394258887E-1	-5.314370990E-2	5.167768002E-1
1.103754090E0	-1.076618284E-1	1.878355257E-2	5.115845799E-1
1.112157111E0	-7.040014863E-2	1.863084175E-2	5.204418898E-1
1.120560132E0	-4.917320609E-2	-2.993151546E-2	5.428904891E-1
1.128963152E0	-7.055285573E-2	-1.156028435E-1	5.851916671E-1
1.137366173E0	-7.956285775E-2	-1.783674061E-1	6.329904795E-1
1.145769194E0	-7.391251624E-2	-1.659977436E-1	6.737645268E-1
1.154172215E0	-8.063183725E-2	-9.193251282E-2	7.001836896E-1
1.162575236E0	-8.383878320E-2	-4.367557913E-2	6.939224601E-1
1.170978257E0	-6.704048812E-2	-2.290677279E-2	6.810947061E-1
1.179381277E0	-6.322269142E-2	-1.221694518E-3	6.960604787E-1
1.187784298E0	-7.879929990E-2	-3.481829539E-2	7.325585485E-1
1.196187319E0	-7.986827940E-2	-9.055810422E-2	7.682931423E-1
1.204590340E0	-6.398624927E-2	-9.972081333E-2	7.876875401E-1
1.212993361E0	-5.268557742E-2	-8.597674966E-2	8.086090684E-1
1.221396382E0	-3.359659761E-2	-9.345962852E-2	8.160919547E-1
1.229799402E0	-2.718270384E-2	-1.070509851E-1	7.980719209E-1
1.238202423E0	-2.611372061E-2	-1.620272398E-1	7.849387527E-1
1.246605444E0	-2.702999115E-2	-1.695101112E-1	7.722636461E-1
1.255008465E0	-3.237490356E-2	-8.903098851E-2	7.432484031E-1
1.263411486E0	-3.634541109E-2	-2.626643144E-2	6.859814525E-1
1.271814507E0	-2.855710872E-2	7.482878864E-3	6.125270724E-1
1.280217527E0	-2.657185495E-2	-2.137965336E-2	5.752654076E-1
1.288620548E0	-2.137965336E-2	-7.650861889E-2	5.654918551E-1
1.297023569E0	-1.359135192E-2	-1.866138428E-1	5.473191738E-1
1.305426590E0	-2.168507688E-2	-3.471139669E-1	5.236487985E-1
1.313829611E0	-1.847812906E-2	-4.541649222E-1	5.015056133E-1
1.322232632E0	-1.130067464E-2	-4.663818777E-1	4.775298536E-1
1.330635652E0	5.650337320E-3	-4.350759685E-1	4.637857676E-1
1.339038673E0	2.000524849E-2	-3.874298632E-1	4.544703662E-1
1.347441694E0	3.710897267E-2	-3.495573401E-1	4.370612204E-1
1.355844715E0	4.688252881E-2	-3.350497186E-1	4.149180055E-1
1.364247736E0	5.451811850E-2	-3.642176688E-1	4.078932703E-1
1.372650757E0	5.894676223E-2	-3.956763148E-1	4.199574888E-1
1.381053777E0	5.696150661E-2	-4.086568058E-1	4.373666346E-1
1.389456798E0	6.551336497E-2	-3.914003670E-1	4.526378214E-1
1.397859819E0	7.559234649E-2	-3.553603888E-1	4.579827189E-1
1.406262840E0	8.872556686E-2	-3.122956753E-1	4.656183124E-1
1.414665861E0	9.605573118E-2	-2.632751763E-1	4.720322192E-1
1.423068882E0	9.177979827E-2	-2.150182426E-1	4.772244096E-1
1.431471902E0	9.666658193E-2	-2.147128135E-1	4.839437306E-1
1.439874923E0	9.972081333E-2	-2.240282297E-1	4.880669713E-1
1.448277944E0	1.024696305E-1	-2.321219593E-1	5.039489865E-1
1.456680965E0	1.104106456E-1	-2.243336588E-1	5.412106514E-1
1.465083986E0	1.198787764E-1	-2.312056869E-1	5.716003180E-1
1.473487007E0	1.243074164E-1	-2.478512824E-1	5.803049207E-1
1.481890027E0	1.269035190E-1	-2.240282297E-1	5.795413256E-1
1.490293048E0	1.380514801E-1	-1.818797737E-1	5.943543911E-1
1.498696069E0	1.432436854E-1	-1.510319859E-1	6.169557571E-1
1.507099090E0	1.502684206E-1	-1.447708011E-1	6.339067221E-1
1.515502111E0	1.615691036E-1	-1.484358907E-1	6.442911625E-1
1.523905132E0	1.721062213E-1	-1.878355294E-1	6.543701291E-1
1.532308152E0	1.879882365E-1	-2.160872221E-1	6.626165509E-1
1.540711173E0	2.113531530E-1	-2.063136548E-1	6.717792749E-1
1.549114194E0	2.281514555E-1	-2.090624720E-1	6.876612902E-1
1.557517215E0	2.415900975E-1	-2.153236568E-1	7.033905983E-1
1.565920236E0	2.635805905E-1	-1.980672181E-1	7.110261917E-1
1.574323257E0	2.739650011E-1	-1.814216375E-1	7.159129977E-1
1.582726277E0	2.927485406E-1	-1.969982386E-1	7.490514517E-1
1.591129298E0	3.153499067E-1	-2.099787444E-1	8.234221339E-1
1.599532319E0	3.184041381E-1	-1.727170646E-1	8.478559852E-1
1.607935340E0	3.179459870E-1	-2.246390730E-1	8.090671897E-1
1.616338361E0	3.133646548E-1	-3.268032968E-1	8.231166601E-1
1.624741382E0	3.095468581E-1	-3.811686933E-1	8.845068216E-1
1.633144402E0	3.096995652E-1	-4.283566475E-1	9.571976662E-1
1.641547423E0	3.133646548E-1	-4.668400288E-1	1.015075445E0
1.649950444E0	3.132119179E-1	-5.062396526E-1	1.081505060E0
1.658353465E0	3.067980409E-1	-5.131117105E-1	1.162136912E0
1.666756486E0	3.225273490E-1	-4.369085133E-1	1.246891975E0
1.675159507E0	3.434488773E-1	-3.237490356E-1	1.365854502E0
1.683562527E0	4.014793634E-1	-3.558185324E-2	1.514290333E0
1.691965548E0	4.631749392E-1	3.744493723E-1	1.650662065E0
1.700368569E0	4.486673176E-1	6.146650314E-1	1.733737230E0
1.708771590E0	3.805578351E-1	5.596888065E-1	1.752062678E0
1.717174611E0	2.993151546E-1	3.362714052E-1	1.722894669E0
1.725577632E0	2.205158621E-1	5.741964281E-2	1.689450860E0
1.733980652E0	1.513374150E-1	-1.794363856E-1	1.724421859E0
1.742383673E0	9.483403713E-2	-3.066453338E-1	1.812689185E0
1.750786694E0	4.535540938E-2	-3.393256664E-1	1.917144179E0
1.759189715E0	1.924168877E-2	-3.590254784E-1	2.046338320E0
1.767592736E0	2.107422985E-2	-4.059080184E-1	2.232952118E0
1.775995757E0	3.726168349E-2	-5.937435627E-1	2.494700193E0
1.784398777E0	-1.160609815E-2	-7.282826304E-1	2.725600481E0
1.792801798E0	2.596100792E-3	-4.133908749E-1	2.583273172E0
1.801204819E0	1.090362370E-1	-1.908897758E-1	2.237228155E0
1.809607840E0	1.852394342E-1	-1.812689304E-1	2.013505220E0
1.818010861E0	1.971509457E-1	-1.490467340E-1	1.986169815E0
1.826413882E0	2.112004459E-1	-9.910997003E-2	2.011061907E0
1.834816902E0	2.365505993E-1	-1.488940120E-1	1.931499004E0
1.843219923E0	2.011214644E-1	-2.429644912E-1	1.686549306E0
1.851622944E0	1.336228400E-1	-3.436015844E-1	1.373795509E0
1.860025965E0	8.078455180E-2	-5.299099684E-1	1.147476554E0
1.868428986E0	5.192201585E-2	-5.033381581E-1	9.202414155E-1
1.876832007E0	2.519745007E-2	-2.641914487E-1	6.534538269E-1
1.885235027E0	2.687728032E-2	-1.728697717E-1	4.741701782E-1
1.893638048E0	9.575030953E-2	-4.703523964E-2	3.881934285E-1
1.902041069E0	2.067717910E-1	1.328592747E-1	3.750602305E-1
1.910444090E0	2.315111160E-1	1.986780763E-1	2.867927849E-1
1.918847111E0	1.243074164E-1	3.107685447E-1	4.260659590E-2
1.927250132E0	-4.734066315E-3	4.619532526E-1	-2.615953386E-1
1.935653152E0	-7.299624383E-2	5.294518471E-1	-5.349494815E-1
1.944056173E0	-8.551861346E-2	5.094466209E-1	-7.919634581E-1
1.952459194E0	-9.895725548E-2	5.176930428E-1	-1.072342396E0
1.960862215E0	-1.039967462E-1	5.163186193E-1	-1.331952453E0
1.969265236E0	-9.086353332E-2	4.253024161E-1	-1.554453611E0
1.977668257E0	-7.696675509E-2	2.835858464E-1	-1.750382781E0
1.986071277E0	-5.726693198E-2	1.582094431E-1	-1.932415247E0
1.994474298E0	-4.001049697E-2	5.299099907E-2	-2.102536201E0
2.002877319E0	-2.122694254E-2	-2.596100792E-2	-2.282888889E0
2.011280340E0	-1.832541777E-3	-9.162709117E-2	-2.472098827E0
2.019683361E0	5.344913341E-3	-1.927223057E-1	-2.663446665E0
2.028086382E0	7.941014133E-3	-2.974826097E-1	-2.857390881E0
2.036489402E0	1.801999472E-2	-3.553603888E-1	-3.053778172E0
2.044892423E0	2.214321308E-2	-3.982724249E-1	-3.250776291E0
2.053295444E0	6.261184346E-3	-4.485146105E-1	-3.457700968E0
2.061698465E0	-2.718270384E-2	-4.895940721E-1	-3.667679548E0
2.070101486E0	-6.536065787E-2	-5.044071078E-1	-3.837800503E0
2.078504507E0	-1.009425074E-1	-4.605788291E-1	-3.954930544E0
2.086907527E0	-1.269035190E-1	-3.307738006E-1	-4.044572353E0
2.095310548E0	-1.389677525E-1	-1.430909634E-1	-4.178042412E0
2.103713569E0	-1.499630064E-1	4.367557913E-2	-4.368321419E0
2.112116590E0	-1.606528312E-1	1.989834905E-1	-4.579063892E0
2.120519611E0	-1.769929975E-1	3.147390485E-1	-4.762775898E0
2.128922632E0	-1.901262105E-1	4.366030693E-1	-4.907241344E0
2.137325652E0	-1.959292591E-1	5.942016840E-1	-5.030021667E0
2.145728673E0	-1.759240031E-1	7.843278646E-1	-5.141959667E0
2.154131694E0	-1.188097894E-1	9.866710305E-1	-5.248704910E0
2.162534715E0	-5.207473040E-2	1.149309158E0	-5.342011929E0
2.170937736E0	3.512371797E-3	1.203216434E0	-5.360490322E0
2.179340757E0	4.428642616E-2	1.178018928E0	-5.266419411E0
2.187743777E0	4.627167806E-2	1.152821541E0	-5.148526192E0
2.196146798E0	-1.466033421E-2	1.064706802E0	-5.005740643E0
2.204549819E0	-8.735115826E-2	1.001178622E0	-4.790722370E0
2.212952840E0	-1.114796251E-1	1.000262380E0	-4.550201416E0
2.221355861E0	-8.872556686E-2	9.616262913E-1	-4.284329891E0
2.229758882E0	-5.772506446E-2	8.535063267E-1	-3.944087982E0
2.238161902E0	-5.696150661E-2	7.036960125E-1	-3.500918388E0
2.246564923E0	-6.413896382E-2	6.844543815E-1	-2.963678122E0
2.254967944E0	-6.459710002E-2	7.365291119E-1	-2.377264738E0
2.263370965E0	-6.215370819E-2	7.266027927E-1	-1.798792481E0
2.271773986E0	-7.742489129E-2	6.427640319E-1	-1.263232112E0
2.280177007E0	-1.206423342E-1	5.167768002E-1	-7.105680704E-1
2.288580027E0	-1.980672181E-1	3.674246371E-1	-9.254335612E-2
2.296983048E0	-3.100049794E-1	2.753393948E-1	5.257867575E-1
2.305386069E0	-3.849864900E-1	2.985515893E-1	1.071120620E0
2.313789090E0	-3.687990308E-1	4.170559645E-1	1.543611050E0
2.322192111E0	-3.442124426E-1	6.629219651E-1	1.913937211E0
2.330595132E0	-4.231644273E-1	1.160609841E0	2.033663273E0
2.338998152E0	-6.317687631E-1	2.040993452E0	1.375017166E0
2.347401173E0	-6.676560640E-1	2.789433956E0	-2.538070381E-1
2.355804194E0	-7.258392572E-1	2.318165302E0	-1.847049356E0
2.364207215E0	-8.962656260E-1	2.466295809E-1	-5.398362875E-1
2.372610236E0	-7.806627750E-1	-6.024481058E-1	2.688644171E0
2.381013257E0	-6.157340407E-1	-9.315420873E-3	4.443913937E0
2.389416277E0	-5.085303187E-1	6.340594292E-1	3.656989813E0
2.397819298E0	-5.951179266E-1	9.446752667E-1	1.415180445E0
2.406222319E0	-7.423321605E-1	1.234216928E0	-6.749862432E-2
2.414625340E0	-7.815790772E-1	1.220778227E0	-6.398624927E-2
2.423028361E0	-6.339067221E-1	9.071081877E-1	8.693883419E-1
2.431431382E0	-4.440859556E-1	5.491516590E-1	1.595074892E0
2.439834402E0	-3.226800561E-1	6.826218218E-2	1.789324284E0
2.448237423E0	-3.504736125E-1	-1.238492802E-1	1.540556788E0
2.456640444E0	-5.111264586E-1	8.353336155E-2	1.248266339E0
2.465043465E0	-5.580089688E-1	3.307738006E-1	1.195428133E0
2.473446486E0	-4.382829070E-1	5.015056133E-1	1.231468081E0
2.481849507E0	-3.148917556E-1	6.503996253E-1	1.065317631E0
2.490252527E0	-3.049654961E-1	7.748597264E-1	7.111788988E-1
2.498655548E0	-3.232909143E-1	6.355865598E-1	5.100574493E-1
2.507058569E0	-2.794626355E-1	3.494046330E-1	6.247440577E-1
2.515461590E0	-2.359397560E-1	1.220167428E-1	9.063445926E-1
2.523864611E0	-2.530434728E-1	-4.963133857E-2	1.089140654E0
2.532267632E0	-2.611372173E-1	-1.386623234E-1	1.140451789E0
2.540670652E0	-2.228065431E-1	-1.375933439E-1	1.134037971E0
2.549073673E0	-1.834068894E-1	-1.001789495E-1	1.091125965E0
2.557476694E0	-1.748550236E-1	9.926267900E-3	1.031720996E0
2.565879715E0	-1.739387512E-1	8.964183182E-2	1.023627281E0
2.574282736E0	-1.608055383E-1	1.003316641E-1	1.083032131E0
2.582685757E0	-1.409530044E-1	1.296523362E-1	1.145949483E0
2.591088777E0	-1.502684206E-1	6.704048812E-2	1.174506545E0
2.599491798E0	-1.601946950E-1	-1.359135211E-1	1.185654521E0
2.607894819E0	-1.592784226E-1	-2.933593988E-1	1.173590302E0
2.616297840E0	-1.707318127E-1	-3.788780272E-1	1.127929449E0
2.624700861E0	-1.652341783E-1	-3.900259733E-1	1.064401388E0
2.633103882E0	-1.516428292E-1	-3.402419090E-1	1.019504070E0
2.641506902E0	-1.624853760E-1	-3.089359999E-1	1.007745266E0
2.649909923E0	-1.571404636E-1	-2.715215981E-1	9.917105436E-1
2.658312944E0	-1.550024897E-1	-2.570139766E-1	9.642223716E-1
2.666715965E0	-1.502684206E-1	-2.870981991E-1	9.512419105E-1
2.675118986E0	-1.449235082E-1	-3.222219348E-1	9.428427219E-1
2.683522007E0	-1.369825006E-1	-3.573456407E-1	9.123004079E-1
2.691925027E0	-1.185043678E-1	-3.886515796E-1	8.681666851E-1
2.700328048E0	-1.073564067E-1	-4.059080184E-1	8.205205798E-1
2.708731069E0	-9.437590092E-2	-3.965925872E-1	7.731798887E-1
2.717134090E0	-7.788302749E-2	-4.059080184E-1	7.369872332E-1
2.725537111E0	-6.490252167E-2	-4.466820657E-1	7.189671993E-1
2.733940132E0	-5.115845799E-2	-4.691306949E-1	7.157602906E-1
2.742343152E0	-3.680354729E-2	-4.752391577E-1	7.227849960E-1
2.750746173E0	-1.832541823E-2	-4.634803534E-1	7.385143638E-1
2.759149194E0	1.847812906E-2	-4.793623984E-1	7.925743461E-1
2.767552215E0	2.275406010E-2	-4.581354558E-1	9.165763259E-1
2.775955236E0	1.588202827E-2	-2.994678617E-1	8.822161555E-1
2.784358257E0	7.330167107E-3	-4.013266563E-1	7.690566778E-1
2.792761277E0	-4.275931045E-3	-4.324798584E-1	7.389724851E-1
2.801164298E0	1.374406274E-3	-4.031592011E-1	7.786775231E-1
2.809567319E0	3.665083554E-3	-3.600944579E-1	8.127322793E-1
2.817970340E0	8.551862091E-3	-3.223746419E-1	8.104416132E-1
2.826373361E0	2.351761982E-2	-2.916795611E-1	8.069292307E-1
2.834776382E0	2.687728032E-2	-2.870981991E-1	8.220477104E-1
2.843179402E0	2.382304333E-2	-3.083251417E-1	8.481613994E-1
2.851582423E0	1.985253580E-2	-3.416163325E-1	8.695410490E-1
2.859985444E0	1.847812906E-2	-3.891097009E-1	8.857285380E-1
2.868388465E0	2.321219631E-2	-4.095730782E-1	9.055810571E-1
2.876791486E0	3.237490356E-2	-4.301891923E-1	9.449806809E-1
2.885194507E0	4.306473210E-2	-4.298837483E-1	1.002400398E0
2.893597527E0	5.467082933E-2	-3.895678520E-1	1.066539288E0
2.902000548E0	6.139015034E-2	-2.991624475E-1	1.132816195E0
2.910403569E0	6.123743951E-2	-1.885990947E-1	1.194817185E0
2.918806590E0	5.329642445E-2	-8.948912472E-2	1.262315869E0
2.927209611E0	3.787253052E-2	-2.199050039E-2	1.336686492E0
2.935612632E0	2.321219631E-2	1.985253533E-3	1.415485859E0
2.944015652E0	1.007897966E-2	-6.413896102E-3	1.493063450E0
2.952418673E0	-1.328592747E-2	-6.398624927E-2	1.575680494E0
2.960821694E0	-4.062134400E-2	-1.618745178E-1	1.671888947E0
2.969224715E0	-4.749337584E-2	-2.670929730E-1	1.773594975E0
2.977627736E0	-2.626643144E-2	-3.104631305E-1	1.872552276E0
2.986030757E0	2.183778957E-2	-2.321219593E-1	1.967539072E0
2.994433777E0	5.772506446E-2	-1.374406368E-1	2.060845852E0
3.002836798E0	3.634541109E-2	-2.388412803E-1	2.113531590E0
3.011239819E0	-2.183778957E-2	-5.161659122E-1	2.074284554E0
3.019642840E0	-9.132166207E-2	-8.350282311E-1	1.969829679E0
3.028045861E0	-1.786728203E-1	-1.131441832E0	1.950435281E0
3.036448882E0	-2.864873707E-1	-1.455801725E0	2.106353998E0
3.044851902E0	-4.091149569E-1	-1.724574566E0	2.418344259E0
3.053254923E0	-5.619794726E-1	-1.856364846E0	2.871898413E0
3.061657944E0	-6.604785919E-1	-1.909661293E0	3.420591831E0
3.070060965E0	-7.976137996E-1	-1.641041160E0	3.738843441E0
3.078463986E0	-7.725690603E-1	-8.211314082E-1	3.416926861E0
3.086867007E0	-5.572454333E-1	-4.575245976E-1	2.710787535E0
3.095270027E0	-4.530959427E-1	-7.026270628E-1	2.194316149E0
3.103673048E0	-4.216373265E-1	-1.096623540E0	1.916685939E0
3.112076069E0	-4.304946065E-1	-1.606070161E0	1.892404795E0
3.120479090E0	-4.946335554E-1	-2.141630411E0	2.021904469E0
3.128882111E0	-4.566083252E-1	-2.456522226E0	2.030150890E0
3.137285132E0	-3.648285270E-1	-2.428270578E0	1.790851474E0
3.145688152E0	-3.359659910E-1	-2.207602024E0	1.386623263E0
3.154091173E0	-3.520007432E-1	-1.931040883E0	1.025307178E0
3.162494194E0	-3.610107303E-1	-1.597518325E0	7.230904698E-1
3.170897215E0	-3.315373361E-1	-1.264606595E0	4.425588250E-1
3.179300236E0	-3.307738006E-1	-1.038898468E0	2.591519356E-1
3.187703257E0	-3.509317636E-1	-7.664605975E-1	1.301104724E-1
3.196106277E0	-3.785725832E-1	-4.362976551E-1	-2.809897438E-2
3.204509298E0	-4.088095427E-1	-1.791309565E-1	-2.290677279E-1
3.212912319E0	-4.399627447E-1	-1.863084175E-2	-4.708105326E-1
3.221315340E0	-4.746283293E-1	9.361234307E-2	-7.452336550E-1
3.229718361E0	-5.106683373E-1	2.049392611E-1	-1.054016948E0
3.238121382E0	-5.186093450E-1	2.776300907E-1	-1.374100924E0
3.246524402E0	-5.095993280E-1	2.988570333E-1	-1.662878990E0
3.254927423E0	-5.004366040E-1	2.681619525E-1	-1.889808655E0
3.263330444E0	-4.828747511E-1	1.953184158E-1	-2.041298866E0
3.271733465E0	-4.431696832E-1	1.294996142E-1	-2.158581495E0
3.280136486E0	-3.830012381E-1	6.719319522E-2	-2.294342279E0
3.288539507E0	-3.239017725E-1	-1.282779220E-2	-2.440334797E0
3.296942527E0	-2.863346636E-1	-3.512371704E-2	-2.598391533E0
3.305345548E0	-2.612899244E-1	2.397575416E-2	-2.766374588E0
3.313748569E0	-2.367033064E-1	1.212531775E-1	-2.930692434E0
3.322151590E0	-2.087570578E-1	2.220429778E-1	-3.100966215E0
3.330554611E0	-1.882936656E-1	3.539859951E-1	-3.299491405E0
3.338957632E0	-1.824906170E-1	5.541911721E-1	-3.471903086E0
3.347360652E0	-1.672194302E-1	7.864658237E-1	-3.605983973E0
3.355763673E0	-1.417165697E-1	1.003927469E0	-3.732276678E0
3.364166694E0	-1.145338640E-1	1.227344871E0	-3.906673670E0
3.372569715E0	-9.437590092E-2	1.392273664E0	-4.101533890E0
3.380972736E0	-7.421794534E-2	1.493826985E0	-4.292576313E0
3.389375757E0	-3.939964995E-2	1.506654739E0	-4.464682579E0
3.397778777E0	8.246437646E-3	1.426328301E0	-4.597236633E0
3.406181798E0	7.055285573E-2	1.269951463E0	-4.692681313E0
3.414584819E0	1.282779276E-1	1.133885264E0	-4.783086777E0
3.422987840E0	1.795890927E-1	1.037524104E0	-4.866620064E0
3.431390861E0	2.446443290E-1	8.973346353E-1	-4.908463001E0
3.439793882E0	3.177932799E-1	7.463026643E-1	-4.944655895E0
3.448196902E0	3.979669809E-1	5.520532131E-1	-5.014139652E0
3.456599923E0	4.385883212E-1	2.513636351E-1	-5.051248550E0
3.465002944E0	4.338542521E-1	-4.275930673E-2	-5.005740643E0
3.473405965E0	4.401154518E-1	-2.988570333E-1	-4.880211353E0
3.481808986E0	4.393518865E-1	-5.856497884E-1	-4.739411354E0
3.490212007E0	3.203893900E-1	-8.115105629E-1	-4.538747787E0
3.498615027E0	1.107160673E-1	-9.946120381E-1	-4.211181164E0
3.507018048E0	-8.246437646E-3	-1.015686274E0	-3.833219290E0
3.515421069E0	-5.344913341E-3	-8.301414251E-1	-3.548259020E0
3.523824090E0	1.252236869E-2	-5.299099684E-1	-3.289870739E0
3.532227111E0	3.054236295E-3	-4.749337584E-2	-2.994525909E0
3.540630132E0	-4.123218823E-3	4.964661002E-1	-2.613968134E0
3.549033152E0	1.603474095E-2	8.991671801E-1	-2.147280931E0
3.557436173E0	2.473931387E-2	1.125944257E0	-1.656617761E0
3.565839194E0	2.657185495E-2	1.133579850E0	-1.139535546E0
3.574242215E0	1.496575773E-2	9.307785034E-1	-5.662553906E-1
3.582645236E0	-1.893626526E-2	6.565080881E-1	2.076880634E-2
3.591048257E0	-5.635065958E-2	3.614688516E-1	5.975613594E-1
3.599451277E0	-4.642439261E-2	6.291726977E-2	1.105022669E0
3.607854298E0	-4.169032723E-2	-3.153499067E-1	1.505280375E0
3.616257319E0	-9.391776472E-2	-7.591304183E-1	1.754811406E0
3.624660340E0	-9.697200358E-2	-1.191915751E0	1.783215880E0
3.633063361E0	-1.491994411E-1	-1.511236072E0	1.397007704E0
3.641466382E0	-1.337755471E-1	-1.645317078E0	5.570927262E-1
3.649869402E0	-3.726168349E-2	-1.631267548E0	-4.190412164E-1
3.658272423E0	-1.481304597E-2	-1.205812454E0	-3.872771561E-1
3.666675444E0	-1.879882365E-1	-7.404996157E-1	1.019809484E0
3.675078465E0	-3.283303976E-1	-8.568660021E-1	2.466448545E0
3.683481486E0	-1.238492802E-1	-1.310725451E0	3.353398800E0
3.691884507E0	1.072036922E-1	-1.330272675E0	2.990708113E0
3.700287527E0	5.039489828E-3	7.589777559E-2	1.473058224E0
3.708690548E0	-2.176143378E-1	1.498408318E0	1.247655526E-1
3.717093569E0	-2.667875290E-1	1.436254621E0	-1.528645307E-1
3.725496590E0	-1.459924877E-1	9.407047629E-1	2.186833173E-1
3.733899611E0	-2.718270384E-2	3.683409095E-1	7.157602906E-1
3.742302632E0	-6.612421572E-2	-3.361186981E-1	1.061652541E0
3.750705652E0	-2.125748396E-1	-7.124006152E-1	1.186112642E0
3.759108673E0	-2.983988822E-1	-7.111788988E-1	1.247960925E0
3.767511694E0	-2.374668717E-1	-6.157340407E-1	1.251931429E0
3.775914715E0	-1.348445266E-1	-4.460712075E-1	1.104411840E0
3.784317736E0	-9.712471068E-2	-1.925695986E-1	7.783721089E-1
3.792720757E0	-6.077930331E-2	-4.291202128E-2	4.249969721E-1
3.801123777E0	-7.635590620E-3	-1.246128380E-1	2.594573796E-1
3.809526798E0	2.367033064E-2	-3.382566571E-1	3.533751369E-1
3.817929819E0	2.000524849E-2	-4.537068009E-1	5.442649126E-1
3.826332840E0	2.122694254E-2	-5.314370990E-1	7.046123147E-1
3.834735861E0	3.741439432E-2	-5.563291311E-1	7.611156702E-1
3.843138882E0	7.024743408E-2	-5.329642296E-1	7.267554998E-1
3.851541902E0	1.134648770E-1	-4.801259339E-1	6.461237073E-1
3.859944923E0	1.511846930E-1	-4.779879749E-1	5.612159371E-1
3.868347944E0	1.834068894E-1	-5.173876286E-1	5.121954083E-1
3.876750965E0	2.020377368E-1	-5.493044257E-1	5.253286362E-1
3.885153986E0	2.108950168E-1	-5.604523420E-1	5.917583108E-1
3.893557007E0	2.121167034E-1	-5.668662786E-1	6.558972597E-1
3.901960027E0	2.086043358E-1	-5.325061083E-1	6.846070886E-1
3.910363048E0	2.049392611E-1	-4.837910235E-1	6.939224601E-1
3.918766069E0	2.037175596E-1	-4.401154518E-1	6.896465421E-1
3.927169090E0	2.021904439E-1	-4.126273096E-1	6.814001203E-1
3.935572111E0	1.966928244E-1	-4.289674759E-1	7.007945180E-1
3.943975132E0	1.904316396E-1	-4.251496792E-1	7.438592315E-1
3.952378152E0	1.800472289E-1	-4.382829070E-1	7.850914598E-1
3.960781173E0	1.693574041E-1	-4.268295169E-1	8.119687438E-1
3.969184194E0	1.508792788E-1	-3.747547865E-1	8.105943203E-1
3.977587215E0	1.299577504E-1	-2.953446507E-1	7.930324674E-1
3.985990236E0	1.127013192E-1	-1.948602796E-1	7.652388811E-1
3.994393257E0	1.073564067E-1	-1.423274130E-1	7.366818190E-1
4.002796277E0	1.043021679E-1	-1.258345395E-1	7.055285573E-1
4.011199298E0	1.065928489E-1	-1.389677525E-1	6.771242023E-1
4.019602319E0	1.081199646E-1	-1.663031727E-1	6.508577466E-1
4.028005340E0	1.111742035E-1	-1.921114624E-1	6.340594292E-1
4.036408361E0	1.111742035E-1	-1.956238300E-1	6.277982593E-1
4.044811382E0	1.097997949E-1	-1.858502775E-1	6.264238358E-1
4.053214402E0	1.122431830E-1	-1.772984117E-1	6.099309921E-1
4.061617423E0	1.136175916E-1	-1.456870735E-1	5.926745534E-1
4.070020444E0	1.076618284E-1	-1.108687744E-1	5.934380889E-1
4.078423465E0	9.865183383E-2	-4.856235534E-2	5.914528370E-1
4.086826486E0	9.345962852E-2	1.221694518E-3	5.883986354E-1
4.095229507E0	8.521319181E-2	4.199574888E-2	5.948125124E-1
4.103632527E0	7.849387079E-2	5.711421743E-2	6.059604883E-1
4.112035548E0	7.925742865E-2	7.773031294E-2	6.082511544E-1
4.120438569E0	8.704573661E-2	1.175880954E-1	6.048914790E-1
4.128841590E0	8.994726092E-2	1.342336833E-1	5.998520255E-1
4.137244611E0	9.162709117E-2	1.088835225E-1	5.836645365E-1
4.145647632E0	8.628217876E-2	3.558185324E-2	5.732801557E-1
4.154050652E0	7.696675509E-2	-3.206948191E-2	5.964923501E-1
4.162453673E0	6.322269142E-2	-6.230641901E-2	6.450546980E-1
4.170856694E0	6.520794332E-2	-6.566607859E-3	6.907155514E-1
4.179259715E0	7.085828483E-2	6.429167092E-2	7.075138092E-1
4.187662736E0	7.162184268E-2	1.148392856E-1	6.952968836E-1
4.196065757E0	7.452336699E-2	1.310267299E-1	6.962131858E-1
4.204468777E0	6.994201243E-2	1.572931707E-1	7.130114436E-1
4.212871798E0	6.887302548E-2	1.255291104E-1	7.183563709E-1
4.221274819E0	6.276455522E-2	9.666658193E-2	7.059867382E-1
4.229677840E0	5.635065958E-2	1.154501289E-1	7.040014863E-1
4.238080861E0	7.742489129E-2	7.482878864E-2	7.114843726E-1
4.246483882E0	9.376505762E-2	-2.092151903E-2	6.980457306E-1
4.254886902E0	1.015533581E-1	-1.540862173E-1	7.029324770E-1
4.263289923E0	1.023169160E-1	-2.577775419E-1	7.424848676E-1
4.271692944E0	1.006370857E-1	-3.148917556E-1	7.689039707E-1
4.280095965E0	1.050657257E-1	-3.213056624E-1	7.803573608E-1
4.288498986E0	1.149920002E-1	-3.022166789E-1	8.092198968E-1
4.296902007E0	1.317902952E-1	-3.147390485E-1	8.212841153E-1
4.305305027E0	1.467560530E-1	-3.816268146E-1	8.215895891E-1
4.313708048E0	1.461452097E-1	-4.526378214E-1	8.649597168E-1
4.322111069E0	1.525591016E-1	-4.306473136E-1	9.512419105E-1
4.330514090E0	1.546970755E-1	-3.620797098E-1	1.017366052E0
4.338917111E0	1.627907902E-1	-2.965663373E-1	1.060430884E0
4.347320132E0	1.721062213E-1	-2.325800955E-1	1.107771516E0
4.355723152E0	1.820324808E-1	-2.276933193E-1	1.168245435E0
4.364126173E0	1.913478971E-1	-2.747285664E-1	1.223527074E0
4.372529194E0	2.017323077E-1	-3.275668323E-1	1.272853017E0
4.380932215E0	2.098260373E-1	-3.436015844E-1	1.327676535E0
4.389335236E0	2.147128135E-1	-3.242071867E-1	1.412737012E0
4.397738257E0	2.165453583E-1	-2.640387416E-1	1.518871665E0
4.406141277E0	2.188360244E-1	-1.876828223E-1	1.626075387E0
4.414544298E0	2.247917950E-1	-1.325538605E-1	1.728697777E0
4.422947319E0	2.350234836E-1	-7.009471953E-2	1.832389116E0
4.431350340E0	2.620534599E-1	3.542914242E-2	1.946922898E0
4.439753361E0	2.909159958E-1	1.820324808E-1	2.071993828E0
4.448156382E0	2.710634768E-1	2.515163720E-1	2.199661016E0
4.456559402E0	1.954711229E-1	1.989834905E-1	2.320608854E0
4.464962423E0	9.590301663E-2	1.533226669E-1	2.429797649E0
4.473365444E0	5.039489828E-3	2.342599183E-1	2.560824394E0
4.481768465E0	-1.015533581E-1	4.109475017E-1	2.742246151E0
4.490171486E0	-2.131856978E-1	6.029062271E-1	2.949323177E0
4.498574507E0	-3.028275371E-1	8.084563613E-1	3.164341450E0
4.506977527E0	-3.791834414E-1	9.927794933E-1	3.401808500E0
4.515380548E0	-4.399627447E-1	1.125180602E0	3.692724466E0
4.523783569E0	-4.384356141E-1	1.462368369E0	3.806647301E0
4.532186590E0	-2.276933193E-1	1.836512327E0	3.239170313E0
4.540589611E0	-9.223793447E-2	1.616607308E0	2.540819168E0
4.548992632E0	-4.321744293E-2	1.320957184E0	2.208060026E0
4.557395652E0	-5.986303091E-2	1.203674555E0	2.288081169E0
4.565798673E0	-9.361234307E-2	1.006981730E0	2.511040449E0
4.574201694E0	-1.527118124E-2	6.554391384E-1	2.537917614E0
4.582604715E0	1.227803007E-1	4.269822240E-1	2.236159086E0
4.591007736E0	1.356080920E-1	3.503209054E-1	1.948144674E0
4.599410757E0	9.116895497E-2	5.141806602E-1	1.788866162E0
4.607813777E0	6.780404598E-2	9.556705356E-1	1.502073407E0
4.616216798E0	6.016845629E-2	1.115407109E0	1.132816195E0
4.624619819E0	1.594311297E-1	9.069554806E-1	8.194515705E-1
4.633022840E0	1.974563748E-1	7.566870451E-1	4.917320311E-1
4.641425861E0	1.986780763E-1	6.047387719E-1	2.837385535E-1
4.649828882E0	2.261662036E-1	3.694098890E-1	2.382304370E-1
4.658231902E0	2.716743052E-1	2.525853515E-1	1.655396074E-1
4.666634923E0	3.205420971E-1	2.367033064E-1	-3.710897267E-2
4.675037944E0	3.843756318E-1	2.005106062E-1	-3.257342875E-1
4.683440965E0	4.642439187E-1	1.226275861E-1	-6.145123243E-1
4.691843986E0	5.334223509E-1	4.001049697E-2	-8.541171551E-1
4.700247007E0	6.004628539E-1	-6.749862432E-2	-1.052489877E0
4.708650027E0	6.763606071E-1	-1.834068894E-1	-1.227650285E0
4.717053048E0	7.461498976E-1	-2.663294077E-1	-1.375933409E0
4.725456069E0	8.240329623E-1	-2.663294077E-1	-1.522842169E0
4.733859090E0	8.695410490E-1	-1.966928244E-1	-1.702431321E0
4.742262111E0	8.826742768E-1	-6.887302548E-2	-1.914395332E0
4.750665132E0	9.213103652E-1	8.414421231E-2	-2.105132341E0
4.759068152E0	9.810206890E-1	2.354816198E-1	-2.265785217E0
4.767471173E0	1.023321867E0	3.930802047E-1	-2.425979853E0
4.775874194E0	1.040425539E0	5.551074743E-1	-2.613509893E0
4.784277215E0	1.058903694E0	7.001836896E-1	-2.811729908E0
4.792680236E0	1.084559321E0	8.205205798E-1	-3.001703501E0
4.801083257E0	1.104106426E0	9.037485123E-1	-3.174420595E0
4.809486277E0	1.114643574E0	9.723161459E-1	-3.339501858E0
4.817889298E0	1.116476059E0	1.039662004E0	-3.480607748E0
4.826292319E0	1.112352848E0	1.140299082E0	-3.603540659E0
4.834695340E0	1.109909415E0	1.276059866E0	-3.728917122E0
4.843098361E0	1.116170645E0	1.400520086E0	-3.874604225E0
4.851501382E0	1.132816195E0	1.486191392E0	-4.029301167E0
4.859904402E0	1.151294351E0	1.511083364E0	-4.182165623E0
4.868307423E0	1.163663983E0	1.463895440E0	-4.330296040E0
4.876710444E0	1.181684017E0	1.325691223E0	-4.461628437E0
4.885113465E0	1.199551344E0	1.085933685E0	-4.557837009E0
4.893516486E0	1.200773001E0	8.047912717E-1	-4.621823311E0
4.901919507E0	1.170688748E0	5.267030597E-1	-4.667483807E0
4.910322527E0	1.102579355E0	2.800734639E-1	-4.714213848E0
4.918725548E0	1.000720501E0	6.581879407E-2	-4.783239365E0
4.927128569E0	8.626690507E-1	-1.638597846E-1	-4.866925716E0
4.935531590E0	6.945333481E-1	-4.231644273E-1	-4.927552223E0
4.943934611E0	5.008947253E-1	-6.913263798E-1	-4.940227032E0
4.952337632E0	2.974826097E-1	-9.171871543E-1	-4.892886639E0
4.960740652E0	1.104106456E-1	-1.070967913E0	-4.802175522E0
4.969143673E0	-3.512371704E-2	-1.174506545E0	-4.662291527E0
4.977546694E0	-1.131594554E-1	-1.227955699E0	-4.477357864E0
4.985949715E0	-1.191152185E-1	-1.253916740E0	-4.262644768E0
4.994352736E0	-7.849387079E-2	-1.354859233E0	-3.985625744E0
5.002755757E0	-6.841489673E-2	-1.479166627E0	-3.565057278E0
5.011158777E0	-8.612946421E-2	-1.342336893E0	-2.983072519E0
5.019561798E0	-7.146912813E-2	-9.712471366E-1	-2.391925097E0
5.027964819E0	-8.689302206E-2	-5.256340504E-1	-1.944021344E0
5.036367840E0	-1.288887709E-1	-1.107160673E-1	-1.646233320E0
5.044770861E0	-2.003578991E-1	1.047603041E-1	-1.321873426E0
5.053173882E0	-3.043546379E-1	7.009471953E-2	-8.214368224E-1
5.061576902E0	-4.089622498E-1	-6.749862432E-2	-2.089097649E-1
5.069979923E0	-4.566083252E-1	-1.441599578E-1	4.442386627E-1
5.078382944E0	-4.886777997E-1	-1.220167428E-1	1.080741525E0
5.086785965E0	-4.877615273E-1	7.635590434E-2	1.617981672E0
5.095188986E0	-4.475983381E-1	4.450022280E-1	2.050003290E0
5.103592007E0	-4.219427407E-1	1.070815206E0	2.301825285E0
5.111995027E0	-4.269822240E-1	1.994416356E0	2.078866005E0
5.120398048E0	-3.817795515E-1	2.927332878E0	1.202605486E0
5.128801069E0	-2.495311052E-1	3.503056288E0	-3.535278440E-1
5.137204090E0	-4.253024161E-1	3.050876617E0	-1.414569497E0
5.145607111E0	-1.250557065E0	1.145949483E0	-9.657495022E-1
5.154010132E0	-1.220930934E0	-3.089359999E-1	1.266133666E0
5.162413152E0	-1.100594044E0	-7.867712975E-1	3.430365562E0
5.170816173E0	-1.039967418E0	-1.203369126E-1	4.165214539E0
5.179219194E0	-9.045121074E-1	9.306257963E-1	3.069354773E0
5.187622215E0	-8.079982400E-1	1.673874259E0	1.110367656E0
5.196025236E0	-7.360709310E-1	1.865832925E0	1.119377613E-1
5.204428257E0	-5.274665952E-1	1.747786760E0	1.745496094E-1
5.212831277E0	-2.933593988E-1	1.364327312E0	6.048914790E-1
5.221234298E0	-1.985253543E-1	8.005153537E-1	1.084101200E0
5.229637319E0	-3.280249834E-1	6.658235192E-2	1.368145108E0
5.238040340E0	-4.553866386E-1	-5.331169367E-1	1.493521571E0
5.246443361E0	-4.708105326E-1	-7.490514517E-1	1.581941724E0
5.254846382E0	-4.431696832E-1	-6.865923405E-1	1.589882731E0
5.263249402E0	-4.396573007E-1	-5.057815313E-1	1.347376347E0
5.271652423E0	-4.289674759E-1	-2.486148328E-1	8.657232523E-1
5.280055444E0	-3.480302393E-1	-2.290677279E-3	4.262186885E-1
5.288458465E0	-2.721324563E-1	6.261184346E-3	3.145863414E-1
5.296861486E0	-2.125748396E-1	-9.636115283E-2	4.106420577E-1
5.305264507E0	-1.731752008E-1	-2.018850148E-1	5.784723759E-1
5.313667527E0	-1.673721522E-1	-3.064926267E-1	7.377507687E-1
5.322070548E0	-1.498102844E-1	-4.066715539E-1	8.634325862E-1
5.330473569E0	-1.282779276E-1	-4.143071473E-1	9.271134138E-1
5.338876590E0	-1.130067408E-1	-3.455868363E-1	9.309312105E-1
5.347279611E0	-1.017060652E-1	-2.887780368E-1	8.918370008E-1
5.355682632E0	-1.009425074E-1	-2.373141646E-1	8.553388715E-1
5.364085652E0	-1.072036922E-1	-2.237228155E-1	8.568660021E-1
5.372488673E0	-1.117850468E-1	-2.348707765E-1	8.996253014E-1
5.380891694E0	-1.149920002E-1	-2.501419485E-1	9.594883323E-1
5.389294715E0	-1.209477559E-1	-3.006895781E-1	1.012784719E0
5.397697736E0	-1.244601309E-1	-3.571929336E-1	1.043785214E0
5.406100757E0	-1.316375881E-1	-3.848337829E-1	1.054322362E0
5.414503777E0	-1.378987730E-1	-4.042281806E-1	1.045923233E0
5.422906798E0	-1.357607991E-1	-4.091149569E-1	1.021031141E0
5.431309819E0	-1.368297935E-1	-3.909422457E-1	9.904888272E-1
5.439712840E0	-1.366770715E-1	-3.649812341E-1	9.637642503E-1
5.448115861E0	-1.285833418E-1	-3.413109183E-1	9.252808690E-1
5.456518882E0	-1.221694499E-1	-3.381039500E-1	8.935168386E-1
5.464921902E0	-1.240019947E-1	-3.571929336E-1	8.776348233E-1
5.473324923E0	-1.258345395E-1	-4.062134326E-1	8.654178381E-1
5.481727944E0	-1.137702987E-1	-4.445441067E-1	8.536590338E-1
5.490130965E0	-9.697200358E-2	-4.413371384E-1	8.475505710E-1
5.498533986E0	-7.666133344E-2	-3.683409095E-1	8.345700502E-1
5.506937007E0	-5.543438718E-2	-2.809897363E-1	8.087617755E-1
5.515340027E0	-3.710897267E-2	-2.234173864E-1	7.715001106E-1
5.523743048E0	-2.015795931E-2	-2.008160353E-1	7.417212725E-1
5.532146069E0	2.901524538E-3	-2.121167034E-1	7.363763452E-1
5.540549090E0	5.818320066E-2	-2.582356930E-1	7.824953198E-1
5.548952111E0	3.359659761E-2	-2.460187376E-1	8.544226289E-1
5.557355132E0	4.581354558E-2	-1.714953631E-1	7.379034758E-1
5.565758152E0	4.611896724E-2	-2.816005945E-1	6.311579347E-1
5.574161173E0	5.726693198E-2	-2.678565085E-1	6.131379604E-1
5.582564194E0	7.085828483E-2	-2.336490750E-1	6.470399499E-1
5.590967215E0	7.727217674E-2	-1.922641695E-1	6.438329816E-1
5.599370236E0	8.536590636E-2	-1.915006191E-1	6.238277555E-1
5.607773257E0	9.300149232E-2	-2.211267054E-1	6.200099587E-1
5.616176277E0	9.743013978E-2	-2.673983872E-1	6.368082762E-1
5.624579298E0	1.052184403E-1	-3.246653080E-1	6.574243903E-1
5.632982319E0	1.143811494E-1	-3.506263196E-1	6.711684465E-1
5.641385340E0	1.281252056E-1	-3.495573401E-1	6.839962006E-1
5.649788361E0	1.426328421E-1	-3.368822634E-1	6.908682585E-1
5.658191382E0	1.563768983E-1	-3.188622594E-1	6.983511448E-1
5.666594402E0	1.768402755E-1	-3.164188862E-1	7.024743557E-1
5.674997423E0	1.915006191E-1	-3.214583695E-1	7.122479081E-1
5.683400444E0	2.075353563E-1	-3.223746419E-1	7.275190949E-1
5.691803465E0	2.258607745E-1	-3.176405728E-1	7.365291119E-1
5.700206486E0	2.383831441E-1	-3.148917556E-1	7.606575489E-1
5.708609507E0	2.451024652E-1	-2.939702570E-1	8.215895891E-1
5.717012527E0	2.533488870E-1	-2.296785712E-1	8.987090588E-1
5.725415548E0	2.597627938E-1	-1.221694499E-1	9.703308940E-1
5.733818569E0	2.495311052E-1	-2.993151546E-2	1.045465112E0
5.742221590E0	2.353289127E-1	6.261184067E-2	1.131441832E0
5.750624611E0	2.244863659E-1	1.420219839E-1	1.227039456E0
5.759027632E0	2.202104330E-1	1.976090819E-1	1.323706031E0
5.767430652E0	2.231119573E-1	2.560977042E-1	1.414111376E0
5.775833673E0	2.263189107E-1	3.020639718E-1	1.509403586E0
5.784236694E0	2.318165302E-1	3.075616062E-1	1.603779435E0
5.792639715E0	2.443388999E-1	2.889307439E-1	1.690977931E0
5.801042736E0	2.796153426E-1	3.358132839E-1	1.776343822E0
5.809445757E0	3.231382072E-1	4.437805414E-1	1.873010397E0
5.817848777E0	3.353551328E-1	4.779879749E-1	1.968455315E0
5.826251798E0	3.005368412E-1	3.208475113E-1	2.024195194E0
5.834654819E0	2.570139766E-1	4.489727318E-2	2.038397312E0
5.843057840E0	2.179197669E-1	-2.483094037E-1	2.053668499E0
5.851460861E0	1.742441803E-1	-4.761554301E-1	2.121472597E0
5.859863882E0	1.017060652E-1	-6.329904795E-1	2.247917891E0
5.868266902E0	1.206423342E-2	-7.933378816E-1	2.398186445E0
5.876669923E0	-8.704573661E-2	-9.688037634E-1	2.534863472E0
5.885072944E0	-1.884463727E-1	-1.229330063E0	2.699944973E0
5.893475965E0	-2.652604282E-1	-1.395785928E0	2.919849873E0
5.901878986E0	-3.249707520E-1	-1.579803705E0	3.281318665E0
5.910282007E0	-4.359922409E-1	-1.295454383E0	3.517105818E0
5.918685027E0	-3.443651497E-1	-7.314895988E-1	3.311708450E0
5.927088048E0	-1.501157135E-1	-4.521796703E-1	2.853420258E0
5.935491069E0	-2.794626169E-2	-3.422271907E-1	2.534252644E0
5.943894090E0	9.773556143E-3	-2.637332976E-1	2.427048922E0
5.952297111E0	-3.894151375E-2	-3.859027624E-1	2.278613091E0
5.960700132E0	-1.430909634E-1	-7.689039707E-1	1.950435281E0
5.969103152E0	-2.017323077E-1	-1.295148849E0	1.592326045E0
5.977506173E0	-1.814216375E-1	-1.540251374E0	1.305685997E0
5.985909194E0	-1.659977436E-1	-1.413042426E0	1.037218690E0
5.994312215E0	-2.087570578E-1	-1.282015681E0	8.183826208E-1
6.002715236E0	-2.802261710E-1	-1.157402873E0	6.496360302E-1
6.011118257E0	-3.530697227E-1	-8.805363178E-1	4.498890042E-1
6.019521277E0	-4.014793634E-1	-4.668400288E-1	1.927223057E-1
6.027924298E0	-3.950654566E-1	-1.467560530E-1	-6.948387623E-2
6.036327319E0	-3.620797098E-1	2.901524538E-3	-3.072561622E-1
6.044730340E0	-3.684936166E-1	6.658235192E-2	-5.282301903E-1
6.053133361E0	-3.988832533E-1	7.070557028E-2	-7.403468490E-1
6.061536382E0	-4.283566475E-1	-3.817795310E-3	-9.509364963E-1
6.069939402E0	-4.538595080E-1	-9.071081877E-2	-1.200009465E0
6.078342423E0	-4.772244096E-1	-1.724116355E-1	-1.438087106E0
6.086745444E0	-5.166240931E-1	-1.747023165E-1	-1.623021126E0
6.095148465E0	-5.496098399E-1	-2.764083818E-2	-1.809329629E0
6.103551486E0	-5.592306852E-1	5.833591148E-2	-1.992889166E0
6.111954507E0	-5.404471159E-1	7.223268598E-2	-2.171867371E0
6.120357527E0	-5.056288242E-1	6.917845458E-2	-2.360161066E0
6.128760548E0	-4.804313779E-1	1.343864016E-2	-2.510582209E0
6.137163569E0	-4.657710493E-1	-2.412846684E-2	-2.625268698E0
6.145566590E0	-4.404208660E-1	-1.114796288E-2	-2.743925810E0
6.153969611E0	-4.158342779E-1	-9.620844387E-3	-2.887933016E0
6.162372632E0	-4.100312293E-1	-5.283828825E-2	-3.059581280E0
6.170775652E0	-4.178195298E-1	-7.589777559E-2	-3.236726999E0
6.179178673E0	-4.333961308E-1	-4.062134400E-2	-3.385620832E0
6.187581694E0	-4.462239146E-1	9.284878522E-2	-3.496947765E0
6.195984715E0	-4.534013867E-1	3.074088693E-1	-3.610107183E0
6.204387736E0	-4.489727318E-1	5.447230339E-1	-3.750449419E0
6.212790757E0	-4.425588250E-1	7.715001106E-1	-3.928205967E0
6.221193777E0	-4.451549351E-1	9.388722181E-1	-4.115736008E0
6.229596798E0	-4.549284875E-1	1.047755718E0	-4.287994862E0
6.237999819E0	-4.500417113E-1	1.102884769E0	-4.440095901E0
6.246402840E0	-4.265241027E-1	1.086391807E0	-4.560127735E0
6.254805861E0	-3.851391971E-1	1.045923233E0	-4.667636395E0
6.263208882E0	-3.301629424E-1	1.017824292E0	-4.768579006E0
6.271611902E0	-2.605263591E-1	1.003469348E0	-4.862649441E0
6.280014923E0	-1.783674061E-1	9.927794933E-1	-4.939311028E0
6.288417944E0	-7.757759839E-2	9.542961121E-1	-5.000700951E0
6.296820965E0	2.275406010E-2	8.770239353E-1	-5.041933060E0
6.305223986E0	1.181989461E-1	7.476770282E-1	-5.069879532E0
6.313627007E0	1.991362125E-1	5.464028716E-1	-5.058731556E0
6.322030027E0	2.489202619E-1	3.240544796E-1	-4.972296715E0
6.330433048E0	2.586938143E-1	1.139230132E-1	-4.808284283E0
6.338836069E0	2.362451702E-1	-1.369825006E-1	-4.609606266E0
6.347239090E0	1.763821393E-1	-4.750864506E-1	-4.346178055E0
6.355642111E0	8.750387281E-2	-6.679614782E-1	-4.039990902E0
6.364045132E0	9.162709117E-3	-6.450546980E-1	-3.728917122E0
6.372448152E0	-4.413371533E-2	-5.917583108E-1	-3.327132225E0
6.380851173E0	-8.796200156E-2	-3.910949528E-1	-2.862735748E0
6.389254194E0	-1.151447073E-1	-9.544488788E-2	-2.380319118E0
6.397657215E0	-1.154501289E-1	1.090362370E-1	-1.861557007E0
6.406060236E0	-1.424801201E-1	2.353289127E-1	-1.264912009E0
6.414463257E0	-1.756185889E-1	3.086305857E-1	-5.861079693E-1
6.422866277E0	-2.031067163E-1	3.350497186E-1	1.383569092E-1
6.431269298E0	-2.263189107E-1	4.019374847E-1	8.241856694E-1
6.439672319E0	-2.502946556E-1	5.082249045E-1	1.412737012E0
6.448075340E0	-2.687727809E-1	6.268820167E-1	1.844300628E0
6.456478361E0	-2.644968629E-1	7.400414348E-1	2.097038746E0
6.464881382E0	-2.664821148E-1	8.188407421E-1	2.235395432E0
6.473284402E0	-3.216110766E-1	9.320002198E-1	2.268075943E0
6.481687423E0	-4.089622498E-1	1.077229142E0	2.204242229E0
6.490090444E0	-4.839437306E-1	1.231926203E0	2.058555365E0
6.498493465E0	-6.407787800E-1	1.502531528E0	1.644400835E0
6.506896486E0	-9.042066336E-1	1.886449099E0	5.239542127E-1
6.515299507E0	-8.884773254E-1	2.217528343E0	-1.210699320E0
6.523702527E0	-6.345176101E-1	1.903552771E0	-1.531546831E0
6.532105548E0	-5.755708218E-1	5.581616759E-1	2.469350100E-1
6.540508569E0	-6.684195995E-1	-3.451287150E-1	2.720255613E0
6.548911590E0	-6.481089592E-1	-2.003578991E-1	4.492629051E0
6.557314611E0	-4.975350797E-1	3.272614181E-1	3.988069057E0
6.565717632E0	-4.856235683E-1	1.168398142E0	1.805817246E0
6.574120652E0	-6.149705052E-1	1.739387512E0	8.643488586E-2
6.582523673E0	-8.138012886E-1	1.626075387E0	1.267508045E-2
6.590926694E0	-7.988355160E-1	1.251473308E0	5.584670901E-1
6.599329715E0	-5.190674663E-1	7.664605975E-1	1.159846187E0
6.607732736E0	-2.307475507E-1	3.067980409E-1	1.615385532E0
6.616135757E0	-1.349972486E-1	-2.093679011E-1	1.825517058E0
6.624538777E0	-1.597365588E-1	-5.115845799E-1	1.907217860E0
6.632941798E0	-1.762294322E-1	-4.251496792E-1	1.938065648E0
6.641344819E0	-7.314895838E-2	-3.720059693E-1	1.873773932E0
6.649747840E0	3.054236295E-4	-2.180724740E-1	1.611262321E0
6.658150861E0	-3.283303976E-2	4.581354442E-4	1.329814434E0
6.666553882E0	-7.620319724E-2	4.734066315E-3	1.234064221E0
6.674956902E0	-7.192726433E-2	-1.282779276E-1	1.296523333E0
6.683359923E0	-5.864133686E-2	-2.237228155E-1	1.360509515E0
6.691762944E0	-5.421269313E-2	-2.768665254E-1	1.366159916E0
6.700165965E0	-3.558185324E-2	-3.132119179E-1	1.319888234E0
6.708568986E0	-2.015795931E-2	-3.142809272E-1	1.256054640E0
6.716972007E0	-1.160609815E-2	-2.849602401E-1	1.178324342E0
6.725375027E0	-6.566607859E-3	-3.110739589E-1	1.090820551E0
6.733778048E0	-1.298050396E-2	-3.767400384E-1	1.008050680E0
6.742181069E0	-8.093725890E-3	-4.253024161E-1	9.562813640E-1
6.750584090E0	-9.162708884E-4	-3.987305462E-1	9.491039515E-1
6.758987111E0	-2.260134928E-2	-4.115583301E-1	9.605573416E-1
6.767390132E0	-3.833066672E-2	-4.366030693E-1	9.579612017E-1
6.775793152E0	-4.489727318E-2	-3.900259733E-1	9.277243018E-1
6.784196173E0	-6.566607952E-2	-3.229855001E-1	8.852704167E-1
6.792599194E0	-5.573981255E-2	-2.913741469E-1	8.312104344E-1
6.801002215E0	-3.939964995E-2	-2.663294077E-1	7.606575489E-1
6.809405236E0	-3.634541109E-2	-2.785463631E-1	6.972821355E-1
6.817808257E0	-3.710897267E-2	-2.883199155E-1	6.470399499E-1
6.826211277E0	-3.191677108E-2	-2.686200738E-1	5.987830162E-1
6.834614298E0	-1.908897609E-2	-2.541124523E-1	5.499152541E-1
6.843017319E0	-3.817795310E-3	-2.541124523E-1	5.042544007E-1
6.851420340E0	3.420744836E-2	-2.701472044E-1	4.752391577E-1
6.859823361E0	6.917845458E-2	-3.080197275E-1	5.175403357E-1
6.868226382E0	6.215370819E-2	-2.675510943E-1	5.210527182E-1
6.876629402E0	7.711946964E-2	-2.930539846E-1	4.246915579E-1
6.885032423E0	7.849387079E-2	-3.839175105E-1	3.348970115E-1
6.893435444E0	8.780929446E-2	-4.059080184E-1	3.268032968E-1
6.901838465E0	9.773556143E-2	-4.132381678E-1	3.608580232E-1
6.910241486E0	1.061347127E-1	-4.161396921E-1	3.796415627E-1
6.918644507E0	1.160609797E-1	-4.350759685E-1	3.859027624E-1
6.927047527E0	1.249182671E-1	-4.647020400E-1	4.080459774E-1
6.935450548E0	1.267508119E-1	-5.123481154E-1	4.570664763E-1
6.943853569E0	1.298050433E-1	-5.702258945E-1	5.175403357E-1
6.952256590E0	1.371352077E-1	-6.365028620E-1	5.772506595E-1
6.960659611E0	1.342336833E-1	-6.861341596E-1	6.302416325E-1
6.969062632E0	1.276670843E-1	-6.945333481E-1	6.861341596E-1
6.977465652E0	1.314848661E-1	-6.632274389E-1	7.557707429E-1
6.985868673E0	1.236965731E-1	-6.291726828E-1	8.316685557E-1
6.994271694E0	1.099525094E-1	-5.792359114E-1	9.066500664E-1
7.002674715E0	1.116323397E-1	-5.114318728E-1	9.886562824E-1
7.011077736E0	1.137702987E-1	-3.761292100E-1	1.081046939E0
7.019480757E0	9.055810422E-2	-1.892099380E-1	1.177866220E0
7.027883777E0	6.093201414E-2	7.207997888E-2	1.244295835E0
7.036286798E0	4.138490185E-2	2.637332976E-1	1.268118858E0
7.044689819E0	4.062134400E-2	3.756710589E-1	1.302937150E0
7.053092840E0	5.008947477E-2	4.112529159E-1	1.358524323E0
7.061495861E0	6.184828654E-2	3.272614181E-1	1.428160906E0
7.069898882E0	7.238540053E-2	1.354553849E-1	1.498408318E0
7.078301902E0	8.276980370E-2	-1.269035190E-1	1.555675268E0
7.086704923E0	8.826743066E-2	-4.095730782E-1	1.599198103E0
7.095107944E0	1.012479365E-1	-6.372663975E-1	1.628518820E0
7.103510965E0	1.211004704E-1	-7.621846795E-1	1.655396104E0
7.111913986E0	1.528645307E-1	-7.832589149E-1	1.680135369E0
7.120317007E0	1.922641695E-1	-7.388197780E-1	1.708234310E0
7.128720027E0	2.304421216E-1	-6.684195995E-1	1.748855710E0
7.137123048E0	2.609844804E-1	-6.126797795E-1	1.825211644E0
7.145526069E0	3.009949923E-1	-5.239542127E-1	1.926917672E0
7.153929090E0	3.303156495E-1	-4.135435820E-1	2.034884930E0
7.162332111E0	3.096995652E-1	-3.852919042E-1	2.132315159E0
7.170735132E0	2.467822880E-1	-4.566083252E-1	2.193399906E0
7.179138152E0	1.498102844E-1	-6.036698222E-1	2.216917515E0
7.187541173E0	2.260134928E-2	-7.934905887E-1	2.253568172E0
7.195944194E0	-1.253764033E-1	-9.946120381E-1	2.374821424E0
7.204347215E0	-2.780882120E-1	-1.217571259E0	2.619771242E0
7.212750236E0	-3.689517379E-1	-1.344169378E0	3.033009291E0
7.221153257E0	-4.669927359E-1	-1.529256105E0	3.613619566E0
7.229556277E0	-5.273138881E-1	-1.128540277E0	3.858111382E0
7.237959298E0	-4.107947946E-1	-4.714213610E-1	3.474193811E0
7.246362319E0	-2.046338320E-1	-2.414373755E-1	2.887322187E0
7.254765340E0	-9.055810422E-2	-2.987042964E-1	2.589076042E0
7.263168361E0	-1.311794519E-1	-3.610107303E-1	2.454689741E0
7.271571382E0	-2.641914487E-1	-5.697677732E-1	2.210503578E0
7.279974402E0	-3.721587062E-1	-9.570449591E-1	1.802152157E0
7.288377423E0	-3.781144619E-1	-1.379751205E0	1.403727055E0
7.296780444E0	-2.826695740E-1	-1.684258580E0	1.125333309E0
7.305183465E0	-1.904316396E-1	-1.667307615E0	9.480349422E-1
7.313586486E0	-1.826433241E-1	-1.506349325E0	8.240329623E-1
7.321989507E0	-2.785463631E-1	-1.391662717E0	7.928797603E-1
7.330392527E0	-3.081724346E-1	-1.303700805E0	8.370134830E-1
7.338795548E0	-8.612946421E-2	-1.220014691E0	8.787037730E-1
7.347198569E0	5.253286287E-2	-1.044090629E0	7.154548764E-1
7.355601590E0	-9.300149232E-2	-3.367295563E-1	2.478512824E-1
7.364004611E0	-3.179459870E-1	6.148177385E-1	-3.842229247E-1
7.372407632E0	-4.014793634E-1	9.970554113E-1	-7.372926474E-1
7.380810652E0	-4.077405334E-1	1.021031141E0	-8.000571728E-1
7.389213673E0	-4.002576768E-1	1.041494608E0	-8.119687438E-1
7.397616694E0	-3.828485310E-1	9.936957955E-1	-9.932376146E-1
7.406019715E0	-3.461976945E-1	8.542698622E-1	-1.288887739E0
7.414422736E0	-3.202366829E-1	7.715001106E-1	-1.583163381E0
7.422825757E0	-3.019112647E-1	7.957812548E-1	-1.780772448E0
7.431228777E0	-2.651077211E-1	8.359444737E-1	-1.885532737E0
7.439631798E0	-2.104368806E-1	8.773293495E-1	-1.998692274E0
7.448034819E0	-1.447708011E-1	9.831586480E-1	-2.183931589E0
7.456437840E0	-8.246438205E-2	1.085780978E0	-2.414984703E0
7.464840861E0	-2.275406010E-2	1.122737288E0	-2.647106647E0
7.473243882E0	3.710897267E-2	1.022863746E0	-2.858612537E0
7.481646902E0	9.956810623E-2	8.005153537E-1	-3.049196720E0
7.490049923E0	1.540862173E-1	5.251759291E-1	-3.222372055E0
7.498452944E0	1.896680743E-1	2.762556672E-1	-3.355994940E0
7.506855965E0	2.026485801E-1	1.275143623E-1	-3.433419704E0
7.515258986E0	2.128802687E-1	1.221694499E-1	-3.491908312E0
7.523662007E0	2.066190839E-1	1.800472289E-1	-3.571624041E0
7.532065027E0	1.826433241E-1	3.226800561E-1	-3.701276302E0
7.540468048E0	1.447708011E-1	5.599942207E-1	-3.884835958E0
7.548871069E0	1.043021679E-1	8.220477104E-1	-4.092676640E0
7.557274090E0	7.101099193E-2	1.057682037E0	-4.286620617E0
7.565677111E0	4.825693369E-2	1.232537031E0	-4.444829941E0
7.574080132E0	5.573981255E-2	1.320346355E0	-4.557073116E0
7.582483152E0	9.468132257E-2	1.329509020E0	-4.647784233E0
7.590886173E0	1.575985998E-1	1.280946732E0	-4.716962337E0
7.599289194E0	2.199050188E-1	1.206270576E0	-4.773007870E0
7.607692215E0	2.954973578E-1	1.121515512E0	-4.834092617E0
7.616095236E0	3.608580232E-1	1.017976999E0	-4.872728348E0
7.624498257E0	4.369085133E-1	9.431481957E-1	-4.856846333E0
7.632901277E0	5.383091569E-1	8.936695457E-1	-4.820653915E0
7.641304298E0	6.346703172E-1	8.208259940E-1	-4.811796665E0
7.649707319E0	7.388197780E-1	6.609367132E-1	-4.791485786E0
7.658110340E0	7.600467205E-1	5.088357925E-1	-4.725972652E0
7.666513361E0	6.551336646E-1	2.759502530E-1	-4.534319401E0
7.674916382E0	5.479300022E-1	5.650337320E-3	-4.292881966E0
7.683319402E0	5.286883116E-1	-9.208522737E-2	-4.081834316E0
7.691722423E0	5.222744346E-1	-1.966928244E-1	-3.774119854E0
7.700125444E0	4.202629030E-1	-1.696628332E-1	-3.392645597E0
7.708528465E0	2.794626355E-1	-6.230641901E-2	-3.025679111E0
7.716931486E0	1.751604527E-1	-4.947862774E-2	-2.640234470E0
7.725334507E0	1.305686086E-1	-8.704573661E-2	-2.163315535E0
7.733737527E0	8.444963396E-2	-1.299577504E-1	-1.585606813E0
7.742140548E0	3.237490356E-2	-1.736333370E-1	-9.845330715E-1
7.750543569E0	-9.468132630E-3	-2.415900975E-1	-3.895678520E-1
7.758946590E0	-8.170082420E-2	-2.898470163E-1	1.985253543E-1
7.767349611E0	-1.872246861E-1	-2.652604282E-1	7.974610925E-1
7.775752632E0	-2.605263591E-1	-1.235438585E-1	1.367076159E0
7.784155652E0	-2.762556672E-1	1.947075576E-1	1.800777674E0
7.792558673E0	-2.880144715E-1	6.378772259E-1	2.023126125E0
7.800961694E0	-3.319954872E-1	1.039967418E0	2.052294016E0
7.809364715E0	-3.830012381E-1	1.370741248E0	1.923099875E0
7.817767736E0	-4.503471553E-1	1.633863688E0	1.628976941E0
7.826170757E0	-5.181511641E-1	1.894390106E0	1.041647315E0
7.834573777E0	-6.331431866E-1	2.166217089E0	7.177455351E-3
7.842976798E0	-7.295043468E-1	2.379860878E0	-1.134648800E0
7.851379819E0	-8.347227573E-1	1.576749444E0	-9.613208771E-1
7.859782840E0	-6.876612902E-1	1.435490996E-1	5.088357925E-1
7.868185861E0	-3.341334462E-1	-1.141826272E0	2.231119633E0
7.876588882E0	-2.328855246E-1	-1.613705754E0	3.541539669E0
7.884991902E0	-3.523061574E-1	-1.255901933E0	3.382872105E0
7.893394923E0	-5.146388412E-1	-9.239064902E-2	1.815132618E0
7.901797944E0	-6.412369013E-1	1.287360549E0	2.286095917E-1
7.910200965E0	-6.255075932E-1	1.694337606E0	-1.469087601E-1
7.918603986E0	-4.621059597E-1	1.249182701E0	6.872031838E-2
7.927007007E0	-3.086305857E-1	7.290462255E-1	3.516952991E-1
7.935410027E0	-3.851391971E-1	5.170822144E-1	7.527165413E-1
7.943813048E0	-5.589252710E-1	2.582356930E-1	1.124569774E0
7.952216069E0	-5.711421967E-1	1.380514801E-1	1.265828252E0
7.960619090E0	-4.425588250E-1	4.810422286E-2	1.214211583E0
7.969022111E0	-2.759502530E-1	-2.809897438E-2	1.103495598E0
7.977425132E0	-1.940967143E-1	8.124268800E-2	9.440644383E-1
7.985828152E0	-2.385358512E-1	1.904316396E-1	7.947123051E-1
7.994231173E0	-2.681619525E-1	5.146388337E-2	7.383615971E-1
8.002634194E0	-2.058555335E-1	-1.582094431E-1	8.093726039E-1
8.011037215E0	-1.478250325E-1	-2.906105816E-1	9.327637553E-1
8.019440236E0	-1.279724985E-1	-3.972034156E-1	1.017060637E0
8.027843257E0	-1.084253863E-1	-4.283566475E-1	1.034927964E0
8.036246277E0	-6.978929788E-2	-3.689517379E-1	1.030652046E0
8.044649298E0	-4.398100078E-2	-3.135173619E-1	1.017671585E0
8.053052319E0	-3.771981969E-2	-2.956500649E-1	1.018587828E0
8.061455340E0	-5.268557742E-2	-2.657185495E-1	1.048824787E0
8.069858361E0	-5.467082933E-2	-2.663294077E-1	1.116170645E0
8.078261382E0	-4.734066129E-2	-2.849602401E-1	1.193442822E0
8.086664402E0	-6.154286116E-2	-2.918322682E-1	1.254527569E0
8.095067423E0	-6.810946763E-2	-2.675510943E-1	1.290414810E0
8.103470444E0	-5.787777901E-2	-2.582356930E-1	1.308282137E0
8.111873465E0	-5.192201585E-2	-2.241809368E-1	1.314390540E0
8.120276486E0	-5.772506446E-2	-2.260134816E-1	1.327523828E0
8.128679507E0	-6.016845629E-2	-2.463241518E-1	1.339740753E0
8.137082527E0	-7.192726433E-2	-2.686200738E-1	1.332868695E0
8.145485548E0	-7.910472155E-2	-2.586938143E-1	1.300035715E0
8.153888569E0	-8.246438205E-2	-2.535016239E-1	1.263537526E0
8.162291590E0	-8.063183725E-2	-2.506000996E-1	1.229788303E0
8.170694611E0	-8.368607610E-2	-2.640387416E-1	1.203979969E0
8.179097632E0	-8.399149776E-2	-2.767138183E-1	1.167634487E0
8.187500652E0	-7.589777559E-2	-2.838912606E-1	1.114032745E0
8.195903673E0	-7.177454978E-2	-2.785463631E-1	1.060583591E0
8.204306694E0	-7.360709459E-2	-2.504473627E-1	1.011257648E0
8.212709715E0	-6.933116168E-2	-2.139492482E-1	9.610154629E-1
8.221112736E0	-6.108472496E-2	-1.835595965E-1	9.107732773E-1
8.229515757E0	-5.054761097E-2	-1.527118087E-1	8.663341403E-1
8.237918777E0	-3.878879920E-2	-1.388150454E-1	8.330429196E-1
8.246321798E0	-2.550287358E-2	-1.244601309E-1	8.052493930E-1
8.254724819E0	-1.023169141E-2	-1.435490996E-1	7.788302302E-1
8.263127840E0	1.527118147E-4	-1.936385781E-1	7.496622801E-1
8.271530861E0	5.039489828E-3	-2.429644912E-1	7.333221436E-1
8.279933882E0	1.466033421E-2	-2.637332976E-1	7.276718020E-1
8.288336902E0	2.687728032E-2	-2.651077211E-1	7.201889157E-1
8.296739923E0	4.398100078E-2	-2.806843221E-1	7.003363967E-1
8.305142944E0	5.680879578E-2	-3.156553209E-1	6.826218367E-1
8.313545965E0	6.887302548E-2	-3.553603888E-1	6.835380793E-1
8.321948986E0	8.429691941E-2	-3.826957941E-1	7.044596076E-1
8.330352007E0	8.979454637E-2	-4.106420577E-1	7.235485911E-1
8.338755027E0	9.040539712E-2	-4.356867969E-1	7.440119386E-1
8.347158048E0	9.269607067E-2	-4.291202128E-1	7.797465324E-1
8.355561069E0	9.544488788E-2	-4.063661397E-1	8.254073858E-1
8.363964090E0	9.391776472E-2	-3.984251320E-1	8.716790676E-1
8.372367111E0	9.116895497E-2	-3.775036037E-1	9.255862832E-1
8.380770132E0	8.597674966E-2	-3.292466700E-1	1.003011227E0
8.389173152E0	7.849387079E-2	-2.512109280E-1	1.092194915E0
8.397576173E0	6.245913357E-2	-1.563768983E-1	1.182142138E0
8.405979194E0	3.878879920E-2	-5.024218559E-2	1.274532795E0
8.414382215E0	3.023693897E-2	8.597674966E-2	1.375475287E0
8.422785236E0	2.596100792E-2	1.418692768E-1	1.474585295E0
8.431188257E0	2.641914412E-2	1.453816444E-1	1.562852740E0
8.439591277E0	3.420744836E-2	9.788827598E-2	1.659672022E0
8.447994298E0	3.909422457E-2	-4.413371533E-2	1.768860936E0
8.456397319E0	2.519745007E-2	-2.379250079E-1	1.853768706E0
8.464800340E0	1.404948719E-2	-4.379774928E-1	1.897596955E0
8.473203361E0	2.733541466E-2	-5.696150661E-1	1.926154137E0
8.481606382E0	7.528692484E-2	-5.464028716E-1	1.983573794E0
8.490009402E0	1.298050433E-1	-4.149180055E-1	2.072604656E0
8.498412423E0	1.621799469E-1	-2.748812735E-1	2.160719395E0
8.506815444E0	1.556133330E-1	-2.574721277E-1	2.219971657E0
8.515218465E0	1.117850468E-1	-3.736858070E-1	2.240129709E0
8.523621486E0	3.848337755E-2	-5.577035546E-1	2.245474577E0
8.532024507E0	-5.803048983E-2	-7.601994276E-1	2.289761066E0
8.540427527E0	-1.673721522E-1	-9.040539265E-1	2.409639835E0
8.548830548E0	-2.718270421E-1	-9.385668039E-1	2.565711260E0
8.557233569E0	-3.947600424E-1	-1.025612593E0	2.781187534E0
8.565636590E0	-5.286883116E-1	-1.278045177E0	3.145252466E0
8.574039611E0	-5.760289431E-1	-1.283848286E0	3.585978746E0
8.582442632E0	-5.839699507E-1	-1.152974248E0	3.910338640E0
8.590845652E0	-5.543438792E-1	-5.972558856E-1	3.742508411E0
8.599248673E0	-3.738385141E-1	-3.161134571E-2	3.090581656E0
8.607651694E0	-2.318165302E-1	-2.473931387E-2	2.598391533E0
8.616054715E0	-2.141019702E-1	-2.780882120E-1	2.370851040E0
8.624457736E0	-3.072561622E-1	-4.559974670E-1	2.175379753E0
8.632860757E0	-4.098785222E-1	-7.305732965E-1	1.869192600E0
8.641263777E0	-4.220954478E-1	-1.256360054E0	1.521315098E0
8.649666798E0	-3.026748300E-1	-1.785353780E0	1.306907654E0
8.658069819E0	-1.947075576E-1	-1.738623977E0	1.215738773E0
8.666472840E0	-2.435753495E-1	-1.435032964E0	1.034622550E0
8.674875861E0	-4.098785222E-1	-1.293010950E0	7.676823139E-1
8.683278882E0	-2.764083743E-1	-9.825478196E-1	5.173876286E-1
8.691681902E0	-9.407047927E-2	-7.079719901E-1	2.629697323E-1
8.700084923E0	-1.841704547E-1	-6.093201637E-1	-6.093201414E-2
8.708487944E0	-4.052971601E-1	-3.968980014E-1	-3.553603888E-1
8.716890965E0	-4.763081372E-1	1.221694518E-3	-5.671716928E-1
8.725293986E0	-4.161396921E-1	2.278460264E-1	-7.473716140E-1
8.733697007E0	-3.775036037E-1	4.048390090E-1	-1.021031141E0
8.742100027E0	-3.939964771E-1	5.903838873E-1	-1.391204596E0
8.750503048E0	-4.182776511E-1	5.833591223E-1	-1.761988878E0
8.758906069E0	-4.017847776E-1	4.069769979E-1	-2.026791096E0
8.767309090E0	-3.590254784E-1	1.885990947E-1	-2.177059650E0
8.775712111E0	-3.179459870E-1	5.803049076E-3	-2.251430273E0
8.784115132E0	-2.796153426E-1	-3.680354729E-2	-2.343515396E0
8.792518152E0	-2.365505993E-1	-1.130067464E-2	-2.489660740E0
8.800921173E0	-1.940967143E-1	5.451811850E-2	-2.682077646E0
8.809324194E0	-1.553079188E-1	1.482831687E-1	-2.892667294E0
8.817727215E0	-1.110214889E-1	2.417428046E-1	-3.088290930E0
8.826130236E0	-6.368082762E-2	3.043546379E-1	-3.278264523E0
8.834533257E0	-1.786728203E-2	3.019112647E-1	-3.447774649E0
8.842936277E0	1.221694518E-2	3.109212518E-1	-3.570554972E0
8.851339298E0	4.001049697E-2	4.234698713E-1	-3.668596029E0
8.859742319E0	7.192726433E-2	5.879405141E-1	-3.789543629E0
8.868145340E0	9.681928903E-2	7.276718020E-1	-3.930191278E0
8.876548361E0	1.139230132E-1	8.996253014E-1	-4.094356537E0
8.884951382E0	1.291942000E-1	1.071273327E0	-4.256994724E0
8.893354402E0	1.446180940E-1	1.211462855E0	-4.417189121E0
8.901757423E0	1.658450365E-1	1.308129430E0	-4.574024200E0
8.910160444E0	1.974563748E-1	1.336228371E0	-4.712686539E0
8.918563465E0	2.493783981E-1	1.302326322E0	-4.817141533E0
8.926966486E0	3.096995652E-1	1.249335408E0	-4.895788193E0
8.935369507E0	3.712424338E-1	1.192221165E0	-4.949695110E0
8.943772527E0	4.408790171E-1	1.077534556E0	-4.991538525E0
8.952175548E0	5.063923597E-1	9.239065051E-1	-5.028647423E0
8.960578569E0	5.609105229E-1	7.475243211E-1	-5.064076424E0
8.968981590E0	5.943543911E-1	5.314370990E-1	-5.094313622E0
8.977384611E0	5.932853818E-1	2.803788781E-1	-5.108820915E0
8.985787632E0	5.512896776E-1	1.985253533E-3	-5.072322845E0
8.994190652E0	4.636330605E-1	-2.724378705E-1	-4.953207493E0
9.002593673E0	3.506263196E-1	-5.193728805E-1	-4.785682678E0
9.010996694E0	2.470877171E-1	-7.818844914E-1	-4.568221092E0
9.019399715E0	1.705790907E-1	-9.232956171E-1	-4.284635544E0
9.027802736E0	1.111742035E-1	-8.041804433E-1	-3.969438314E0
9.036205757E0	7.009471953E-2	-5.751127005E-1	-3.623698711E0
9.044608777E0	2.932066843E-2	-2.782409191E-1	-3.242529869E0
9.053011798E0	-1.740914769E-2	1.641651988E-1	-2.834789515E0
9.061414819E0	-3.603998944E-2	5.989357233E-1	-2.387038469E0
9.069817840E0	-4.902049154E-2	9.219212532E-1	-1.919129372E0
9.078220861E0	-7.941014320E-2	1.110520363E0	-1.432742238E0
9.086623882E0	-1.287360638E-1	1.116628766E0	-8.527427912E-1
9.095026902E0	-1.870719790E-1	1.026986957E0	-1.918060333E-1
9.103429923E0	-2.206685692E-1	9.011524320E-1	4.651601911E-1
9.111832944E0	-2.241809368E-1	7.450809479E-1	1.032789946E0
9.120235965E0	-2.180724740E-1	6.507050395E-1	1.476265073E0
9.128638986E0	-2.047865391E-1	6.297835112E-1	1.794211149E0
9.137042007E0	-2.122694254E-1	6.673506498E-1	1.985406280E0
9.145445027E0	-2.893888950E-1	7.125533223E-1	2.080087662E0
9.153848048E0	-3.352024257E-1	7.368345261E-1	2.126664639E0
9.162251069E0	-3.512371778E-1	7.950177193E-1	2.092457294E0
9.170654090E0	-3.834593594E-1	8.539644480E-1	1.964332104E0
9.179057111E0	-5.467082858E-1	1.018893242E0	1.548192382E0
9.187460132E0	-7.769976854E-1	1.335464835E0	4.451549351E-1
9.195863152E0	-6.719319820E-1	1.594464064E0	-1.232231617E0
9.204266173E0	-4.205683470E-1	1.097692490E0	-1.742899895E0
9.212669194E0	-5.644228458E-1	-1.075091213E-1	-4.489727318E-2
9.221072215E0	-6.694886088E-1	-9.781191945E-1	2.733388662E0
9.229475236E0	-4.947862923E-1	-1.095554590E0	4.678784370E0
9.237878257E0	-3.988832533E-1	-5.372401476E-1	4.080307007E0
9.246281277E0	-5.480827093E-1	7.490514517E-1	1.655396104E0
9.254684298E0	-7.304205894E-1	1.877591729E0	-3.368822634E-1
9.263087319E0	-7.719582319E-1	1.908439517E0	-5.112791657E-1
9.271490340E0	-5.942016840E-1	1.392426372E0	1.291942000E-1
9.279893361E0	-3.243598938E-1	8.490777016E-1	8.208259940E-1
9.288296382E0	-2.330382317E-1	3.336753249E-1	1.272242069E0
9.296699402E0	-3.758237660E-1	-2.350234836E-1	1.474585295E0
9.305102423E0	-4.903576374E-1	-3.862081766E-1	1.555217147E0
9.313505444E0	-4.729484916E-1	-2.712161839E-1	1.580261827E0
9.321908465E0	-2.932066917E-1	-2.199050188E-1	1.455038190E0
9.330311486E0	-1.253764033E-1	-5.650337320E-3	1.072647810E0
9.338714507E0	-1.308740228E-1	1.539335102E-1	7.266027927E-1
9.347117527E0	-2.023431510E-1	1.191152167E-2	6.537593007E-1
9.355520548E0	-1.722589284E-1	-2.309002578E-1	8.214368224E-1
9.363923569E0	-1.275143623E-1	-4.349232614E-1	1.014311910E0
9.372326590E0	-1.244601309E-1	-5.271611810E-1	1.092805743E0
9.380729611E0	-1.293469071E-1	-5.062396526E-1	1.073564053E0
9.389132632E0	-9.575030953E-2	-3.881934285E-1	1.047908425E0
9.397535652E0	-5.253286287E-2	-2.418955117E-1	9.866710305E-1
9.405938673E0	-3.771981969E-2	-1.285833418E-1	8.941276670E-1
9.414341694E0	-5.589252338E-2	-1.004843712E-1	8.849649429E-1
9.422744715E0	-4.978405312E-2	-8.338065445E-2	9.744541049E-1
9.431147736E0	-3.878879920E-2	-9.972081333E-2	1.078145385E0
9.439550757E0	-4.779879749E-2	-1.731752008E-1	1.135717750E0
9.447953777E0	-5.589252338E-2	-2.599155009E-1	1.159846187E0
9.456356798E0	-4.077405483E-2	-3.254288733E-1	1.155570269E0
9.464759819E0	-4.337015375E-2	-3.235963285E-1	1.129914761E0
9.473162840E0	-5.726693198E-2	-3.055763543E-1	1.095096469E0
9.481565861E0	-4.840964451E-2	-2.958027720E-1	1.067455530E0
9.489968882E0	-4.611896724E-2	-2.686200738E-1	1.051115394E0
9.498371902E0	-5.665608495E-2	-2.383831441E-1	1.040578246E0
9.506774923E0	-5.146388337E-2	-2.357870489E-1	1.027597785E0
9.515177944E0	-3.909422457E-2	-2.437280566E-1	1.007439852E0
9.523580965E0	-2.825168520E-2	-2.495311052E-1	9.909469485E-1
9.531983986E0	-1.313321572E-2	-2.693836391E-1	9.753703475E-1
9.540387007E0	-8.399149403E-3	-2.967190444E-1	9.503256083E-1
9.548790027E0	2.137965523E-3	-3.029802442E-1	9.162709117E-1
9.557193048E0	1.252236869E-2	-3.009949923E-1	8.756495714E-1
9.565596069E0	1.618745178E-2	-2.756448388E-1	8.342646360E-1
9.573999090E0	1.924168877E-2	-2.551814318E-1	8.067765236E-1
9.582402111E0	2.076880634E-2	-2.313583940E-1	7.843278646E-1
9.590805132E0	2.076880634E-2	-2.055501044E-1	7.687512636E-1
9.599208152E0	2.535016090E-2	-1.969982386E-1	7.608102560E-1
9.607611173E0	2.870982140E-2	-1.835595965E-1	7.550072074E-1
9.616014194E0	3.619270027E-2	-1.885990947E-1	7.421793938E-1
9.624417215E0	4.504998401E-2	-2.166980654E-1	7.356128097E-1
9.632820236E0	4.398100078E-2	-2.512109280E-1	7.478297353E-1
9.641223257E0	4.443913698E-2	-2.675510943E-1	7.631009221E-1
9.649626277E0	5.192201585E-2	-2.834331393E-1	7.756233215E-1
9.658029298E0	6.505523622E-2	-2.941229641E-1	7.815790772E-1
9.666432319E0	7.406523079E-2	-3.254288733E-1	7.887565494E-1
9.674835340E0	8.872556686E-2	-3.532224298E-1	8.040276766E-1
9.683238361E0	9.849911928E-2	-3.875826001E-1	8.167027831E-1
9.691641382E0	1.078145429E-1	-4.289674759E-1	8.333483934E-1
9.700044402E0	1.207950488E-1	-4.456130862E-1	8.693883419E-1
9.708447423E0	1.209477559E-1	-4.766135812E-1	9.359707236E-1
9.716850444E0	1.177408099E-1	-4.972296655E-1	1.018587828E0
9.725253465E0	1.316375881E-1	-4.544703662E-1	1.112658262E0
9.733656486E0	1.496575773E-1	-3.600944579E-1	1.230857253E0
9.742059507E0	1.324011385E-1	-1.791309565E-1	1.347987175E0
9.750462527E0	1.104106456E-1	1.664558798E-2	1.391204596E0
9.758865548E0	8.643488586E-2	1.128540337E-1	1.427091956E0
9.767268569E0	7.101099193E-2	1.867665499E-1	1.504516840E0
9.775671590E0	7.360709459E-2	2.454078794E-1	1.615843654E0
9.784074611E0	7.559234649E-2	2.284568697E-1	1.714800954E0
9.792477632E0	7.620319724E-2	1.061347127E-1	1.806122661E0
9.800880652E0	6.978929788E-2	-1.226275861E-1	1.888586998E0
9.809283673E0	5.925218388E-2	-4.062134326E-1	1.951656938E0
9.817686694E0	5.940489471E-2	-6.571189165E-1	1.999913931E0
9.826089715E0	7.314895838E-2	-8.037222624E-1	2.047407389E0
9.834492736E0	1.143811494E-1	-8.214368224E-1	2.118265629E0
9.842895757E0	1.745496094E-1	-7.162184119E-1	2.224400282E0
9.851298777E0	2.287622988E-1	-5.693096519E-1	2.354510784E0
9.859701798E0	2.435753495E-1	-4.686725736E-1	2.484010458E0
9.868104819E0	2.084516287E-1	-5.002838969E-1	2.575331926E0
9.876507840E0	1.133121699E-1	-6.436802745E-1	2.580218792E0
9.884910861E0	-2.397575416E-2	-8.892409205E-1	2.522799253E0
9.893313882E0	-1.404948682E-1	-1.098303318E0	2.520203114E0
9.901716902E0	-2.564031482E-1	-1.206881523E0	2.640234470E0
9.910119923E0	-3.738385141E-1	-1.482526302E0	2.954820871E0
9.918522944E0	-4.178195298E-1	-1.970135093E0	3.535889387E0
9.926925965E0	-5.183038712E-1	-2.259218693E0	4.044878006E0
9.935328986E0	-5.413633585E-1	-1.610651493E0	3.905604601E0
9.943732007E0	-3.268032968E-1	-8.336538076E-1	3.271697998E0
9.952135027E0	-3.283303976E-2	-5.482354164E-1	2.654742241E0
9.960538048E0	2.046338283E-2	-4.731011987E-1	2.303199530E0
9.968941069E0	-1.079672500E-1	-4.124746025E-1	1.963873982E0
9.977344090E0	-2.628170252E-1	-5.175403357E-1	1.556896925E0
9.985747111E0	-3.222219348E-1	-9.193251133E-1	1.221541762E0
9.994150132E0	-2.225011140E-1	-1.255901933E0	9.368869662E-1
1.000255315E1	-1.284306347E-1	-1.304617047E0	6.523848772E-1
1.001095617E1	-1.233911440E-1	-1.225512266E0	4.879142344E-1
1.001935919E1	-1.824906170E-1	-1.005149126E0	4.439332485E-1
1.002776222E1	-1.513374150E-1	-5.164713860E-1	3.619270027E-1
1.003616524E1	-6.139015034E-2	-2.011214644E-1	1.925695986E-1
1.004456826E1	-4.840964451E-2	-8.246438205E-2	-1.207950488E-1
1.005297128E1	-1.443126649E-1	1.982199401E-1	-5.436540842E-1
1.006137430E1	-2.165453583E-1	5.482354164E-1	-9.045121074E-1
1.006977732E1	-2.483094037E-1	7.543963790E-1	-1.160304427E0
1.007818034E1	-2.709107697E-1	8.964183331E-1	-1.384485364E0
1.008658336E1	-2.987042964E-1	1.041341901E0	-1.641041160E0
1.009498638E1	-3.223746419E-1	1.060125470E0	-1.899124146E0
1.010338940E1	-3.313846290E-1	9.217684865E-1	-2.132467747E0
1.011179242E1	-3.213056624E-1	7.006418109E-1	-2.323510170E0
1.012019544E1	-2.958027720E-1	5.030327439E-1	-2.458812952E0
1.012859847E1	-2.750339806E-1	4.178195298E-1	-2.554410458E0
1.013700149E1	-2.458660156E-1	4.891359508E-1	-2.662683249E0
1.014540451E1	-1.992889196E-1	5.793886185E-1	-2.802261829E0
1.015380753E1	-1.421747059E-1	5.996993184E-1	-2.975131512E0
1.016221055E1	-8.964183182E-2	5.076140761E-1	-3.172435284E0
1.017061357E1	-5.665608495E-2	3.339807391E-1	-3.355994940E0
1.017901659E1	-3.878879920E-2	2.203631550E-1	-3.492366552E0
1.018741961E1	-3.619270027E-2	2.695363462E-1	-3.595447063E0
1.019582263E1	-3.619270027E-2	4.543176591E-1	-3.686463118E0
1.020422565E1	-2.580829710E-2	6.975875497E-1	-3.797179222E0
1.021262867E1	-9.162709117E-3	9.397885203E-1	-3.946989536E0
1.022103169E1	3.054236295E-4	1.151599765E0	-4.130854607E0
1.022943472E1	-1.343864016E-2	1.339282632E0	-4.333503246E0
1.023783774E1	-2.504473738E-2	1.464048147E0	-4.511412621E0
1.024624076E1	-2.199050039E-2	1.546818018E0	-4.651296616E0
1.025464378E1	-4.581354442E-4	1.619661450E0	-4.763081551E0
1.026304680E1	4.672981426E-2	1.646538734E0	-4.838368416E0
1.027144982E1	1.087308154E-1	1.670819998E0	-4.891664982E0
1.027985284E1	1.983726472E-1	1.740761995E0	-4.966646194E0
1.028825586E1	3.211529553E-1	1.729003191E0	-5.043918610E0
1.029665888E1	4.295783341E-1	1.666085839E0	-5.095229626E0
1.030506190E1	5.099047422E-1	1.591715217E0	-5.115998268E0
1.031346492E1	5.697677732E-1	1.435338378E0	-5.122870445E0
1.032186794E1	5.867187977E-1	1.159388065E0	-5.111264229E0
1.033027096E1	5.607577562E-1	8.527427912E-1	-5.047125340E0
1.033867399E1	4.966188073E-1	4.763081372E-1	-4.889221668E0
1.034707701E1	4.121691883E-1	9.025268257E-2	-4.680006504E0
1.035548003E1	2.929012477E-1	-1.826433241E-1	-4.463613510E0
1.036388305E1	1.441599578E-1	-4.081986845E-1	-4.170559883E0
1.037228607E1	5.207473040E-2	-5.546492934E-1	-3.810007095E0
1.038068909E1	-1.740914769E-2	-4.399627447E-1	-3.424562454E0
1.038909211E1	-7.391251624E-2	-1.322484314E-1	-2.945352793E0
1.039749513E1	-1.174353883E-1	3.064926267E-1	-2.412083149E0
1.040589815E1	-1.635543555E-1	7.484406233E-1	-1.929361105E0
1.041430117E1	-2.342599183E-1	9.921686649E-1	-1.451220393E0
1.042270419E1	-2.973299026E-1	1.029430389E0	-8.538117409E-1
1.043110722E1	-3.486410677E-1	9.526162744E-1	-1.308740228E-1
1.043951024E1	-3.976615667E-1	8.305995464E-1	6.154286265E-1
1.044791326E1	-4.194993675E-1	7.091936469E-1	1.297134161E0
1.045631628E1	-4.375193417E-1	6.030589342E-1	1.816201568E0
1.046471930E1	-4.391991794E-1	5.647283196E-1	2.132467747E0
1.047312232E1	-4.169032574E-1	6.381826997E-1	2.284721375E0
1.048152534E1	-4.234698713E-1	8.579349518E-1	2.308849812E0
1.048992836E1	-4.869979918E-1	1.190083146E0	2.181488276E0
1.049833138E1	-5.404471159E-1	1.526049137E0	1.809482336E0
1.050673440E1	-5.964923501E-1	1.720298648E0	9.904888272E-1
1.051513742E1	-4.789042473E-1	1.905843496E0	-3.255815804E-1
1.052354044E1	-2.047865391E-1	1.829640269E0	-1.275907159E0
1.053194347E1	-4.147652984E-1	8.869501948E-1	-2.481566966E-1
1.054034649E1	-9.813261032E-1	-6.398624927E-2	1.704263806E0
1.054874951E1	-1.320499063E0	-5.799994469E-1	3.349886417E0
1.055715253E1	-1.223374367E0	-6.409314871E-1	4.077863693E0
1.056555555E1	-9.101623893E-1	-1.287360638E-1	3.116084576E0
1.057395857E1	-5.818319917E-1	8.780929446E-1	1.422663212E0
1.058236159E1	-6.044333577E-1	2.017933846E0	3.959817290E-1
1.059076461E1	-8.643488884E-1	2.558075666E0	1.456870735E-1
1.059916763E1	-8.872556686E-1	2.131398916E0	-1.466033421E-2
1.060757065E1	-6.528429985E-1	1.058140159E0	-1.056765765E-1
1.061597367E1	-3.484883606E-1	1.844758689E-1	1.934858710E-1
1.062437669E1	-1.908897758E-1	-1.797417998E-1	9.303203821E-1
1.063277972E1	-2.257080674E-1	-4.243861437E-1	1.610804200E0
1.064118274E1	-3.407000601E-1	-5.680879354E-1	1.837581277E0
1.064958576E1	-3.981196880E-1	-5.537330508E-1	1.513832211E0
1.065798878E1	-3.303156495E-1	-3.996468186E-1	9.132166505E-1
1.066639180E1	-1.730224788E-1	-1.617218107E-1	4.130854607E-1
1.067479482E1	-3.680354729E-2	5.405998230E-2	2.066190839E-1
1.068319784E1	-5.497625098E-3	-6.261184067E-2	1.705790907E-1
1.069160086E1	-1.481304597E-2	-4.088095427E-1	2.186833173E-1
1.070000388E1	3.512371797E-3	-8.113578558E-1	4.243861437E-1
1.070840690E1	5.405998230E-2	-9.717052579E-1	7.409577370E-1
1.071680992E1	6.077930331E-2	-9.338327646E-1	9.416210651E-1
1.072521294E1	3.695625812E-2	-7.963921428E-1	9.883508682E-1
1.073361596E1	2.641914412E-2	-5.708367825E-1	9.630007148E-1
1.074201899E1	3.206948191E-2	-2.828222811E-1	9.953756332E-1
1.075042201E1	2.840439789E-2	-1.093416587E-1	1.091584086E0
1.075882503E1	-2.519745007E-2	-8.261708915E-2	1.207492352E0
1.076722805E1	-8.124268800E-2	-1.459924877E-1	1.326302052E0
1.077563107E1	-1.050657257E-1	-1.911951900E-1	1.424190402E0
1.078403409E1	-1.137702987E-1	-1.911951900E-1	1.475043416E0
1.079243711E1	-1.165191159E-1	-1.322484314E-1	1.474127173E0
1.080084013E1	-1.188097894E-1	-6.200099736E-2	1.431520581E0
1.080924315E1	-1.145338640E-1	6.719320081E-3	1.392426372E0
1.081764617E1	-1.169772521E-1	5.757235363E-2	1.371352077E0
1.082604919E1	-1.264453828E-1	5.085303262E-2	1.356233597E0
1.083445222E1	-1.351499557E-1	-2.977880463E-2	1.325691223E0
1.084285524E1	-1.356080920E-1	-1.120904684E-1	1.275907159E0
1.085125826E1	-1.128540337E-1	-1.800472289E-1	1.219709277E0
1.085966128E1	-8.719844371E-2	-2.341072112E-1	1.207950473E0
1.086806430E1	-9.086353332E-2	-1.708845198E-1	1.114643574E0
1.087646732E1	-8.567132801E-2	-2.099787444E-1	9.455915689E-1
1.088487034E1	-6.841489673E-2	-2.857238054E-1	8.174663186E-1
1.089327336E1	-5.558710173E-2	-3.028275371E-1	7.820371985E-1
1.090167638E1	-4.398100078E-2	-3.003841341E-1	7.637118101E-1
1.091007940E1	-2.137965336E-2	-2.950392365E-1	7.198835015E-1
1.091848242E1	-5.192201585E-3	-3.104631305E-1	6.853706241E-1
1.092688544E1	8.399149403E-3	-3.442124426E-1	6.766660213E-1
1.093528847E1	1.740914769E-2	-3.747547865E-1	6.765133142E-1
1.094369149E1	2.260134928E-2	-4.136963189E-1	6.736118197E-1
1.095209451E1	3.756710514E-2	-4.501944184E-1	6.749862432E-1
1.096049753E1	4.596625641E-2	-4.863871336E-1	6.826218367E-1
1.096890055E1	5.833591148E-2	-5.137225389E-1	7.006418109E-1
1.097730357E1	7.116370648E-2	-5.305208564E-1	7.261446714E-1
1.098570659E1	9.177979827E-2	-5.531222224E-1	7.511894107E-1
1.099410961E1	9.880454093E-2	-6.143596172E-1	7.820371985E-1
1.100251263E1	1.015533581E-1	-6.473453641E-1	8.238802552E-1
1.101091565E1	1.023169160E-1	-6.386408210E-1	8.701519370E-1
1.101931867E1	9.605573118E-2	-6.152759194E-1	9.219212532E-1
1.102772169E1	9.269607067E-2	-5.735855699E-1	9.768974781E-1
1.103612472E1	8.460234851E-2	-5.650337338E-1	1.044701576E0
1.104452774E1	8.200624585E-2	-5.268557668E-1	1.123653531E0
1.105293076E1	8.017370105E-2	-4.724903405E-1	1.203827262E0
1.106133378E1	6.872031838E-2	-3.680354655E-1	1.290872931E0
1.106973680E1	5.573981255E-2	-1.531699449E-1	1.372268319E0
1.107813982E1	3.283303976E-2	5.696150661E-2	1.449998736E0
1.108654284E1	1.068982668E-2	2.654131353E-1	1.528950691E0
1.109494586E1	3.970507067E-3	4.575245976E-1	1.618287086E0
1.110334888E1	6.108472589E-4	5.468609929E-1	1.705027461E0
1.111175190E1	-1.267508045E-2	4.666872919E-1	1.785964727E0
1.112015492E1	-3.405473381E-2	2.318165302E-1	1.859724522E0
1.112855794E1	-4.627167806E-2	-7.330167294E-2	1.922794461E0
1.113696096E1	-5.589252338E-2	-3.642176688E-1	1.967997193E0
1.114536399E1	-4.963133857E-2	-5.647283196E-1	2.011978149E0
1.115376701E1	-3.420744836E-2	-6.418477297E-1	2.066954374E0
1.116217003E1	-9.009997360E-3	-6.499415040E-1	2.137354612E0
1.117057305E1	2.825168520E-2	-6.177192926E-1	2.211725235E0
1.117897607E1	6.673506647E-2	-5.483881235E-1	2.293120623E0
1.118737909E1	8.032641560E-2	-4.705050886E-1	2.389481783E0
1.119578211E1	4.581354558E-2	-4.199574888E-1	2.485537529E0
1.120418513E1	-4.764608666E-2	-4.824166298E-1	2.552119732E0
1.121258815E1	-1.838650256E-1	-6.090146899E-1	2.569681644E0
1.122099117E1	-3.387148082E-1	-7.928797603E-1	2.594726562E0
1.122939419E1	-5.037962794E-1	-9.987352490E-1	2.680397749E0
1.123779722E1	-6.468872428E-1	-1.258345366E0	2.823488712E0
1.124620024E1	-7.082774043E-1	-1.589119196E0	3.055763483E0
1.125460326E1	-7.701256871E-1	-2.073062897E0	3.440749884E0
1.126300628E1	-8.501466513E-1	-1.949060917E0	3.512829781E0
1.127140930E1	-7.747070193E-1	-1.530019641E0	3.100966215E0
1.127981232E1	-5.697677732E-1	-1.353942990E0	2.567543745E0
1.128821534E1	-3.825430870E-1	-1.324011445E0	2.292662382E0
1.129661836E1	-2.861819267E-1	-1.349208832E0	2.169729471E0
1.130502138E1	-3.092414141E-1	-1.421288848E0	1.971662283E0
1.131342440E1	-4.172086716E-1	-1.629893184E0	1.611109614E0
1.132182742E1	-4.931064546E-1	-1.966928124E0	1.236202121E0
1.133023044E1	-5.167768002E-1	-1.985406280E0	8.933641315E-1
1.133863347E1	-6.334486008E-1	-1.687618256E0	5.618267655E-1
1.134703649E1	-6.409314871E-1	-1.470614791E0	4.726430774E-1
1.135543951E1	-2.945810854E-1	-1.414874911E0	5.879405141E-1
1.136384253E1	-3.405473381E-2	-1.041800022E0	4.734066129E-1
1.137224555E1	-1.834068894E-1	-4.497362971E-1	-1.863084175E-2
1.138064857E1	-4.636330605E-1	8.780929446E-2	-6.316160560E-1
1.138905159E1	-5.456393361E-1	4.645493329E-1	-1.058903694E0
1.139745461E1	-4.772244096E-1	6.157340407E-1	-1.158166409E0
1.140585763E1	-4.188885093E-1	7.695148587E-1	-1.131747246E0
1.141426065E1	-3.991886973E-1	9.240592122E-1	-1.246739268E0
1.142266367E1	-3.822376728E-1	1.000873208E0	-1.535822749E0
1.143106669E1	-3.568875194E-1	9.607100487E-1	-1.896222591E0
1.143946972E1	-3.339807391E-1	8.770239353E-1	-2.187138557E0
1.144787274E1	-3.042019308E-1	7.945595980E-1	-2.373752356E0
1.145627576E1	-2.597627938E-1	7.495095730E-1	-2.506611824E0
1.146467878E1	-1.911951900E-1	7.189671993E-1	-2.657949209E0
1.147308180E1	-1.021642014E-1	6.390989423E-1	-2.826543093E0
1.148148482E1	-1.450762246E-2	4.969242513E-1	-2.975589752E0
1.148988784E1	5.619794875E-2	3.257342875E-1	-3.087222099E0
1.149829086E1	1.085781008E-1	1.989834905E-1	-3.181597948E0
1.150669388E1	1.418692768E-1	1.546970755E-1	-3.295062780E0
1.151509690E1	1.565296054E-1	1.895153672E-1	-3.423187971E0
1.152349992E1	1.688992679E-1	3.414636254E-1	-3.566126347E0
1.153190294E1	1.831014603E-1	5.468609929E-1	-3.714715004E0
1.154030596E1	1.963873953E-1	7.368345261E-1	-3.856126070E0
1.154870899E1	1.947075576E-1	8.947384953E-1	-3.997842550E0
1.155711201E1	1.927223057E-1	1.050657272E0	-4.145973206E0
1.156551503E1	1.875301152E-1	1.176644564E0	-4.286926270E0
1.157391805E1	2.021904439E-1	1.272547603E0	-4.414898396E0
1.158232107E1	2.295258641E-1	1.352873921E0	-4.534166336E0
1.159072409E1	2.686200738E-1	1.437170863E0	-4.646715164E0
1.159912711E1	3.168770075E-1	1.471989155E0	-4.727041721E0
1.160753013E1	3.808632791E-1	1.476112366E0	-4.789195061E0
1.161593315E1	4.509579837E-1	1.449235082E0	-4.857457638E0
1.162433617E1	5.233433843E-1	1.357913494E0	-4.910753727E0
1.163273919E1	6.018372774E-1	1.225359559E0	-4.931980610E0
1.164114222E1	6.821636558E-1	1.049893737E0	-4.920527458E0
1.164954524E1	7.545490861E-1	7.919634581E-1	-4.899758339E0
1.165794826E1	7.928797603E-1	4.703523815E-1	-4.855777740E0
1.166635128E1	7.939487100E-1	1.296523362E-1	-4.768426418E0
1.167475430E1	7.496622801E-1	-1.575985998E-1	-4.644271851E0
1.168315732E1	6.792621613E-1	-4.239279926E-1	-4.455825329E0
1.169156034E1	5.906893015E-1	-6.296308041E-1	-4.181707859E0
1.169996336E1	4.653128982E-1	-6.937697530E-1	-3.862692595E0
1.170836638E1	3.397837877E-1	-6.484143734E-1	-3.505194187E0
1.171676940E1	2.192941606E-1	-5.044071078E-1	-3.157011271E0
1.172517242E1	9.483403713E-2	-3.098522723E-1	-2.789433956E0
1.173357544E1	1.404948719E-2	-1.272089481E-1	-2.319539785E0
1.174197846E1	-8.399149403E-3	-8.551862091E-3	-1.720909476E0
1.175038149E1	-3.939964995E-2	1.136175916E-1	-1.034775257E0
1.175878451E1	-8.964183182E-2	2.493783981E-1	-2.925958335E-1
1.176718753E1	-1.317902952E-1	4.234698713E-1	3.666610718E-1
1.177559055E1	-1.722589284E-1	5.729747415E-1	9.187142849E-1
1.178399357E1	-2.186833173E-1	6.366555691E-1	1.435949206E0
1.179239659E1	-2.980934680E-1	6.449019909E-1	1.886449099E0
1.180079961E1	-3.863608837E-1	7.090409398E-1	2.146059036E0
1.180920263E1	-4.596625566E-1	8.272398710E-1	2.218444586E0
1.181760565E1	-4.940227270E-1	9.636115432E-1	2.171867371E0
1.182600867E1	-5.149442554E-1	1.114338160E0	1.983726501E0
1.183441169E1	-5.618267655E-1	1.279877663E0	1.504974961E0
1.184281472E1	-6.694886088E-1	1.434880257E0	4.375193417E-1
1.185121774E1	-6.397097707E-1	1.469545841E0	-1.060278177E0
1.185962076E1	-5.514423847E-1	8.260182142E-1	-9.816315174E-1
1.186802378E1	-5.103628635E-1	-2.812951505E-1	9.570449591E-1
1.187642680E1	-5.118899941E-1	-9.881981611E-1	3.105852842E0
1.188482982E1	-5.144860744E-1	-1.102273822E0	4.406041145E0
1.189323284E1	-5.583143830E-1	-4.747810364E-1	3.568417072E0
1.190163586E1	-7.168292403E-1	7.550072074E-1	1.190083146E0
1.191003888E1	-8.293778896E-1	1.562852740E0	-3.316900730E-1
1.191844190E1	-7.337802649E-1	1.499629974E0	-3.139754832E-1
1.192684492E1	-4.282039404E-1	9.290986657E-1	2.261662036E-1
1.193524794E1	-1.766875684E-1	4.622586668E-1	8.318212628E-1
1.194365097E1	-3.000787199E-1	-4.902049154E-2	1.317292094E0
1.195205399E1	-4.749337435E-1	-5.199837089E-1	1.503295064E0
1.196045701E1	-4.001049399E-1	-7.055285573E-1	1.498255610E0
1.196886003E1	-2.258607745E-1	-7.867712975E-1	1.482984424E0
1.197726305E1	-1.362189353E-1	-5.422796607E-1	1.265064716E0
1.198566607E1	-1.572931707E-1	-1.204896197E-1	8.489249945E-1
1.199406909E1	-1.960819662E-1	1.893626526E-2	5.508314967E-1
1.200247211E1	-1.678302884E-1	-1.475196183E-1	5.288410187E-1
1.201087513E1	-1.230857223E-1	-3.594835997E-1	6.533011198E-1
1.201927815E1	-9.773556143E-2	-5.204418898E-1	7.829535007E-1
1.202768117E1	-8.353336155E-2	-6.478035450E-1	8.576295376E-1
1.203608419E1	-3.649812192E-2	-6.839962006E-1	8.672503829E-1
1.204448722E1	5.192201585E-3	-6.601731777E-1	8.460234404E-1
1.205289024E1	1.710372418E-2	-6.342121959E-1	8.092198968E-1
1.206129326E1	1.725643501E-2	-6.071822047E-1	7.597413063E-1
1.206969628E1	1.588202827E-2	-5.147915483E-1	7.304205894E-1
1.207809930E1	1.588202827E-2	-4.011739492E-1	7.463026643E-1
1.208650232E1	7.635590620E-3	-3.958290219E-1	7.999044657E-1
1.209490534E1	3.054236295E-3	-4.265241027E-1	8.590039611E-1
1.210330836E1	-1.068982761E-3	-4.501944184E-1	8.984035850E-1
1.211171138E1	3.054236295E-3	-4.578300118E-1	9.203941226E-1
1.212011440E1	5.955760833E-3	-4.497362971E-1	9.358180165E-1
1.212851742E1	6.261184346E-3	-4.535540938E-1	9.437590241E-1
1.213692044E1	3.206948051E-3	-4.251496792E-1	9.388722181E-1
1.214532346E1	3.206948051E-3	-3.996468186E-1	9.298622608E-1
1.215372649E1	5.497625098E-3	-3.985778391E-1	9.121476412E-1
1.216212951E1	4.428642802E-3	-3.796415627E-1	8.907679915E-1
1.217053253E1	1.099525020E-2	-3.524588645E-1	8.707627654E-1
1.217893555E1	1.908897609E-2	-3.293993771E-1	8.507575393E-1
1.218733857E1	2.886253223E-2	-3.103103936E-1	8.388460279E-1
1.219574159E1	3.390202299E-2	-2.982461751E-1	8.396095634E-1
1.220414461E1	4.413371533E-2	-3.064926267E-1	8.397622705E-1
1.221254763E1	5.039490014E-2	-3.165715933E-1	8.290724158E-1
1.222095065E1	4.947862774E-2	-3.016058207E-1	8.098307252E-1
1.222935367E1	4.566083103E-2	-2.628170252E-1	7.934905887E-1
1.223775669E1	4.428642616E-2	-2.128802687E-1	7.817317843E-1
1.224615972E1	5.008947477E-2	-1.887518018E-1	7.795938253E-1
1.225456274E1	4.993676394E-2	-1.841704547E-1	7.789829373E-1
1.226296576E1	5.405998230E-2	-1.873773932E-1	7.843278646E-1
1.227136878E1	6.429167092E-2	-2.000524700E-1	8.000571728E-1
1.227977180E1	6.780404598E-2	-2.273878902E-1	8.209787011E-1
1.228817482E1	7.421794534E-2	-2.635805905E-1	8.446490765E-1
1.229657784E1	8.612946421E-2	-2.970244884E-1	8.812998533E-1
1.230498086E1	1.189625040E-1	-3.293993771E-1	9.436063170E-1
1.231338388E1	9.009996802E-2	-2.913741469E-1	9.575030804E-1
1.232178690E1	8.551861346E-2	-2.948864996E-1	9.136747718E-1
1.233018992E1	8.338065445E-2	-3.312319219E-1	8.884773254E-1
1.233859294E1	8.246438205E-2	-3.038965166E-1	9.150491953E-1
1.234699597E1	8.292251825E-2	-2.826695740E-1	9.613208771E-1
1.235539899E1	8.383878320E-2	-2.576248348E-1	9.865183234E-1
1.236380201E1	8.261708915E-2	-2.344126403E-1	1.001178622E0
1.237220503E1	8.185353130E-2	-2.131856978E-1	1.025459886E0
1.238060805E1	6.734590977E-2	-2.078407854E-1	1.074022174E0
1.238901107E1	5.131116882E-2	-1.745496094E-1	1.129303813E0
1.239741409E1	3.268032894E-2	-1.212531775E-1	1.186570764E0
1.240581711E1	7.024743594E-3	-4.245388508E-2	1.256360054E0
1.241422013E1	-2.214321308E-2	3.329117596E-2	1.337602735E0
1.242262315E1	-4.535540938E-2	1.070509851E-1	1.429840684E0
1.243102617E1	-5.436540768E-2	2.017323077E-1	1.513984919E0
1.243942919E1	-4.566083103E-2	2.577775419E-1	1.570488334E0
1.244783222E1	-3.634541109E-2	2.365505993E-1	1.604237556E0
1.245623524E1	-3.313846514E-2	1.024696305E-1	1.633405566E0
1.246463826E1	-3.390202299E-2	-1.186570823E-1	1.663642526E0
1.247304128E1	-2.932066843E-2	-3.503209054E-1	1.687770963E0
1.248144430E1	-1.618745178E-2	-4.957025647E-1	1.720756769E0
1.248984732E1	8.857285604E-3	-5.016583204E-1	1.771457076E0
1.249825034E1	5.451811850E-2	-3.752129376E-1	1.834985137E0
1.250665336E1	1.149920002E-1	-1.545443535E-1	1.905232549E0
1.251505638E1	1.505738497E-1	3.939964995E-2	1.959903479E0
1.252345940E1	1.510319859E-1	1.685938388E-1	1.922794461E0
1.253186242E1	1.159082651E-1	1.866138428E-1	1.836359620E0
1.254026544E1	5.528167635E-2	1.174353883E-1	1.829029441E0
1.254866846E1	-4.703523964E-2	-7.482878864E-2	1.974716425E0
1.255707149E1	-1.930277348E-1	-4.078932703E-1	2.272504568E0
1.256547451E1	-3.497100472E-1	-6.048914790E-1	2.637485743E0
1.257387753E1	-4.960079789E-1	-6.951441765E-1	3.013614893E0
1.258228055E1	-6.174138784E-1	-7.745543122E-1	3.381497622E0
1.259068357E1	-7.363763452E-1	-7.641699314E-1	3.671039343E0
1.259908659E1	-8.104416132E-1	-3.171824515E-1	3.627211094E0
1.260748961E1	-6.975875497E-1	-1.756185852E-2	3.168617487E0
1.261589263E1	-5.922164321E-1	-2.588465214E-1	2.704068184E0
1.262429565E1	-5.267030597E-1	-7.189671993E-1	2.509971380E0
1.263269867E1	-4.630222321E-1	-1.029583097E0	2.559908152E0
1.264110169E1	-4.472928941E-1	-1.231620789E0	2.644052267E0
1.264950472E1	-4.356867969E-1	-1.382805467E0	2.583731174E0
1.265790774E1	-4.109475017E-1	-1.475501537E0	2.338017941E0
1.266631076E1	-3.761292100E-1	-1.536738992E0	2.000524759E0
1.267471378E1	-2.916795611E-1	-1.450609565E0	1.623173833E0
1.268311680E1	-2.034121305E-1	-1.354859233E0	1.266286373E0
1.269151982E1	-3.239017725E-1	-1.250251651E0	9.400939345E-1
1.269992284E1	-3.831539452E-1	-1.093874693E0	8.727480173E-1
1.270832586E1	-1.959292591E-1	-7.863131166E-1	9.123004079E-1
1.271672888E1	-6.429167092E-2	-3.159607351E-1	6.539120078E-1
1.272513190E1	-1.997470558E-1	7.711946964E-2	6.169557199E-2
1.273353492E1	-3.093941510E-1	3.361186981E-1	-4.793623984E-1
1.274193794E1	-2.828222811E-1	4.295783341E-1	-7.124006152E-1
1.275034097E1	-1.756185889E-1	5.117372870E-1	-7.693621516E-1
1.275874399E1	-9.651386738E-2	5.862606764E-1	-8.814526200E-1
1.276714701E1	-4.734066129E-2	6.351284385E-1	-1.104259133E0
1.277555003E1	-4.123218823E-3	6.902574301E-1	-1.403879762E0
1.278395305E1	3.985778242E-2	7.533273697E-1	-1.721214890E0
1.279235607E1	8.628217876E-2	7.615737915E-1	-1.984337330E0
1.280075909E1	1.470614821E-1	7.256865501E-1	-2.185764313E0
1.280916211E1	2.287622988E-1	6.809419990E-1	-2.349165916E0
1.281756513E1	3.074088693E-1	6.418477297E-1	-2.504015684E0
1.282596815E1	3.724641204E-1	5.885513425E-1	-2.651993275E0
1.283437117E1	4.185830951E-1	5.667135715E-1	-2.810050011E0
1.284277419E1	4.634803534E-1	5.957288146E-1	-2.999259949E0
1.285117722E1	5.053234100E-1	6.190937161E-1	-3.218859673E0
1.285958024E1	5.451811552E-1	6.055023670E-1	-3.430365562E0
1.286798326E1	5.799994469E-1	5.757235289E-1	-3.609343767E0
1.287638628E1	6.024481058E-1	5.586197972E-1	-3.757168770E0
1.288478930E1	6.143596172E-1	5.477772951E-1	-3.883156061E0
1.289319232E1	6.166502833E-1	5.587725043E-1	-4.032202721E0
1.290159534E1	6.106945276E-1	5.732801557E-1	-4.210875511E0
1.290999836E1	5.885513425E-1	5.676298141E-1	-4.387104988E0
1.291840138E1	5.606050491E-1	5.648810267E-1	-4.550048351E0
1.292680440E1	5.389199853E-1	5.453338623E-1	-4.698942661E0
1.293520742E1	5.193728805E-1	4.944808483E-1	-4.837146759E0
1.294361044E1	5.031854510E-1	4.291202128E-1	-4.957942009E0
1.295201346E1	4.860817194E-1	3.666610718E-1	-5.040864468E0
1.296041649E1	4.647020400E-1	3.051182032E-1	-5.075376987E0
1.296881951E1	4.422534108E-1	2.744231224E-1	-5.100574493E0
1.297722253E1	4.109475017E-1	2.466295809E-1	-5.168684006E0
1.298562555E1	3.636068404E-1	1.763821393E-1	-5.257562160E0
1.299402857E1	2.886253297E-1	5.115845799E-2	-5.316203594E0
1.300243159E1	1.977618039E-1	-1.495048702E-1	-5.303070545E0
1.301083461E1	1.061347127E-1	-3.556658030E-1	-5.225187302E0
1.301923763E1	4.107947648E-2	-5.097520351E-1	-5.073239326E0
1.302764065E1	-1.939439960E-2	-7.049177289E-1	-4.794387341E0
1.303604367E1	-7.223268598E-2	-7.759287357E-1	-4.455825329E0
1.304444669E1	-7.589777559E-2	-6.296308041E-1	-4.146278381E0
1.305284972E1	-7.024743408E-2	-3.481829464E-1	-3.866204977E0
1.306125274E1	-1.198787764E-1	3.008422814E-2	-3.521381855E0
1.306965576E1	-8.261708915E-2	4.404208660E-1	-3.137616873E0
1.307805878E1	-2.687728032E-2	7.316423059E-1	-2.777827978E0
1.308646180E1	-6.169557199E-2	8.244910836E-1	-2.361535549E0
1.309486482E1	-1.348445266E-1	7.288935184E-1	-1.787339091E0
1.310326784E1	-1.992889196E-1	5.146388412E-1	-1.090209603E0
1.311167086E1	-2.571666837E-1	2.118112892E-1	-2.976353168E-1
1.312007388E1	-2.745758295E-1	1.527118147E-4	4.755446017E-1
1.312847690E1	-2.356343269E-1	-4.352286831E-2	1.098608851E0
1.313687992E1	-1.905843467E-1	-1.053711493E-2	1.552315593E0
1.314528294E1	-1.963873953E-1	4.886778072E-2	1.853463292E0
1.315368597E1	-2.695363462E-1	8.368607610E-2	2.042062283E0
1.316208899E1	-3.388675153E-1	7.742489129E-2	2.181641102E0
1.317049201E1	-3.478775024E-1	1.354553849E-1	2.249903202E0
1.317889503E1	-3.410054743E-1	3.852919042E-1	2.188054800E0
1.318729805E1	-3.585673273E-1	8.434273601E-1	1.983421087E0
1.319570107E1	-4.868452549E-1	1.556591511E0	1.483137131E0
1.320410409E1	-9.226847887E-1	2.594115496E0	3.011476994E-1
1.321250711E1	-1.166260123E0	3.443040609E0	-1.272853017E0
1.322091013E1	-1.071731567E0	2.480498075E0	-8.698465228E-1
1.322931315E1	-9.593356252E-1	4.781406820E-1	1.424190402E0
1.323771617E1	-9.182561636E-1	-1.369825006E-1	3.386079073E0
1.324611919E1	-7.869240046E-1	1.608055383E-1	3.930954933E0
1.325452222E1	-6.679614782E-1	8.270871639E-1	2.441861868E0
1.326292524E1	-6.397097707E-1	1.474432588E0	3.295520842E-1
1.327132826E1	-7.543963790E-1	1.515817523E0	-4.169032574E-1
1.327973128E1	-7.233958840E-1	1.117239594E0	-1.148392856E-1
1.328813430E1	-4.437805414E-1	5.676298141E-1	6.452074051E-1
1.329653732E1	-2.473931462E-1	-4.886778072E-3	1.267813444E0
1.330494034E1	-2.803788781E-1	-6.565080881E-1	1.532921195E0
1.331334336E1	-3.442124426E-1	-7.452336550E-1	1.590340853E0
1.332174638E1	-3.286358118E-1	-5.341859460E-1	1.590340853E0
1.333014940E1	-1.801999360E-1	-2.721324563E-1	1.489398360E0
1.333855242E1	-5.085303262E-2	-2.336490713E-2	1.234827757E0
1.334695544E1	-7.299624383E-2	4.993676394E-2	9.900307059E-1
1.335535846E1	-1.327065676E-1	-3.527642787E-2	9.251281619E-1
1.336376149E1	-1.026223376E-1	-1.505738497E-1	1.047755718E0
1.337216451E1	-6.520794332E-2	-3.003841341E-1	1.168245435E0
1.338056753E1	-6.887302548E-2	-4.709632397E-1	1.183974743E0
1.338897055E1	-6.780404598E-2	-4.535540938E-1	1.155570269E0
1.339737357E1	-3.390202299E-2	-2.883199155E-1	1.131136417E0
1.340577659E1	3.359660041E-3	-1.453816444E-1	1.084253907E0
1.341417961E1	1.404948719E-2	-1.151447073E-1	1.026986957E0
1.342258263E1	-8.857285604E-3	-1.351499557E-1	1.030499339E0
1.343098565E1	-8.399149403E-3	-1.519482583E-1	1.089904189E0
1.343938867E1	-3.206948051E-3	-2.206685692E-1	1.143964171E0
1.344779169E1	-1.725643501E-2	-3.078670204E-1	1.161831498E0
1.345619472E1	-9.009997360E-3	-3.859027624E-1	1.135412335E0
1.346459774E1	5.039489828E-3	-4.405735731E-1	1.082726717E0
1.347300076E1	3.054236295E-3	-4.695888162E-1	1.027292371E0
1.348140378E1	6.872031838E-3	-4.976878166E-1	9.914051294E-1
1.348980680E1	7.941014133E-3	-5.012001991E-1	9.707890153E-1
1.349820982E1	4.275930673E-2	-5.115845799E-1	9.955283403E-1
1.350661284E1	1.298050396E-2	-4.668400288E-1	1.044396043E0
1.351501586E1	1.924168877E-2	-3.794888556E-1	9.226847887E-1
1.352341888E1	1.191152167E-2	-4.640912116E-1	7.980719209E-1
1.353182190E1	1.634016447E-2	-4.552339315E-1	7.524111271E-1
1.354022492E1	2.031067200E-2	-4.204156399E-1	7.611156702E-1
1.354862794E1	2.305948362E-2	-3.787252903E-1	7.404996157E-1
1.355703097E1	3.268032894E-2	-3.448232710E-1	7.075138092E-1
1.356543399E1	3.970507160E-2	-3.083251417E-1	6.875085831E-1
1.357383701E1	4.367557913E-2	-2.754921019E-1	6.810947061E-1
1.358224003E1	4.993676394E-2	-2.632751763E-1	6.757497787E-1
1.359064305E1	5.864133686E-2	-2.615953386E-1	6.690304875E-1
1.359904607E1	6.719319522E-2	-2.753393948E-1	6.627692580E-1
1.360744909E1	7.406523079E-2	-3.071034551E-1	6.612421870E-1
1.361585211E1	8.429691941E-2	-3.345915973E-1	6.693359017E-1
1.362425513E1	9.025268257E-2	-3.553603888E-1	6.901046634E-1
1.363265815E1	9.819369763E-2	-3.720059693E-1	7.131641507E-1
1.364106117E1	1.084253863E-1	-3.914003670E-1	7.346965671E-1
1.364946419E1	1.097997949E-1	-3.868190348E-1	7.606575489E-1
1.365786722E1	1.149920002E-1	-4.030064642E-1	7.968502641E-1
1.366627024E1	1.201841980E-1	-3.901786804E-1	8.383878469E-1
1.367467326E1	1.262926757E-1	-3.926220834E-1	8.742751479E-1
1.368307628E1	1.301104724E-1	-3.932329118E-1	9.127585292E-1
1.369147930E1	1.214058921E-1	-3.918585181E-1	9.753703475E-1
1.369988232E1	1.137702987E-1	-3.501681983E-1	1.049130201E0
1.370828534E1	1.036913246E-1	-2.706053257E-1	1.125791550E0
1.371668836E1	8.903098851E-2	-1.565296054E-1	1.216349602E0
1.372509138E1	6.704048812E-2	3.252761811E-2	1.318055630E0
1.373349440E1	3.268032894E-2	2.554868758E-1	1.422205091E0
1.374189742E1	-6.719320081E-3	4.497362971E-1	1.522689462E0
1.375030044E1	-2.473931387E-2	5.903838873E-1	1.627755284E0
1.375870347E1	-2.443389036E-2	6.745280623E-1	1.718160629E0
1.376710649E1	-2.535016090E-2	6.424586177E-1	1.799250603E0
1.377550951E1	-3.512371704E-2	4.552339315E-1	1.884005666E0
1.378391253E1	-5.054761097E-2	1.325538605E-1	1.961888671E0
1.379231555E1	-6.322269142E-2	-2.160872221E-1	2.024195194E0
1.380071857E1	-6.642963737E-2	-5.059342384E-1	2.081920147E0
1.380912159E1	-6.123743951E-2	-6.592568755E-1	2.148960590E0
1.381752461E1	-2.809897438E-2	-6.514685750E-1	2.224400282E0
1.382592763E1	2.840439789E-2	-5.413633585E-1	2.305795670E0
1.383433065E1	7.910472155E-2	-4.017847776E-1	2.389328957E0
1.384273367E1	9.590301663E-2	-2.863346636E-1	2.453926086E0
1.385113669E1	4.550812021E-2	-3.023693860E-1	2.478359938E0
1.385953972E1	-5.818320066E-2	-4.521796703E-1	2.476527452E0
1.386794274E1	-1.710372269E-1	-5.833591223E-1	2.466601133E0
1.387634576E1	-2.899997234E-1	-7.125533223E-1	2.550592661E0
1.388474878E1	-4.404208660E-1	-9.962918758E-1	2.754310369E0
1.389315180E1	-5.601469278E-1	-1.334548593E0	3.044004679E0
1.390155482E1	-6.068767309E-1	-1.859113574E0	3.533598661E0
1.390995784E1	-7.327113152E-1	-1.812842011E0	3.828332424E0
1.391836086E1	-6.907155514E-1	-1.193442822E0	3.528100967E0
1.392676388E1	-4.271349311E-1	-8.997780085E-1	2.851282358E0
1.393516690E1	-2.141019702E-1	-1.023321867E0	2.410708666E0
1.394356992E1	-1.123958975E-1	-1.106091619E0	2.329313278E0
1.395197294E1	-1.224748790E-1	-1.135870457E0	2.308544397E0
1.396037596E1	-2.108950168E-1	-1.244601250E0	2.032441616E0
1.396877899E1	-2.620534599E-1	-1.602252364E0	1.524063945E0
1.397718201E1	-2.295258641E-1	-1.989987612E0	1.044548869E0
1.398558503E1	-1.172826737E-1	-2.056264639E0	6.985038519E-1
1.399398805E1	-3.894151375E-2	-1.871330619E0	4.715740979E-1
1.400239107E1	-4.550812021E-2	-1.674943209E0	3.648285270E-1
1.401079409E1	-1.491994411E-1	-1.415791273E0	2.614426315E-1
1.401919711E1	-1.747023165E-1	-9.556705356E-1	6.780404598E-2
1.402760013E1	-2.504473738E-2	-5.209000111E-1	-1.806580722E-1
1.403600315E1	1.130067464E-2	-2.403683960E-1	-4.613423944E-1
1.404440617E1	-1.363716573E-1	7.635590434E-2	-7.012526393E-1
1.405280919E1	-2.544178963E-1	6.148177385E-1	-9.520054460E-1
1.406121222E1	-2.819060087E-1	9.471186996E-1	-1.212989926E0
1.406961524E1	-2.806843221E-1	1.097081661E0	-1.516275644E0
1.407801826E1	-2.759502530E-1	1.221999884E0	-1.854226828E0
1.408642128E1	-2.793098986E-1	1.239256382E0	-2.163315535E0
1.409482430E1	-2.875563502E-1	1.142589808E0	-2.401698828E0
1.410322732E1	-2.782409191E-1	9.912523627E-1	-2.559297323E0
1.411163034E1	-2.244863659E-1	8.428165317E-1	-2.656574726E0
1.412003336E1	-1.308740228E-1	6.794148684E-1	-2.732930660E0
1.412843638E1	-3.359659761E-2	5.236487985E-1	-2.841661453E0
1.413683940E1	4.810422286E-2	3.732276857E-1	-3.019418001E0
1.414524242E1	1.010952219E-1	1.788255423E-1	-3.247264147E0
1.415364544E1	1.421747059E-1	9.620844387E-3	-3.456479311E0
1.416204847E1	1.747023165E-1	-1.038440317E-1	-3.611634493E0
1.417045149E1	1.915006191E-1	-1.380514801E-1	-3.707690239E0
1.417885451E1	2.081461996E-1	-5.421269313E-2	-3.804967642E0
1.418725753E1	2.038702667E-1	9.055810422E-2	-3.934619904E0
1.419566055E1	1.895153672E-1	2.977880239E-1	-4.100617886E0
1.420406357E1	1.827960461E-1	5.259394646E-1	-4.313650608E0
1.421246659E1	1.733279079E-1	6.985038519E-1	-4.541038513E0
1.422086961E1	1.534753740E-1	8.382351398E-1	-4.746283054E0
1.422927263E1	1.527118087E-1	9.370396733E-1	-4.895177364E0
1.423767565E1	1.699682474E-1	9.561286569E-1	-4.994592667E0
1.424607867E1	1.927223057E-1	9.706363082E-1	-5.095229626E0
1.425448169E1	2.315111160E-1	9.773555994E-1	-5.201364517E0
1.426288472E1	2.783936262E-1	9.604045749E-1	-5.274360657E0
1.427128774E1	3.393256664E-1	9.654440880E-1	-5.308720589E0
1.427969076E1	4.077405334E-1	9.715525508E-1	-5.323228359E0
1.428809378E1	4.486673176E-1	8.787037730E-1	-5.306582928E0
1.429649680E1	4.340069890E-1	7.215633392E-1	-5.226408958E0
1.430489982E1	3.736858070E-1	5.813738704E-1	-5.081943989E0
1.431330284E1	2.860292196E-1	4.092676640E-1	-4.919764042E0
1.432170586E1	1.980672181E-1	1.007898003E-1	-4.727957726E0
1.433010888E1	1.192679256E-1	-1.351499557E-1	-4.455519676E0
1.433851190E1	7.406523079E-2	-2.044811249E-1	-4.090538502E0
1.434691492E1	4.153761268E-2	-1.165191159E-1	-3.721739531E0
1.435531794E1	-2.901524538E-3	1.299577504E-1	-3.367600918E0
1.436372096E1	-1.557660475E-2	4.926483035E-1	-2.967648745E0
1.437212399E1	2.443389036E-3	8.338065147E-1	-2.494394779E0
1.438052701E1	2.290677279E-2	1.042410851E0	-1.970135093E0
1.438893003E1	3.970507067E-3	9.727742672E-1	-1.440072417E0
1.439733305E1	-1.832541823E-2	7.065975666E-1	-8.629744649E-1
1.440573607E1	-7.452336699E-2	3.515425920E-1	-1.841704547E-1
1.441413909E1	-1.498102844E-1	-3.802524135E-2	6.030589342E-1
1.442254211E1	-1.235438585E-1	-2.677038014E-1	1.314695954E0
1.443094513E1	-5.803048983E-2	-3.747547865E-1	1.800624967E0
1.443934815E1	-3.573456407E-2	-4.078932703E-1	2.065274477E0
1.444775117E1	-7.849387079E-2	-4.085040987E-1	2.200119019E0
1.445615419E1	-1.522536725E-1	-4.501944184E-1	2.261967421E0
1.446455722E1	-1.791309565E-1	-5.201364160E-1	2.225316525E0
1.447296024E1	-1.881409585E-1	-5.969504714E-1	2.104674339E0
1.448136326E1	-2.176143378E-1	-6.252021790E-1	1.963110328E0
1.448976628E1	-2.762556672E-1	-4.950917065E-1	1.661351800E0
1.449816930E1	-3.851391971E-1	-1.924168915E-1	7.502731681E-1
1.450657232E1	-2.637332976E-1	1.901262105E-1	-1.081963181E0
1.451497534E1	3.390202299E-2	2.794626355E-1	-2.062983990E0
1.452337836E1	-1.435490996E-1	-1.705790907E-1	-9.407047629E-1
1.453178138E1	-6.784985662E-1	-6.244385839E-1	1.226886749E0
1.454018440E1	-8.829796910E-1	-9.087880254E-1	3.369738817E0
1.454858742E1	-6.911736727E-1	-1.213600755E0	4.410622597E0
1.455699044E1	-5.299099684E-1	-3.759764731E-1	3.210918665E0
1.456539347E1	-4.417952895E-1	1.548039675E0	7.134696245E-1
1.457379649E1	-6.100836992E-1	2.350692987E0	-5.665608048E-1
1.458219951E1	-8.353336453E-1	2.166522503E0	-5.923691392E-1
1.459060253E1	-7.487460375E-1	1.675859451E0	-2.530434728E-1
1.459900555E1	-4.683671296E-1	8.200624585E-1	1.800472289E-1
1.460740857E1	-2.777827978E-1	-6.337540597E-2	7.985301018E-1
1.461581159E1	-1.902789176E-1	-6.526902914E-1	1.515817523E0
1.462421461E1	-1.537808031E-1	-1.000109673E0	1.948297381E0
1.463261763E1	-1.591257155E-1	-1.113727212E0	1.884921908E0
1.464102065E1	-1.498102844E-1	-9.733850956E-1	1.514901161E0
1.464942367E1	-3.741439432E-2	-6.216897964E-1	1.097081661E0
1.465782669E1	1.151447073E-1	-2.252499312E-1	8.573241234E-1
1.466622972E1	1.278197914E-1	-6.306997687E-2	7.809682488E-1
1.467463274E1	5.558710173E-2	-2.396048307E-1	8.443436027E-1
1.468303576E1	2.000524849E-2	-4.146125913E-1	1.040425539E0
1.469143878E1	4.886778072E-2	-4.850127101E-1	1.247044683E0
1.469984180E1	6.398624927E-2	-5.450284481E-1	1.306449533E0
1.470824482E1	6.139015034E-2	-5.117372870E-1	1.240019917E0
1.471664784E1	7.146912813E-2	-3.521534503E-1	1.156028390E0
1.472505086E1	9.498675168E-2	-1.710372269E-1	1.086239100E0
1.473345388E1	9.468132257E-2	-8.124268800E-2	1.033859015E0
1.474185690E1	7.375980914E-2	-1.359135211E-1	1.044243336E0
1.475025992E1	4.398100078E-2	-1.885990947E-1	1.108229637E0
1.475866294E1	2.977880463E-2	-2.435753495E-1	1.166412830E0
1.476706596E1	1.130067464E-2	-3.110739589E-1	1.201841950E0
1.477546899E1	-1.527118147E-3	-2.980934680E-1	1.195580840E0
1.478387201E1	-1.679830020E-3	-2.698417902E-1	1.167939901E0
1.479227503E1	1.099525020E-2	-2.405211031E-1	1.124569774E0
1.480067805E1	1.374406368E-2	-2.385358512E-1	1.082115889E0
1.480908107E1	1.023169141E-2	-2.774773538E-1	1.051878929E0
1.481748409E1	7.788302377E-3	-3.289412558E-1	1.021336675E0
1.482588711E1	8.704573847E-3	-3.724641204E-1	9.761339426E-1
1.483429013E1	1.267508045E-2	-4.004103839E-1	9.182561636E-1
1.484269315E1	1.603474095E-2	-3.991886973E-1	8.602256775E-1
1.485109617E1	2.809897438E-2	-3.631486893E-1	8.061656952E-1
1.485949919E1	4.657710344E-2	-3.159607351E-1	7.637118101E-1
1.486790222E1	5.696150661E-2	-2.896943092E-1	7.238540053E-1
1.487630524E1	7.085828483E-2	-2.771719396E-1	6.841489077E-1
1.488470826E1	8.521319181E-2	-2.680092454E-1	6.540647149E-1
1.489311128E1	8.506047726E-2	-2.759502530E-1	6.397097707E-1
1.490151430E1	9.605573118E-2	-3.060344756E-1	6.363501549E-1
1.490991732E1	1.142284349E-1	-3.344388604E-1	6.390989423E-1
1.491832034E1	1.224748790E-1	-3.636068404E-1	6.520794630E-1
1.492672336E1	1.232384369E-1	-3.655920923E-1	6.751389503E-1
1.493512638E1	1.359135211E-1	-3.419217467E-1	6.920899153E-1
1.494352940E1	1.328592747E-1	-3.312319219E-1	7.023216486E-1
1.495193242E1	1.334701329E-1	-3.119902313E-1	7.154548764E-1
1.496033544E1	1.377460510E-1	-3.092414141E-1	7.444701195E-1
1.496873847E1	1.397313178E-1	-2.964136302E-1	7.806627750E-1
1.497714149E1	1.470614821E-1	-2.967190444E-1	8.192988634E-1
1.498554451E1	1.456870735E-1	-3.115321100E-1	8.623636365E-1
1.499394753E1	1.533226669E-1	-3.400892019E-1	9.193251133E-1
1.500235055E1	1.539335102E-1	-3.695625961E-1	9.868237376E-1
1.501075357E1	1.469087601E-1	-3.648285270E-1	1.045159698E0
1.501915659E1	1.301104724E-1	-3.492519259E-1	1.099372387E0
1.502755961E1	1.120904684E-1	-2.475458533E-1	1.165649295E0
1.503596263E1	7.666133344E-2	-8.368607610E-2	1.242463350E0
1.504436565E1	4.489727318E-2	1.185043678E-1	1.326607585E0
1.505276867E1	2.565558441E-2	3.080197275E-1	1.398534775E0
1.506117169E1	3.588727489E-2	4.734066129E-1	1.467102408E0
1.506957472E1	5.283828825E-2	5.639647245E-1	1.538571477E0
1.507797774E1	5.864133686E-2	4.555393457E-1	1.625617266E0
1.508638076E1	4.993676394E-2	2.093679011E-1	1.705943704E0
1.509478378E1	3.649812192E-2	-9.559759498E-2	1.759087443E0
1.510318680E1	2.886253223E-2	-3.723114133E-1	1.786270142E0
1.511158982E1	3.252761811E-2	-5.474718809E-1	1.814521790E0
1.511999284E1	5.192201585E-2	-5.838172436E-1	1.850256324E0
1.512839586E1	8.383878320E-2	-5.361711979E-1	1.897444248E0
1.513679888E1	1.120904684E-1	-4.758500159E-1	1.953642249E0
1.514520190E1	1.452289373E-1	-3.804051280E-1	2.004953384E0
1.515360492E1	1.855448484E-1	-2.867927849E-1	2.086807013E0
1.516200794E1	2.064663768E-1	-1.737860441E-1	2.216764688E0
1.517041096E1	1.827960461E-1	-1.194206402E-1	2.340003252E0
1.517881399E1	1.062874198E-1	-1.878355294E-1	2.404142141E0
1.518721701E1	1.221694518E-3	-2.846548259E-1	2.416511774E0
1.519562003E1	-1.224748790E-1	-3.950654566E-1	2.475153208E0
1.520402305E1	-2.287622988E-1	-4.752391577E-1	2.597627878E0
1.521242607E1	-3.269560039E-1	-6.210789680E-1	2.762862206E0
1.522082909E1	-4.350759685E-1	-9.538379908E-1	3.033772945E0
1.522923211E1	-4.737120569E-1	-1.467102408E0	3.513135195E0
1.523763513E1	-5.529694557E-1	-1.578123927E0	3.825125456E0
1.524603815E1	-4.732539058E-1	-1.210852027E0	3.539248943E0
1.525444117E1	-2.418955117E-1	-1.142131686E0	2.921071529E0
1.526284419E1	-5.818320066E-2	-1.166718245E0	2.545095205E0
1.527124722E1	2.993151546E-2	-1.068524599E0	2.430255890E0
1.527965024E1	-2.535016090E-2	-1.046228647E0	2.362757206E0
1.528805326E1	-1.507265568E-1	-1.143964171E0	2.102689028E0
1.529645628E1	-2.139492482E-1	-1.292705536E0	1.667154908E0
1.530485930E1	-1.942494214E-1	-1.398382068E0	1.242005229E0
1.531326232E1	-1.209477559E-1	-1.153432369E0	8.588512540E-1
1.532166534E1	-1.056765765E-1	-9.197832346E-1	5.775560737E-1
1.533006836E1	-2.218902707E-1	-7.679877281E-1	3.837648034E-1
1.533847138E1	-1.585148573E-1	-3.443651497E-1	2.496838123E-1
1.534687440E1	-6.077930331E-2	-3.741439432E-2	1.267508119E-1
1.535527742E1	-1.265980899E-1	6.139015034E-2	-8.170082420E-2
1.536368044E1	-2.382304370E-1	3.005368412E-1	-3.860554695E-1
1.537208347E1	-2.270824611E-1	6.346703172E-1	-6.977402568E-1
1.538048649E1	-2.150182426E-1	7.105680704E-1	-8.956547976E-1
1.538888951E1	-2.331909388E-1	9.119949341E-1	-1.106397152E0
1.539729253E1	-2.564031482E-1	1.225664973E0	-1.445569992E0
1.540569555E1	-2.761029601E-1	1.307365894E0	-1.811772943E0
1.541409857E1	-2.840439677E-1	1.175270081E0	-2.064663649E0
1.542250159E1	-2.582356930E-1	9.930849075E-1	-2.191109180E0
1.543090461E1	-2.050919682E-1	8.138012886E-1	-2.256622553E0
1.543930763E1	-1.401894391E-1	6.817055345E-1	-2.335727215E0
1.544771065E1	-7.513421029E-2	6.178719997E-1	-2.482941389E0
1.545611367E1	-2.916795574E-2	5.737382770E-1	-2.674747467E0
1.546451669E1	-5.344913341E-3	5.670189857E-1	-2.872203827E0
1.547291972E1	1.847812906E-2	5.650337338E-1	-3.047669649E0
1.548132274E1	3.894151375E-2	5.407525301E-1	-3.197174549E0
1.548972576E1	4.825693369E-2	5.636593103E-1	-3.328354120E0
1.549812878E1	5.238015205E-2	6.865923405E-1	-3.453119516E0
1.550653180E1	5.268557742E-2	8.825215697E-1	-3.583382845E0
1.551493482E1	4.795150831E-2	1.118461370E0	-3.723572254E0
1.552333784E1	3.176405653E-2	1.342336893E0	-3.878422022E0
1.553174086E1	2.412846684E-2	1.518566251E0	-4.055567741E0
1.554014388E1	3.038965166E-2	1.639972210E0	-4.244625092E0
1.554854690E1	5.131116882E-2	1.682884216E0	-4.410164356E0
1.555694992E1	9.361234307E-2	1.679219127E0	-4.543023586E0
1.556535294E1	1.514901221E-1	1.610040665E0	-4.641675472E0
1.557375596E1	2.231119573E-1	1.501309872E0	-4.711617470E0
1.558215899E1	3.112266660E-1	1.393800735E0	-4.751475334E0
1.559056201E1	3.996468186E-1	1.292552829E0	-4.766899109E0
1.559896503E1	4.749337435E-1	1.175575495E0	-4.753002644E0
1.560736805E1	5.370874405E-1	1.042105436E0	-4.723681927E0
1.561577107E1	5.679352283E-1	8.652651310E-1	-4.712228298E0
1.562417409E1	5.505260825E-1	6.455128193E-1	-4.778352737E0
1.563257711E1	5.056288242E-1	3.445178568E-1	-4.870285034E0
1.564098013E1	4.471401870E-1	-3.451287001E-2	-4.896551609E0
1.564938315E1	3.845283389E-1	-4.185830951E-1	-4.816835880E0
1.565778617E1	3.449759781E-1	-7.934905887E-1	-4.587004662E0
1.566618919E1	3.103103936E-1	-1.017060637E0	-4.232866287E0
1.567459222E1	2.661767006E-1	-9.746068120E-1	-3.864219666E0
1.568299524E1	2.240282297E-1	-7.182036638E-1	-3.545510292E0
1.569139826E1	1.806580722E-1	-3.190149665E-1	-3.256426811E0
1.569980128E1	1.172826737E-1	1.304158866E-1	-2.977422237E0
1.570820430E1	4.001049697E-2	4.932591617E-1	-2.689560413E0
1.571660732E1	-2.076880634E-2	7.629482150E-1	-2.350692987E0
1.572501034E1	-6.520794332E-2	9.397885203E-1	-1.923710704E0
1.573341336E1	-8.460234851E-2	1.012479305E0	-1.392731786E0
1.574181638E1	-7.925742865E-2	1.016755223E0	-8.228112459E-1
1.575021940E1	-7.925742865E-2	9.584193230E-1	-2.425063550E-1
1.575862242E1	-7.971556485E-2	8.729007244E-1	3.339807391E-1
1.576702544E1	-7.177454978E-2	8.255600929E-1	8.403730989E-1
1.577542847E1	-7.757759839E-2	7.954758406E-1	1.222916245E0
1.578383149E1	-1.107160673E-1	7.153021693E-1	1.521009684E0
1.579223451E1	-1.485885978E-1	6.152759194E-1	1.747481346E0
1.580063753E1	-2.302894145E-1	5.267030597E-1	1.879577041E0
1.580904055E1	-3.197785318E-1	4.616478086E-1	1.943410516E0
1.581744357E1	-3.116848171E-1	4.512633979E-1	1.961583257E0
1.582584659E1	-3.402419090E-1	4.285093546E-1	1.909203053E0
1.583424961E1	-5.199837089E-1	4.567610323E-1	1.556744218E0
1.584265263E1	-6.696413159E-1	6.242858768E-1	3.764346242E-1
1.585105565E1	-3.796415627E-1	7.670714259E-1	-1.763668776E0
1.585945867E1	2.061609551E-2	5.361711979E-1	-2.857390881E0
1.586786169E1	-3.588727713E-1	-2.182251811E-1	-1.643026471E0
1.587626472E1	-7.788302302E-1	-5.680879354E-1	1.239714503E0
1.588466774E1	-8.342646360E-1	-7.951704264E-1	4.110543728E0
1.589307076E1	-6.009209752E-1	-9.443698525E-1	4.893650055E0
1.590147378E1	-4.479037523E-1	8.200624585E-2	3.089512825E0
1.590987680E1	-5.254813433E-1	1.737402320E0	4.607315361E-1
1.591827982E1	-9.394831061E-1	2.309460878E0	-6.171084642E-1
1.592668284E1	-1.161220670E0	2.270977497E0	-3.823903799E-1
1.593508586E1	-9.509364963E-1	1.807344317E0	8.551862091E-3
1.594348888E1	-5.540384650E-1	7.821899056E-1	3.932329118E-1
1.595189190E1	-3.323009014E-1	1.267508045E-2	9.271134138E-1
1.596029492E1	-3.367295563E-1	-3.787252903E-1	1.567739487E0
1.596869794E1	-3.982724249E-1	-6.814001203E-1	1.988002419E0
1.597710097E1	-3.839175105E-1	-8.284615874E-1	1.949977160E0
1.598550399E1	-2.518217862E-1	-8.012788892E-1	1.519788027E0
1.599390701E1	-8.704573661E-2	-6.041279435E-1	1.070815206E0
1.600231003E1	1.679830020E-3	-2.791571915E-1	8.350282311E-1
1.601071305E1	-4.596625641E-2	-1.000262350E-1	7.843278646E-1
1.601911607E1	-1.195733473E-1	-2.614426315E-1	7.954758406E-1
1.602751909E1	-1.116323397E-1	-4.920374751E-1	8.670976758E-1
1.603592211E1	-4.840964451E-2	-6.189410090E-1	1.006218195E0
1.604432513E1	-9.009997360E-3	-6.366555691E-1	1.092500329E0
1.605272815E1	-3.054236295E-4	-5.977140665E-1	1.069593549E0
1.606113117E1	2.092151903E-2	-5.016583204E-1	9.903361201E-1
1.606953419E1	4.398100078E-2	-3.355078697E-1	9.272661209E-1
1.607793722E1	3.710897267E-2	-1.652341783E-1	9.191724062E-1
1.608634024E1	5.955760833E-3	-1.061347127E-1	9.701781869E-1
1.609474326E1	-1.298050396E-2	-8.964183182E-2	1.059514523E0
1.610314628E1	-1.466033421E-2	-1.068982705E-1	1.140146375E0
1.611154930E1	-3.466558084E-2	-1.591257155E-1	1.177866220E0
1.611995232E1	-4.825693369E-2	-1.861557066E-1	1.165649295E0
1.612835534E1	-4.260659590E-2	-1.838650256E-1	1.136175871E0
1.613675836E1	-5.146388337E-2	-1.450762302E-1	1.100746751E0
1.614516138E1	-6.474980712E-2	-1.287360638E-1	1.072953224E0
1.615356440E1	-6.520794332E-2	-1.189625040E-1	1.056918502E0
1.616196742E1	-6.688777357E-2	-1.020114943E-1	1.039356589E0
1.617037044E1	-7.146912813E-2	-9.987352788E-2	1.015686274E0
1.617877347E1	-7.009471953E-2	-1.273616552E-1	9.862129092E-1
1.618717649E1	-6.536065787E-2	-1.701209545E-1	9.436063170E-1
1.619557951E1	-5.726693198E-2	-2.153236568E-1	8.919897079E-1
1.620398253E1	-3.619270027E-2	-2.438807636E-1	8.284615874E-1
1.621238555E1	-1.343864016E-2	-2.742704153E-1	7.670714259E-1
1.622078857E1	6.108472589E-3	-2.927485406E-1	7.189671993E-1
1.622919159E1	2.000524849E-2	-3.090887070E-1	6.853706241E-1
1.623759461E1	3.023693897E-2	-3.321481943E-1	6.656708121E-1
1.624599763E1	3.665083647E-2	-3.521534503E-1	6.604785919E-1
1.625440065E1	3.970507160E-2	-3.547495604E-1	6.656708121E-1
1.626280367E1	3.833066672E-2	-3.439069986E-1	6.694886088E-1
1.627120669E1	4.398100078E-2	-3.538332880E-1	6.734591126E-1
1.627960972E1	5.543438718E-2	-3.571929336E-1	6.716265678E-1
1.628801274E1	6.566607952E-2	-4.081986845E-1	6.890357137E-1
1.629641576E1	7.009471953E-2	-4.674508572E-1	7.270609736E-1
1.630481878E1	7.040014863E-2	-5.259394646E-1	7.708892226E-1
1.631322180E1	7.666133344E-2	-5.662553906E-1	8.087617755E-1
1.632162482E1	8.490777016E-2	-5.792359114E-1	8.411366940E-1
1.633002784E1	8.903098851E-2	-5.972558856E-1	8.787037730E-1
1.633843086E1	9.162709117E-2	-5.981721878E-1	9.269607067E-1
1.634683388E1	1.006370857E-1	-5.453338623E-1	9.797990322E-1
1.635523690E1	1.000262350E-1	-4.705050886E-1	1.037218690E0
1.636363992E1	1.026223376E-1	-4.112529159E-1	1.098914266E0
1.637204294E1	9.529217333E-2	-3.823903799E-1	1.179698825E0
1.638044596E1	9.376505762E-2	-3.063398898E-1	1.272700310E0
1.638884899E1	8.383878320E-2	-1.918060333E-1	1.366312623E0
1.639725201E1	6.139015034E-2	-4.092676565E-2	1.448318839E0
1.640565503E1	3.420744836E-2	1.392731816E-1	1.515970230E0
1.641405805E1	9.162708884E-4	2.658712566E-1	1.590035439E0
1.642246107E1	-1.756185852E-2	3.639122546E-1	1.675248623E0
1.643086409E1	-1.771457121E-2	4.312581718E-1	1.766875744E0
1.643926711E1	-2.092151903E-2	4.518742561E-1	1.852088928E0
1.644767013E1	-2.351761982E-2	4.237752855E-1	1.927223086E0
1.645607315E1	-2.168507688E-2	2.754921019E-1	1.997012377E0
1.646447617E1	-6.108472589E-3	4.642439261E-2	2.058249950E0
1.647287919E1	4.352286831E-2	-7.131642103E-2	2.110630035E0
1.648128222E1	1.087308154E-1	-2.840439789E-2	2.172020197E0
1.648968524E1	1.432436854E-1	7.559234649E-2	2.222873211E0
1.649808826E1	1.409530044E-1	7.803573459E-2	2.227149010E0
1.650649128E1	1.203369126E-1	-7.177455351E-3	2.228218079E0
1.651489430E1	9.009996802E-2	-1.039967462E-1	2.282278061E0
1.652329732E1	3.069507517E-2	-2.388412803E-1	2.410708666E0
1.653170034E1	-6.520794332E-2	-4.133908749E-1	2.565711260E0
1.654010336E1	-1.733279079E-1	-6.273401380E-1	2.707885981E0
1.654850638E1	-2.826695740E-1	-8.832851648E-1	2.796764135E0
1.655690940E1	-3.917058110E-1	-1.218640327E0	2.856016397E0
1.656531242E1	-5.111264586E-1	-1.577207565E0	2.960165739E0
1.657371544E1	-5.740436912E-1	-1.763057947E0	3.146626949E0
1.658211846E1	-6.248967648E-1	-1.843384266E0	3.413109064E0
1.659052149E1	-6.135960817E-1	-1.452747464E0	3.384093761E0
1.659892451E1	-4.567610323E-1	-8.651124239E-1	2.963372707E0
1.660732753E1	-2.380777150E-1	-6.168029904E-1	2.490882397E0
1.661573055E1	-1.299577504E-1	-6.587987542E-1	2.317707300E0
1.662413357E1	-9.926267713E-2	-6.751389503E-1	2.325190067E0
1.663253659E1	-1.411057115E-1	-7.227849960E-1	2.263647318E0
1.664093961E1	-2.121167034E-1	-8.307522535E-1	1.907675982E0
1.664934263E1	-2.646495700E-1	-1.186112642E0	1.369519591E0
1.665774565E1	-2.133384049E-1	-1.497186661E0	1.010035992E0
1.666614867E1	-1.667613089E-1	-1.367839694E0	7.571451664E-1
1.667455169E1	-2.052446753E-1	-1.214669824E0	6.687250137E-1
1.668295472E1	-7.207997888E-2	-1.491994381E0	8.157865405E-1
1.669135774E1	4.627167806E-2	-1.345543742E0	7.116370797E-1
1.669976076E1	-1.162136942E-1	-5.039489865E-1	1.820324808E-1
1.670816378E1	-3.330644667E-1	1.678302884E-1	-4.453076422E-1
1.671656680E1	-3.759764731E-1	4.341596961E-1	-7.317950130E-1
1.672496982E1	-3.585673273E-1	4.950917065E-1	-6.458182931E-1
1.673337284E1	-3.710896969E-1	7.740961909E-1	-5.877877474E-1
1.674177586E1	-3.823903799E-1	1.113727212E0	-9.014578462E-1
1.675017888E1	-3.759764731E-1	1.213906169E0	-1.402199864E0
1.675858190E1	-3.785725832E-1	1.219251156E0	-1.853310585E0
1.676698492E1	-3.515425920E-1	1.188708782E0	-2.125290394E0
1.677538794E1	-2.945810854E-1	9.886562824E-1	-2.252346516E0
1.678379096E1	-1.982199401E-1	6.694886088E-1	-2.327022552E0
1.679219399E1	-7.895200700E-2	3.504736125E-1	-2.404905558E0
1.680059701E1	2.275406010E-2	1.527118087E-1	-2.510887623E0
1.680900003E1	8.475505561E-2	5.696150661E-2	-2.651535273E0
1.681740305E1	1.320957243E-1	2.687728032E-2	-2.835858345E0
1.682580607E1	1.840177327E-1	2.596100792E-3	-3.046447992E0
1.683420909E1	2.403683960E-1	-4.749337584E-2	-3.235657930E0
1.684261211E1	2.947337925E-1	-7.284353673E-2	-3.386689901E0
1.685101513E1	3.384093940E-1	-6.352811307E-2	-3.498475075E0
1.685941815E1	3.559712470E-1	-1.710372418E-2	-3.588116884E0
1.686782117E1	3.423798978E-1	1.204896197E-1	-3.702345133E0
1.687622419E1	3.194731176E-1	2.965663373E-1	-3.845741749E0
1.688462722E1	3.179459870E-1	4.561502039E-1	-4.010059357E0
