"Time (s)"	"Acceleration x (m/s^2)"	"Acceleration y (m/s^2)"	"Acceleration z (m/s^2)"
4.550038000E-3	-2.008176327E0	9.129815102E0	-1.588834286E0
1.295305800E-2	-1.789233088E0	9.645467758E0	-4.857429862E-1
2.135607900E-2	-1.188036442E0	9.934401512E0	-4.737788737E-1
2.975910000E-2	-1.058225870E0	9.819545746E0	-3.541377485E-1
3.816212100E-2	-1.243669510E0	9.574879646E0	-4.169493318E-1
4.656514200E-2	-1.391426325E0	9.646066666E0	-4.630111754E-1
5.496816300E-2	-1.523629785E0	9.710074425E0	-4.965106845E-1
6.337118300E-2	-1.594816327E0	9.655039787E0	-4.163511395E-1
7.177420400E-2	-1.488335729E0	9.621540070E0	-3.505485058E-1
8.017722500E-2	-1.369890928E0	9.647860527E0	-4.360919297E-1
8.858024600E-2	-1.359721422E0	9.688538551E0	-4.540380836E-1
9.698326700E-2	-1.405185103E0	9.683753014E0	-4.426721931E-1
1.053862880E-1	-1.411167145E0	9.664012909E0	-4.259224236E-1
1.137893080E-1	-1.407577872E0	9.672985077E0	-4.606183469E-1
1.221923290E-1	-1.400997639E0	9.682557106E0	-4.660021961E-1
1.305953500E-1	-1.393221021E0	9.686744690E0	-4.701896608E-1
1.389983710E-1	-1.394417405E0	9.675976753E0	-4.857429862E-1
1.474013920E-1	-1.422533035E0	9.667601585E0	-4.755735099E-1
1.558044130E-1	-1.453639746E0	9.663414001E0	-4.528416991E-1
1.642074330E-1	-1.459621787E0	9.657432556E0	-4.492524564E-1
1.726104540E-1	-1.442273855E0	9.656833649E0	-4.456632137E-1
1.810134750E-1	-1.424327731E0	9.641280174E0	-4.199403822E-1
1.894164960E-1	-1.416550994E0	9.662218094E0	-3.960121572E-1
1.978195170E-1	-1.427916884E0	9.655637741E0	-4.139583111E-1
2.062225380E-1	-1.444068432E0	9.660423279E0	-4.319044948E-1
2.146255580E-1	-1.444068432E0	9.686744690E0	-4.582255483E-1
2.230285790E-1	-1.427318692E0	9.674181938E0	-4.755735099E-1
2.314316000E-1	-1.398604870E0	9.656833649E0	-4.666004181E-1
2.398346210E-1	-1.390828133E0	9.669994354E0	-4.474578202E-1
2.482376420E-1	-1.400997639E0	9.678369522E0	-4.474578202E-1
2.566406630E-1	-1.411167145E0	9.686145782E0	-4.408775866E-1
2.650436830E-1	-1.423131227E0	9.663414001E0	-4.474578202E-1
2.734467040E-1	-1.433300734E0	9.634700775E0	-4.666004181E-1
2.818497250E-1	-1.421934843E0	9.643074989E0	-4.666004181E-1
2.902527460E-1	-1.393221021E0	9.647262573E0	-4.737788737E-1
2.986557670E-1	-1.385444283E0	9.649655342E0	-4.773681164E-1
3.070587880E-1	-1.377069473E0	9.673583984E0	-4.713860750E-1
3.154618080E-1	-1.354337573E0	9.698708534E0	-4.606183469E-1
3.238648290E-1	-1.351944804E0	9.707083702E0	-4.731806815E-1
3.322678500E-1	-1.351346612E0	9.695118904E0	-4.695914388E-1
3.406708710E-1	-1.334596872E0	9.666405678E0	-4.983053207E-1
3.490738920E-1	-1.337587833E0	9.658030510E0	-5.006981492E-1
3.574769130E-1	-1.354935765E0	9.678967476E0	-5.018945336E-1
3.658799330E-1	-1.348953724E0	9.689137459E0	-4.893322289E-1
3.742829540E-1	-1.321436286E0	9.698708534E0	-4.803591371E-1
3.826859750E-1	-1.311266780E0	9.686744690E0	-4.540380836E-1
3.910889960E-1	-1.304088354E0	9.688538551E0	-4.492524564E-1
3.994920170E-1	-1.319641709E0	9.701699257E0	-4.737788737E-1
4.078950380E-1	-1.375274777E0	9.691530228E0	-4.666004181E-1
4.162980580E-1	-1.399203062E0	9.689735413E0	-4.259224236E-1
4.247010790E-1	-1.406381488E0	9.701699257E0	-4.025924206E-1
4.331041000E-1	-1.406381488E0	9.671191216E0	-3.619144261E-1
4.415071210E-1	-1.436291814E0	9.637093544E0	-3.349951804E-1
4.499101420E-1	-1.459621787E0	9.674779892E0	-3.481557071E-1
4.583131630E-1	-1.463809252E0	9.710074425E0	-3.900300860E-1
4.667161830E-1	-1.465603828E0	9.669994354E0	-4.121637046E-1
4.751192040E-1	-1.458425403E0	9.626923561E0	-4.307080805E-1
4.835222250E-1	-1.449452281E0	9.652048111E0	-4.348955154E-1
4.919252460E-1	-1.433300734E0	9.672985077E0	-4.636093974E-1
5.003282670E-1	-1.379462242E0	9.690931320E0	-4.755735099E-1
5.087312880E-1	-1.317847013E0	9.702896118E0	-4.821537733E-1
5.171343080E-1	-1.296909928E0	9.693922997E0	-4.558327198E-1
5.255373290E-1	-1.362712502E0	9.677771568E0	-4.719842672E-1
5.339403500E-1	-1.406979680E0	9.662218094E0	-4.833501875E-1
5.423433710E-1	-1.420738459E0	9.649057388E0	-5.072783828E-1
5.507463920E-1	-1.402194023E0	9.716055870E0	-4.797609448E-1
5.591494130E-1	-1.357328653E0	9.754341125E0	-4.719842672E-1
5.675524330E-1	-1.298106313E0	9.716055870E0	-4.779663086E-1
5.759554540E-1	-1.286142230E0	9.685547829E0	-4.737788737E-1
5.843584750E-1	-1.288534999E0	9.688538551E0	-4.510470629E-1
5.927614960E-1	-1.301097274E0	9.672387123E0	-4.630111754E-1
6.011645170E-1	-1.308874011E0	9.664012909E0	-4.761717021E-1
6.095675380E-1	-1.314856052E0	9.651450157E0	-4.893322289E-1
6.179705580E-1	-1.307079315E0	9.686145782E0	-4.929214716E-1
6.263735790E-1	-1.296311617E0	9.748359680E0	-4.833501875E-1
6.347766000E-1	-1.279561877E0	9.722636223E0	-4.929214716E-1
6.431796210E-1	-1.295115232E0	9.636494637E0	-5.090730190E-1
6.515826420E-1	-1.314257860E0	9.611370087E0	-5.808576941E-1
6.599856630E-1	-1.305882931E0	9.683753014E0	-6.526423693E-1
6.683886830E-1	-1.185643673E0	9.734002113E0	-6.693921089E-1
6.767917040E-1	-1.068395257E0	9.718449593E0	-5.784648657E-1
6.851947250E-1	-1.046859860E0	9.734002113E0	-4.677968323E-1
6.935977460E-1	-1.123430252E0	9.757930756E0	-4.510470629E-1
7.020007670E-1	-1.200598717E0	9.740582466E0	-4.977070987E-1
7.104037880E-1	-1.256830096E0	9.688538551E0	-5.599204898E-1
7.188068080E-1	-1.249053478E0	9.656833649E0	-5.748756528E-1
7.272098290E-1	-1.209571838E0	9.677771568E0	-5.545366406E-1
7.356128500E-1	-1.219741344E0	9.727422714E0	-5.252245665E-1
7.440158710E-1	-1.259821177E0	9.726225853E0	-5.246263742E-1
7.524188920E-1	-1.281356573E0	9.669396400E0	-5.389832854E-1
7.608219130E-1	-1.271785259E0	9.642477036E0	-5.144568682E-1
7.692249330E-1	-1.281954765E0	9.704689980E0	-4.911268353E-1
7.776279540E-1	-1.281356573E0	9.736394882E0	-4.612165689E-1
7.860309750E-1	-1.314257860E0	9.691530228E0	-4.660021961E-1
7.944339960E-1	-1.391426325E0	9.668798447E0	-4.558327198E-1
8.028370170E-1	-1.475175142E0	9.689137459E0	-4.211367965E-1
8.112400380E-1	-1.534397483E0	9.650253296E0	-3.942175210E-1
8.196430580E-1	-1.572682738E0	9.580862045E0	-3.499503136E-1
8.280460790E-1	-1.627119422E0	9.541379929E0	-3.774677813E-1
8.364491000E-1	-1.616351724E0	9.579665184E0	-3.696911037E-1
8.448521210E-1	-1.583450437E0	9.608379364E0	-3.553341627E-1
8.532551420E-1	-1.603789330E0	9.571290970E0	-3.726821244E-1
8.616581630E-1	-1.613958836E0	9.521040916E0	-3.541377485E-1
8.700611830E-1	-1.555334687E0	9.554540634E0	-3.523431420E-1
8.784642040E-1	-1.472184181E0	9.644271851E0	-3.637090325E-1
8.868672250E-1	-1.396810174E0	9.652048111E0	-4.271188378E-1
8.952702460E-1	-1.363310695E0	9.638289452E0	-4.588237405E-1
9.036732670E-1	-1.319641709E0	9.673583984E0	-4.953143001E-1
9.120762880E-1	-1.216152072E0	9.694520950E0	-5.126622319E-1
9.204793080E-1	-1.074975610E0	9.660423279E0	-4.438686073E-1
9.288823290E-1	-9.762716293E-1	9.672387123E0	-3.978067636E-1
9.372853500E-1	-9.164510965E-1	9.692726135E0	-3.954139352E-1
9.456883710E-1	-8.303094506E-1	9.677172661E0	-4.253242314E-1
9.540913920E-1	-7.160521746E-1	9.677172661E0	-4.103690982E-1
9.624944130E-1	-5.970092416E-1	9.682557106E0	-3.846462369E-1
9.708974330E-1	-4.881358147E-1	9.688538551E0	-3.182454109E-1
9.793004540E-1	-3.672982752E-1	9.632308006E0	-2.787638307E-1
9.877034750E-1	-2.769692242E-1	9.600004196E0	-3.056831062E-1
9.961064960E-1	-2.243271172E-1	9.632905960E0	-3.619144261E-1
1.004509517E0	-1.830509305E-1	9.678369522E0	-4.223332107E-1
1.012912538E0	-9.212367237E-2	9.681360245E0	-4.480560422E-1
1.021315558E0	6.580262445E-3	9.660423279E0	-4.217349887E-1
1.029718579E0	4.965107143E-2	9.704689980E0	-4.205385745E-1
1.038121600E0	-0.000000000E0	9.753145218E0	-4.450650215E-1
1.046524621E0	-6.281159073E-2	9.741181374E0	-5.132604837E-1
1.054927642E0	-1.292124242E-1	9.700503349E0	-6.257231236E-1
1.063330663E0	-1.914258152E-1	9.771689415E0	-6.795616150E-1
1.071733683E0	-2.159522474E-1	9.876974106E0	-6.658028960E-1
1.080136704E0	-1.633101404E-1	9.879366875E0	-5.234299302E-1
1.088539725E0	-7.836493850E-2	9.766903877E0	-2.452643216E-1
1.096942746E0	3.948157281E-2	9.701699257E0	-2.033899277E-1
1.105345767E0	1.830509305E-1	9.866206169E0	-4.223332107E-1
1.113748788E0	4.157529473E-1	9.925428391E0	-5.383851007E-3
1.122151808E0	3.918247223E-1	9.720842361E0	4.695914388E-1
1.130554829E0	2.931207791E-2	9.662816048E0	1.770688742E-1
1.138957850E0	-1.064806059E-1	9.900303841E0	-5.120640397E-1
1.147360871E0	1.609173268E-1	1.003250694E1	-5.210371017E-1
1.155763892E0	5.048855543E-1	9.884152412E0	-3.320041299E-1
1.164166913E0	6.723831892E-1	9.789037704E0	-3.780659735E-1
1.172569933E0	7.639086246E-1	9.888937950E0	-3.272185028E-1
1.180972954E0	7.136593461E-1	9.923035622E0	-1.794617027E-1
1.189375975E0	5.563312769E-1	9.795019150E0	-1.148554832E-1
1.197778996E0	2.883351147E-1	9.748957634E0	-5.982056609E-4
1.206182017E0	-7.597211748E-2	9.777072906E0	-6.999006122E-2
1.214585038E0	-1.686939895E-1	9.801001549E0	-1.734796464E-1
1.222988058E0	-5.144568533E-2	9.801599503E0	8.434699476E-2
1.231391079E0	8.554340899E-2	9.817750931E0	4.468596280E-1
1.239794100E0	1.064806059E-1	9.796216011E0	7.794619799E-1
1.248197121E0	-2.476571500E-1	9.711869240E0	8.303094506E-1
1.256600142E0	-4.911268353E-1	9.811170578E0	5.515456200E-1
1.265003163E0	-3.361915946E-1	1.003250694E1	4.534398913E-1
1.273406183E0	-4.247260094E-2	1.002114105E1	7.112665176E-1
1.281809204E0	1.016949639E-1	9.885947227E0	8.428717852E-1
1.290212225E0	6.460621208E-2	9.909276962E0	8.991031051E-1
1.298615246E0	1.333998591E-1	9.935597420E0	7.489534616E-1
1.307018267E0	4.223332107E-1	9.884152412E0	8.482556343E-1
1.315421288E0	8.207381964E-1	9.771091461E0	9.577272534E-1
1.323824308E0	1.090528965E0	9.791430473E0	1.027717352E0
1.332227329E0	1.165902853E0	9.889535904E0	9.176474810E-1
1.340630350E0	9.577272534E-1	9.946365356E0	5.706881881E-1
1.349033371E0	5.641079545E-1	9.972686768E0	5.000999570E-1
1.357436392E0	2.416750938E-1	9.937392235E0	5.377869010E-1
1.365839413E0	4.157529473E-1	1.000498962E1	5.635097623E-1
1.374242433E0	8.057830334E-1	9.954740524E0	8.524430394E-1
1.382645454E0	9.864411354E-1	9.808179855E0	1.269990563E0
1.391048475E0	8.560323119E-1	9.709476471E0	1.271187067E0
1.399451496E0	5.090730190E-1	9.683155060E0	1.050449133E0
1.407854517E0	1.908276081E-1	9.697511673E0	8.344969153E-1
1.416257538E0	-4.486542568E-2	9.676574707E0	8.380861282E-1
1.424660558E0	-1.615155339E-1	9.701101303E0	6.484549642E-1
1.433063579E0	-5.383851007E-3	9.810572624E0	5.527420044E-1
1.441466600E0	1.076770201E-1	9.803394318E0	7.908278704E-1
1.449869621E0	1.399801224E-1	9.643673897E0	9.296116233E-1
1.458272642E0	8.315058798E-2	9.529416084E0	7.932206988E-1
1.466675663E0	-3.349951655E-2	9.538389206E0	6.520441771E-1
1.475078683E0	-1.046859920E-1	9.642477036E0	6.490531564E-1
1.483481704E0	-1.585244983E-1	9.648459435E0	6.927221417E-1
1.491884725E0	-2.554338276E-1	9.558130264E0	6.059823632E-1
1.500287746E0	-1.172483116E-1	9.521040916E0	4.989035130E-1
1.508690767E0	2.536391914E-1	9.640682220E0	6.143572330E-1
1.517093788E0	4.384847581E-1	9.714859962E0	7.872386575E-1
1.525496808E0	3.032902777E-1	9.644271851E0	8.039883971E-1
1.533899829E0	1.046859920E-1	9.640682220E0	6.209374666E-1
1.542302850E0	5.324030295E-2	9.772886276E0	5.365904570E-1
1.550705871E0	1.489532143E-1	9.803394318E0	7.399803996E-1
1.559108892E0	1.872383654E-1	9.698708534E0	8.542376757E-1
1.567511913E0	2.243271172E-1	9.655637741E0	9.290133715E-1
1.575914933E0	3.684946895E-1	9.723235130E0	8.907282352E-1
1.584317954E0	4.552344978E-1	9.729216576E0	8.973084688E-1
1.592720975E0	3.894318938E-1	9.620343208E0	7.483552694E-1
1.601123996E0	3.732803464E-1	9.624530792E0	6.311069727E-1
1.609527017E0	5.874379873E-1	9.864411354E0	7.070791125E-1
1.617930038E0	7.698906660E-1	9.987043381E0	8.937192559E-1
1.626333058E0	6.843472719E-1	9.920642853E0	1.071984529E0
1.634736079E0	4.480560422E-1	9.867402077E0	1.188634634E0
1.643139100E0	3.445664644E-1	9.888339996E0	1.048654556E0
1.651542121E0	4.624129832E-1	9.830313683E0	9.080761671E-1
1.659945142E0	6.747759581E-1	9.684351921E0	8.679963946E-1
1.668348163E0	7.567301393E-1	9.739386559E0	8.715856671E-1
1.676751183E0	6.867401004E-1	9.946963310E0	7.663014531E-1
1.685154204E0	5.665007830E-1	1.000798035E1	5.874379873E-1
1.693557225E0	5.156532526E-1	9.909874916E0	4.666004181E-1
1.701960246E0	6.203392744E-1	9.832706451E0	4.336991012E-1
1.710363267E0	7.088736892E-1	9.750154495E0	3.421736360E-1
1.718766288E0	6.293123364E-1	9.687342644E0	2.991028428E-1
1.727169308E0	5.048855543E-1	9.480362892E0	2.267199457E-1
1.735572329E0	5.946164131E-1	9.259625435E0	4.384847581E-1
1.743975350E0	7.866404653E-1	9.369695663E0	3.966103494E-1
1.752378371E0	1.054038405E0	9.760323524E0	3.176472187E-1
1.760781392E0	9.846464992E-1	9.791430473E0	2.135594189E-1
1.769184413E0	7.525427341E-1	9.592825890E0	3.948157281E-2
1.777587433E0	8.745766878E-1	9.608379364E0	-1.435693540E-2
1.785990454E0	1.092921734E0	9.741779327E0	2.416750938E-1
1.794393475E0	1.134796143E0	9.712467194E0	4.911268353E-1
1.802796496E0	1.015154958E0	9.577272415E0	5.437689424E-1
1.811199517E0	8.303094506E-1	9.504889488E0	4.211367965E-1
1.819602538E0	5.413761139E-1	9.571888924E0	3.535395563E-1
1.828005558E0	2.662015259E-1	9.659825325E0	4.785645287E-3
1.836408579E0	2.291127741E-1	9.763913155E0	-2.590230405E-1
1.844811600E0	5.054838061E-1	9.869794846E0	-2.685943544E-1
1.853214621E0	6.939185858E-1	9.891330719E0	1.004985496E-1
1.861617642E0	6.251249313E-1	9.891330719E0	5.431707501E-1
1.870020663E0	4.384847581E-1	9.996614456E0	5.539384484E-1
1.878423683E0	3.176472187E-1	1.026281643E1	2.506481707E-1
1.886826704E0	3.696911037E-1	1.037827015E1	1.836491376E-1
1.895229725E0	4.223332107E-1	1.026461124E1	1.710868180E-1
1.903632746E0	5.659025311E-1	1.002951622E1	8.434699476E-2
1.912035767E0	5.676971674E-1	9.996016502E0	1.274178028E-1
1.920438788E0	5.700899959E-1	9.993623734E0	1.339980662E-1
1.928841808E0	6.957131624E-1	1.000977516E1	7.896314561E-2
1.937244829E0	7.692924738E-1	1.001635551E1	-1.555334684E-2
1.945647850E0	7.686942816E-1	1.031246758E1	-1.232303679E-1
1.954050871E0	6.023930907E-1	1.061635590E1	-5.377869010E-1
1.962453892E0	2.410768867E-1	1.058764172E1	-9.559326172E-1
1.970856913E0	-2.105683982E-1	1.018624592E1	-9.631111026E-1
1.979259933E0	-4.959124923E-1	9.809974670E0	-6.029912829E-1
1.987662954E0	-4.959124923E-1	9.798010826E0	-1.507478207E-1
1.996065975E0	-3.266202807E-1	1.011446095E1	1.058823988E-1
2.004468996E0	-3.092723191E-1	1.034776115E1	3.260220885E-1
2.012872017E0	-3.972085714E-1	1.015932655E1	2.524427772E-1
2.021275038E0	-3.008974493E-1	1.004088211E1	-6.460621208E-2
2.029678058E0	6.221338734E-2	1.019162941E1	-1.112662554E-1
2.038081079E0	3.852444589E-1	1.037049294E1	-3.050848842E-2
2.046484100E0	3.906283081E-1	1.037886810E1	1.788634956E-1
2.054887121E0	2.638086975E-1	1.023769188E1	1.202393398E-1
2.063290142E0	3.463610709E-1	1.008096218E1	-1.148554832E-1
2.071693163E0	4.713860750E-1	9.862616539E0	-2.045863420E-1
2.080096183E0	4.534398913E-1	9.528818130E0	-3.002992272E-1
2.088499204E0	2.075773627E-1	9.271589279E0	-4.887340367E-1
2.096902225E0	-4.546363056E-1	9.108279228E0	-6.687939167E-1
2.105305246E0	-1.869990945E0	8.721838951E0	-9.912267923E-1
2.113708267E0	-3.236890793E0	8.316853523E0	-1.368096352E0
2.122111288E0	-3.084348440E0	8.550751686E0	-1.220339537E0
2.130514308E0	-2.446661234E0	9.032307625E0	-9.583254457E-1
2.138917329E0	-1.904088616E0	9.337391853E0	-5.724828243E-1
2.147320350E0	-1.423131227E0	9.459425926E0	-4.857429862E-1
2.155723371E0	-1.297508121E0	9.610174179E0	-2.889333367E-1
2.164126392E0	-1.548156261E0	9.699306488E0	-4.552344978E-1
2.172529413E0	-1.928016901E0	9.760323524E0	-8.291130662E-1
2.180932433E0	-2.054238319E0	9.881759644E0	-1.068993568E0
2.189335454E0	-2.007578135E0	9.988240242E0	-1.029511929E0
2.197738475E0	-1.954936147E0	1.003071213E1	-5.264210105E-1
2.206141496E0	-2.004587173E0	9.893125534E0	-4.845465720E-1
2.214544517E0	-1.987837434E0	9.888937950E0	-1.139581800E0
2.222947538E0	-1.608574986E0	1.009172916E1	-1.426122308E0
2.231350558E0	-6.334998012E-1	1.013539886E1	-1.010369420E0
2.239753579E0	7.351947427E-1	1.006062317E1	-2.877369225E-1
2.248156600E0	2.262413740E0	1.031127071E1	1.668993831E-1
2.256559621E0	3.087937593E0	1.071266651E1	4.462614357E-1
2.264962642E0	2.668595552E0	1.055115128E1	-1.776670814E-1
2.273365663E0	1.335195065E0	1.009292603E1	-8.464609981E-1
2.281768683E0	-6.400800496E-2	9.573084831E0	-7.716853023E-1
2.290171704E0	-5.072783828E-1	9.264410973E0	-8.799605370E-1
2.298574725E0	-5.563312769E-2	9.499505997E0	-9.397810698E-1
2.306977746E0	6.891329288E-1	9.933803558E0	-8.464609981E-1
2.315380767E0	1.191027522E0	1.000259686E1	-6.915257573E-1
2.323783788E0	1.489532113E0	9.800403595E0	-5.832505226E-1
2.332186808E0	1.666002750E0	9.665806770E0	-3.535395563E-1
2.340589829E0	1.761715651E0	9.617352486E0	-6.999006122E-2
2.348992850E0	1.875972986E0	9.551549911E0	2.452643216E-2
2.357395871E0	2.073979139E0	9.518050194E0	5.503492057E-2
2.365798892E0	2.386242390E0	9.410971642E0	2.321037948E-1
2.374201913E0	2.621337175E0	9.318847656E0	2.338984162E-1
2.382604933E0	2.641077995E0	9.236893654E0	-2.506481707E-1
2.391007954E0	2.551347256E0	9.150154114E0	-6.502495408E-1
2.399410975E0	2.542374134E0	9.127422333E0	-6.161518097E-1
2.407813996E0	2.752344131E0	8.978468895E0	-3.870390654E-1
2.416217017E0	3.253640652E0	8.968897820E0	-2.691925466E-1
2.424620038E0	3.867399693E0	8.800801277E0	-1.782652885E-1
2.433023058E0	4.697709084E0	8.870791435E0	-1.118644550E-1
2.441426079E0	5.984449387E0	9.364311218E0	3.535395563E-1
2.449829100E0	7.222136974E0	1.060977554E1	1.667797327E0
2.458232121E0	6.013163090E0	1.211007500E1	3.263810158E0
2.466635142E0	1.517049551E0	1.280519009E1	2.826521635E0
2.475038163E0	-4.825725079E0	1.189292717E1	1.166501045E-1
2.483441183E0	-9.732208252E0	1.004267693E1	-2.932404041E0
2.491844204E0	-9.439086914E0	8.700901031E0	-4.056432724E0
2.500247225E0	-4.814957142E0	8.907281876E0	-3.661616802E0
2.508650246E0	-9.272187948E-2	1.039382362E1	-3.161516905E0
2.517053267E0	3.031706333E0	1.162792206E1	-1.454836130E0
2.525456288E0	4.648656368E0	1.145384407E1	7.914260626E-1
2.533859308E0	4.107878208E0	1.033101177E1	2.570489645E0
2.542262329E0	1.323829174E0	9.607781410E0	2.154736757E0
2.550665350E0	-1.570888042E0	9.547960281E0	9.463613629E-1
2.559068371E0	-3.059821844E0	9.489934921E0	6.119644046E-1
2.567471392E0	-3.050848961E0	9.255437851E0	1.582253933E0
2.575874413E0	-2.293520451E0	9.150154114E0	2.386840582E0
2.584277433E0	-1.409372568E0	9.480362892E0	1.977069736E0
2.592680454E0	-8.237292171E-1	9.725627899E0	1.612762451E0
2.601083475E0	-1.782652885E-1	9.634700775E0	1.743769526E0
2.609486496E0	4.989035130E-1	9.711270332E0	1.492523074E0
2.617889517E0	7.375875711E-1	1.003489971E1	9.864411354E-1
2.626292538E0	2.787638307E-1	1.012642574E1	5.599204898E-1
2.634695558E0	-4.163511395E-1	9.838688850E0	2.297109663E-1
2.643098579E0	-8.697910309E-1	9.763913155E0	1.136590727E-2
2.651501600E0	-8.799605370E-1	9.923035622E0	-4.007977992E-2
2.659904621E0	-4.791627228E-1	9.964909554E0	3.930211067E-1
2.668307642E0	0.000000000E0	9.841081619E0	7.752745152E-1
2.676710663E0	2.524427772E-1	9.737591743E0	8.955138922E-1
2.685113683E0	1.603191197E-1	9.714262009E0	8.668000102E-1
2.693516704E0	-1.567298770E-1	9.790832520E0	8.183453679E-1
2.701919725E0	-2.608176768E-1	9.900303841E0	9.583254457E-1
2.710322746E0	-1.962114573E-1	9.830911636E0	1.179661512E0
2.718725767E0	-9.870393574E-2	9.705886841E0	1.154536963E0
2.727128788E0	4.366901144E-2	9.736993790E0	1.113858938E0
2.735531808E0	1.274178028E-1	9.769894600E0	1.162911773E0
2.743934829E0	9.990034252E-2	9.728618622E0	1.010369420E0
2.752337850E0	-1.172483116E-1	9.644271851E0	7.734799385E-1
2.760740871E0	-3.337987661E-1	9.681360245E0	4.893322289E-1
2.769143892E0	-2.584248483E-1	9.851848602E0	3.906283081E-1
2.777546913E0	7.058826834E-2	9.912267685E0	5.515456200E-1
2.785949933E0	2.368894368E-1	9.851848602E0	6.472585201E-1
2.794352954E0	2.027917206E-1	9.760921478E0	7.220342159E-1
2.802755975E0	-2.333002165E-2	9.701699257E0	6.813562512E-1
2.811158996E0	-2.679961324E-1	9.719645500E0	6.257231236E-1
2.819562017E0	-3.882354796E-1	9.679565430E0	5.312066078E-1
2.827965038E0	-5.712863803E-1	9.652048111E0	4.917250574E-1
2.836368058E0	-7.734799385E-1	9.668798447E0	6.939185858E-1
2.844771079E0	-7.160521746E-1	9.712467194E0	9.978070259E-1
2.853174100E0	-5.240281820E-1	9.703494072E0	1.143769264E0
2.861577121E0	-4.067798555E-1	9.558728218E0	1.212562919E0
2.869980142E0	-5.353940725E-1	9.433105469E0	1.191027522E0
2.878383163E0	-7.507480979E-1	9.554540634E0	1.061216831E0
2.886786183E0	-9.074779749E-1	9.707083702E0	9.080761671E-1
2.895189204E0	-9.852447510E-1	9.666405678E0	8.727820516E-1
2.903592225E0	-9.559326172E-1	9.570094109E0	8.452646136E-1
2.911995246E0	-7.561319470E-1	9.656235695E0	8.410771489E-1
2.920398267E0	-4.121637046E-1	9.779465675E0	9.361918569E-1
2.928801288E0	-1.842473447E-1	9.764511108E0	1.152742267E0
2.937204308E0	-1.764706671E-1	9.664012909E0	1.241276741E0
2.945607329E0	-2.021935135E-1	9.705886841E0	1.098305583E0
2.954010350E0	-1.860419661E-1	9.757332802E0	1.001396298E0
2.962413371E0	-7.896314561E-2	9.729216576E0	1.007378340E0
2.970816392E0	6.400800496E-2	9.685547829E0	1.025922656E0
2.979219413E0	2.470589429E-1	9.714859962E0	1.099501967E0
2.987622433E0	4.301098585E-1	9.763314247E0	1.087537885E0
2.996025454E0	4.091726840E-1	9.808777809E0	1.121037364E0
3.004428475E0	3.014956415E-1	9.822537422E0	1.077966571E0
3.012831496E0	1.944168359E-1	9.862018585E0	1.080957651E0
3.021234517E0	3.469592705E-2	9.987641335E0	1.094118118E0
3.029637538E0	-9.152546525E-2	1.025743294E1	1.030708313E0
3.038040558E0	-1.256231871E-2	1.043809032E1	8.679963946E-1
3.046443579E0	2.656033039E-1	1.032682419E1	8.344969153E-1
3.054846600E0	4.839483798E-1	9.936794281E0	9.008977413E-1
3.063249621E0	4.707878530E-1	9.714859962E0	8.183453679E-1
3.071652642E0	3.355933726E-1	9.856635094E0	5.491527915E-1
3.080055663E0	3.349951804E-1	1.031067276E1	2.925225794E-1
3.088458683E0	2.614158690E-1	1.072762203E1	-1.022931710E-1
3.096861704E0	-1.692921966E-1	1.067856884E1	-7.441678643E-1
3.105264725E0	-8.751748800E-1	1.039801121E1	-8.117650747E-1
3.113667746E0	-1.660020709E0	9.954740524E0	-4.169493318E-1
3.122070767E0	-1.932802439E0	1.011984539E1	1.046859920E-1
3.130473788E0	-1.613958836E0	1.058405304E1	2.835494876E-1
3.138876808E0	-1.168295622E0	1.095075321E1	1.417747438E-1
3.147279829E0	-9.457631707E-1	1.111645603E1	1.172483116E-1
3.155682850E0	-6.161518097E-1	1.098006535E1	3.230310604E-2
3.164085871E0	5.383851007E-2	1.068993473E1	-2.075773627E-1
3.172488892E0	8.333004713E-1	1.119960594E1	-3.750749528E-1
3.180891913E0	9.822536707E-1	1.131266689E1	2.404786795E-1
3.189294933E0	8.111668825E-1	1.070130062E1	3.433700502E-1
3.197697954E0	6.777670383E-1	1.014496994E1	-1.034895778E-1
3.206100975E0	6.340979934E-1	9.878170013E0	-3.248256743E-1
3.214503996E0	6.765705943E-1	9.665806770E0	-3.768695518E-2
3.222907017E0	8.129615188E-1	9.224330902E0	1.076770201E-1
3.231310038E0	6.448656917E-1	8.818747520E0	7.477571070E-2
3.239713058E0	-8.769695163E-1	8.372486115E0	-5.324030295E-2
3.248116079E0	-3.054438114E0	7.796414375E0	-3.457628787E-1
3.256519100E0	-4.783850670E0	7.607979774E0	-2.542374134E-1
3.264922121E0	-4.919044971E0	7.769495010E0	-3.146561682E-1
3.273325142E0	-3.997808456E0	8.438887596E0	-3.762713671E-1
3.281728163E0	-3.078964472E0	9.323633194E0	-3.086741269E-1
3.290131183E0	-2.473580360E0	9.994820595E0	6.400800496E-2
3.298534204E0	-1.975873351E0	1.026102161E1	4.139583111E-1
3.306937225E0	-1.753340840E0	1.032502937E1	4.187439680E-1
3.315340246E0	-1.842473388E0	1.032024384E1	1.292124242E-1
3.323743267E0	-1.837089539E0	1.038724327E1	-2.829512656E-1
3.332146288E0	-1.435693622E0	1.055593681E1	-5.012963414E-1
3.340549308E0	-9.984052777E-1	1.058704376E1	-3.738785386E-1
3.348952329E0	-5.706881881E-1	1.041954613E1	-3.990031779E-1
3.357355350E0	-2.093719840E-1	1.023410225E1	-4.606183469E-1
3.365758371E0	-4.965107143E-2	1.009531879E1	-5.611169338E-1
3.374161392E0	5.264209956E-2	9.949356079E0	-6.460621357E-1
3.382564413E0	3.451646566E-1	9.860223770E0	-6.346961856E-1
3.390967433E0	7.992027402E-1	9.877572060E0	-4.336991012E-1
3.399370454E0	1.179661512E0	9.959526062E0	-3.355933726E-1
3.407773475E0	1.257428288E0	9.967302322E0	-6.035895348E-1
3.416176496E0	1.165902853E0	9.933803558E0	-7.860422134E-1
3.424579517E0	1.035493970E0	9.891330719E0	-6.406782866E-1
3.432982538E0	9.475577474E-1	9.809376717E0	-4.725824594E-1
3.441385558E0	9.750752449E-1	9.637691498E0	-3.870390654E-1
3.449788579E0	1.209571838E0	9.504291534E0	-3.589234054E-1
3.458191600E0	1.590030670E0	9.510273933E0	-3.774677813E-1
3.466594621E0	1.920240164E0	9.442676544E0	-5.132604837E-1
3.474997642E0	2.156531334E0	9.248857498E0	-5.108676553E-1
3.483400663E0	2.280958176E0	9.116654396E0	-3.098705411E-1
3.491803683E0	2.259422779E0	9.026325226E0	-2.267199457E-1
3.500206704E0	2.220539331E0	8.951549530E0	-2.662015259E-1
3.508609725E0	2.331207514E0	8.873783112E0	-1.280160099E-1
3.517012746E0	2.715853691E0	8.639286041E0	5.862415582E-2
3.525415767E0	3.466601849E0	8.406583786E0	-7.298108935E-2
3.533818788E0	4.298706055E0	8.514261246E0	-6.759724021E-2
3.542221808E0	4.881358147E0	8.856434822E0	1.866401732E-1
3.550624829E0	5.198407173E0	9.007781029E0	5.264209956E-2
3.559027850E0	5.163711071E0	9.071190834E0	-1.112662554E-1
3.567430871E0	4.670191765E0	8.991030693E0	-6.879365444E-2
3.575833892E0	3.939184189E0	8.871390343E0	1.573280841E-1
3.584236913E0	3.314059258E0	9.155537605E0	6.394818425E-1
3.592639933E0	3.518645763E0	1.051346493E1	1.148554921E0
3.601042954E0	3.132204771E0	1.337348557E1	2.867797852E0
3.609445975E0	4.731806815E-1	1.545823288E1	3.395415306E0
3.617848996E0	-4.280759811E0	1.557368660E1	1.983649969E0
3.626252017E0	-9.180064201E0	1.285364532E1	-1.770090580E0
3.634655038E0	-9.827920914E0	8.573483467E0	-4.459024906E0
3.643058058E0	-6.287141323E0	6.064010620E0	-2.928814888E0
3.651461079E0	-1.867598057E0	6.624529362E0	-5.341976285E-1
3.659864100E0	1.472184181E0	9.417551994E0	4.516452849E-1
3.668267121E0	3.629911900E0	1.200359440E1	4.636093974E-1
3.676670142E0	3.946960926E0	1.261137199E1	-2.709871531E-1
3.685073163E0	2.094916344E0	1.121216869E1	6.400800496E-2
3.693476183E0	-7.896314561E-2	9.693324089E0	1.167099237E0
3.701879204E0	-1.404586911E0	9.011968613E0	1.763510346E0
3.710282225E0	-1.872383714E0	9.180662155E0	1.635494232E0
3.718685246E0	-1.386042476E0	9.795618057E0	1.357926846E0
3.727088267E0	-4.331009090E-1	1.011206818E1	1.353739381E0
3.735491288E0	1.351944804E-1	9.993025780E0	1.535593987E0
3.743894308E0	-1.405783296E-1	9.767501831E0	1.580459356E0
3.752297329E0	-7.310073376E-1	9.617950439E0	1.400399446E0
3.760700350E0	-1.149751306E0	9.547960281E0	1.024726272E0
3.769103371E0	-1.131805062E0	9.596415520E0	3.774677813E-1
3.777506392E0	-5.497509837E-1	9.885348320E0	-1.944168359E-1
3.785909413E0	2.428714931E-1	1.021196842E1	-2.321037948E-1
3.794312433E0	6.897311211E-1	1.032024384E1	-9.332008660E-2
3.802715454E0	4.642075896E-1	1.016471100E1	9.511470050E-2
3.811118475E0	-2.985046208E-1	9.927821159E0	2.620140910E-1
3.819521496E0	-9.583254457E-1	9.684949875E0	5.204389095E-1
3.827924517E0	-1.409372568E0	9.538389206E0	7.890332937E-1
3.836327538E0	-1.585843205E0	9.627521515E0	6.969096065E-1
3.844730558E0	-1.393819213E0	9.775279045E0	7.896314859E-1
3.853133579E0	-8.464609981E-1	9.731011391E0	1.189232826E0
3.861536600E0	-2.967100143E-1	9.632308006E0	1.683948994E0
3.869939621E0	-9.631111473E-2	9.627521515E0	1.778465390E0
3.878342642E0	-1.495514214E-1	9.646066666E0	1.561915040E0
3.886745663E0	-3.637090325E-1	9.647860527E0	1.367498159E0
3.895148683E0	-6.903293133E-1	9.678369522E0	1.195214868E0
3.903551704E0	-8.422735929E-1	9.764511108E0	1.039681435E0
3.911954725E0	-7.369893789E-1	9.772287369E0	1.080957651E0
3.920357746E0	-5.784648657E-1	9.625727654E0	1.213759303E0
3.928760767E0	-5.898307562E-1	9.536594391E0	1.191027522E0
3.937163788E0	-4.265206456E-1	9.605388641E0	1.129412293E0
3.945566808E0	-2.141576260E-1	9.711270332E0	1.127019525E0
3.953969829E0	-2.003988922E-1	9.716654778E0	1.219741344E0
3.962372850E0	-3.332005441E-1	9.680762291E0	1.265205026E0
3.970775871E0	-4.426721931E-1	9.666405678E0	1.200000525E0
3.979178892E0	-6.137589812E-1	9.600004196E0	1.060618639E0
3.987581913E0	-7.926225066E-1	9.622138023E0	7.866404653E-1
3.995984933E0	-8.482556343E-1	9.750154495E0	6.675975323E-1
4.004387954E0	-7.698906660E-1	9.807581902E0	7.531409264E-1
4.012790975E0	-7.477570772E-1	9.695118904E0	9.385846853E-1
4.021193996E0	-7.998009920E-1	9.588638306E0	9.397810698E-1
4.029597017E0	-7.645068169E-1	9.619147301E0	8.524430394E-1
4.038000038E0	-7.375875711E-1	9.692128181E0	8.673982024E-1
4.046403058E0	-8.303094506E-1	9.661021233E0	9.744769931E-1
4.054806079E0	-9.744769931E-1	9.622138023E0	8.428717852E-1
4.063209100E0	-1.066002488E0	9.669396400E0	6.693921089E-1
4.071612121E0	-9.876375198E-1	9.744770050E0	7.752745152E-1
4.080015142E0	-7.537391186E-1	9.689735413E0	1.034297585E0
4.088418163E0	-5.581258535E-1	9.597611427E0	1.191027522E0
4.096821183E0	-5.653043389E-1	9.567701340E0	1.229910851E0
4.105224204E0	-7.615157962E-1	9.611968994E0	1.245464206E0
4.113627225E0	-8.494520187E-1	9.668798447E0	1.001396298E0
4.122030246E0	-7.932206988E-1	9.738189697E0	8.398807645E-1
4.130433267E0	-6.550351977E-1	9.751948357E0	8.739784956E-1
4.138836288E0	-5.491527915E-1	9.696315765E0	1.049252748E0
4.147239308E0	-3.798605800E-1	9.651450157E0	1.186840057E0
4.155642329E0	-2.243271172E-1	9.634101868E0	1.188634634E0
4.164045350E0	-1.938186288E-1	9.620942116E0	1.060618639E0
4.172448371E0	-4.534398913E-1	9.762716293E0	6.897311211E-1
4.180851392E0	-8.099704385E-1	9.869794846E0	4.522434771E-1
4.189254413E0	-8.201399446E-1	9.912267685E0	4.510470629E-1
4.197657433E0	-4.247260094E-1	9.946365356E0	4.145565331E-1
4.206060454E0	-6.879365444E-2	1.009232807E1	6.813562512E-1
4.214463475E0	1.483550072E-1	1.025803089E1	1.032503009E0
4.222866496E0	2.440679073E-1	1.022213840E1	1.213161111E0
4.231269517E0	2.572284266E-2	9.906884193E0	1.166501045E0
4.239672538E0	-4.229314029E-1	9.551549911E0	1.169492126E0
4.248075558E0	-7.339983582E-1	9.529416084E0	1.027717352E0
4.256478579E0	-7.776673436E-1	9.869794846E0	8.231309652E-1
4.264881600E0	-7.345965505E-1	1.015274620E1	7.692924738E-1
4.273284621E0	-6.418746710E-1	1.017787075E1	5.647061467E-1
4.281687642E0	-4.624129832E-1	1.004746246E1	2.739782035E-1
4.290090663E0	-1.633101404E-1	9.979865074E0	1.196411327E-1
4.298493683E0	3.708875179E-2	1.013180923E1	2.572284266E-2
4.306896704E0	7.776673883E-2	1.040518951E1	-1.190429255E-1
4.315299725E0	-4.007977992E-2	1.059123135E1	-3.332005441E-1
4.323702746E0	-3.415754437E-1	1.024068260E1	-5.790630579E-1
4.332105767E0	-5.252245665E-1	9.933803558E0	-2.446661144E-1
4.340508788E0	-4.175475538E-1	1.021854877E1	6.999006122E-2
4.348911808E0	-2.315055877E-1	1.095254707E1	-3.649054468E-2
4.357314829E0	-2.309073806E-1	1.153460121E1	-7.836493850E-2
4.365717850E0	-3.888336718E-1	1.163629627E1	-1.322034448E-1
4.374120871E0	-5.114658475E-1	1.149452209E1	-2.333002090E-1
4.382523892E0	-2.440679073E-1	1.167458153E1	-3.104687333E-1
4.390926913E0	1.782652885E-1	1.177986622E1	6.161518395E-2
4.399329933E0	4.713860750E-1	1.139761257E1	3.547359705E-1
4.407732954E0	6.442674994E-1	1.083051395E1	2.973082066E-1
4.416135975E0	7.543373108E-1	1.043210888E1	-7.836493850E-2
4.424538996E0	8.249256015E-1	1.015095139E1	-4.671986103E-1
4.432942017E0	8.895317912E-1	9.756135941E0	-6.311069727E-1
4.441345038E0	9.182456732E-1	9.391230583E0	-5.288137794E-1
4.449748058E0	1.764706671E-1	9.083752632E0	-4.785645306E-1
4.458151079E0	-1.538584948E0	8.481359482E0	-9.547362328E-1
4.466554100E0	-3.175275564E0	8.011768341E0	-1.015753269E0
4.474957121E0	-3.820739508E0	7.800003529E0	-8.548358679E-1
4.483360142E0	-3.659224033E0	7.884948730E0	-7.106683254E-1
4.491763163E0	-3.287738323E0	8.222934723E0	-5.174478889E-1
4.500166183E0	-2.834896564E0	8.670990944E0	-4.055834413E-1
4.508569204E0	-2.405983210E0	9.016754150E0	-2.452643216E-2
4.516972225E0	-1.954936147E0	9.205786705E0	1.950150430E-1
4.525375246E0	-1.674975872E0	9.495318413E0	2.895315289E-1
4.533778267E0	-1.674975872E0	9.673583984E0	1.004985496E-1
4.542181288E0	-1.632503271E0	9.914062500E0	-2.721835673E-1
4.550584308E0	-1.398604870E0	1.009472084E1	-1.758724600E-1
4.558987329E0	-1.137188911E0	1.005224800E1	3.092723191E-1
4.567390350E0	-9.637092948E-1	9.866804123E0	4.289134443E-1
4.575793371E0	-6.604190469E-1	9.911669731E0	2.033899277E-1
4.584196392E0	-2.673979402E-1	1.022812080E1	-7.118647546E-2
4.592599413E0	6.161518395E-2	1.040100193E1	-1.058823988E-1
4.601002433E0	4.779663086E-1	1.020837975E1	-6.520441920E-2
4.609405454E0	1.066600680E0	9.882955551E0	3.050848842E-2
4.617808475E0	1.710269928E0	9.690931320E0	-3.050848842E-2
4.626211496E0	2.140978098E0	9.824331284E0	-1.830509305E-1
4.634614517E0	2.171486616E0	9.947562218E0	-2.566302419E-1
4.643017538E0	2.003988981E0	9.926026344E0	-2.434697002E-1
4.651420558E0	1.907079697E0	9.777671814E0	-1.100698411E-1
4.659823579E0	2.055434704E0	9.670592308E0	-1.310070455E-1
4.668226600E0	2.234896421E0	9.644869804E0	-5.324030295E-2
4.676629621E0	2.225923300E0	9.483952522E0	6.281159073E-2
4.685032642E0	2.178066730E0	9.212965012E0	6.580262445E-3
4.693435663E0	2.426920414E0	8.979066849E0	2.991028363E-3
4.701838683E0	2.970689297E0	8.763712883E0	1.262213886E-1
4.710241704E0	3.448655605E0	8.793622971E0	3.876372576E-1
4.718644725E0	3.587439299E0	8.985647202E0	3.774677813E-1
4.727047746E0	3.533002615E0	9.308678627E0	3.846462369E-1
4.735450767E0	3.315255880E0	9.623334885E0	6.789634228E-1
4.743853788E0	2.927020311E0	9.685547829E0	8.003991842E-1
4.752256808E0	2.471785784E0	9.549755096E0	6.430711150E-1
4.760659829E0	2.188834429E0	9.391828537E0	3.702892959E-1
4.769062850E0	2.261217356E0	9.328418732E0	2.512463741E-2
4.777465871E0	2.516052961E0	9.549755096E0	8.374879509E-2
4.785868892E0	2.878565550E0	9.635298729E0	2.667997181E-1
4.794271913E0	3.329612732E0	9.673583984E0	4.929214716E-1
4.802674933E0	3.758526087E0	9.726823807E0	5.563312769E-1
4.811077954E0	4.144368649E0	9.658628464E0	5.533402562E-1
4.819480975E0	4.046263218E0	9.895518303E0	-1.728814393E-1
4.827883996E0	2.761317253E0	1.118883896E1	-1.129412293E0
4.836287017E0	-1.292124242E-1	1.284527016E1	-7.022934556E-1
4.844690038E0	-4.234099865E0	1.353918839E1	-1.016949583E-2
4.853093058E0	-7.917252064E0	1.274357510E1	-6.496513486E-1
4.861496079E0	-8.689535141E0	1.104347515E1	-1.304088354E0
4.869899100E0	-5.916254044E0	9.376275063E0	-1.402194023E0
4.878302121E0	-2.194218397E0	8.751151085E0	-7.872386575E-1
4.886705142E0	8.656035662E-1	9.172885895E0	1.914258115E-2
4.895108163E0	2.924029350E0	1.001216793E1	9.780662656E-1
4.903511183E0	3.585644722E0	1.036630630E1	1.475175142E0
4.911914204E0	2.219342947E0	1.006780148E1	1.243071318E0
4.920317225E0	-5.712863803E-1	9.507282257E0	6.765705943E-1
4.928720246E0	-2.880360365E0	9.031708717E0	7.776673883E-2
4.937123267E0	-3.866203070E0	8.825926781E0	-5.168496966E-1
4.945526288E0	-3.497110367E0	9.141180992E0	-9.200403094E-1
4.953929308E0	-2.097907305E0	9.851250648E0	-1.045065284E0
4.962332329E0	-5.730810165E-1	1.039322472E1	-6.574280262E-1
4.970735350E0	4.241278172E-1	1.040040398E1	-1.477568001E-1
4.979138371E0	3.553341627E-1	1.004447079E1	9.631111473E-2
4.987541392E0	-5.162515044E-1	9.915258408E0	6.370890141E-1
4.995944413E0	-1.048056364E0	9.923633575E0	1.079162955E0
5.004347433E0	-9.320043921E-1	9.955936432E0	1.271187067E0
5.012750454E0	-9.355936646E-1	9.831509590E0	1.207179070E0
5.021153475E0	-1.459023595E0	9.678967476E0	1.111466169E0
5.029556496E0	-2.017149448E0	9.585647583E0	9.936196208E-1
5.037959517E0	-2.096112728E0	9.513862610E0	8.123632669E-1
5.046362538E0	-1.607378602E0	9.524630547E0	9.278169870E-1
5.054765558E0	-8.685946465E-1	9.651450157E0	1.021137118E0
5.063168579E0	-3.092723191E-1	9.810572624E0	1.149153113E0
5.071571600E0	-1.710868180E-1	9.848857880E0	1.133001566E0
5.079974621E0	-3.092723191E-1	9.878170013E0	9.750752449E-1
5.088377642E0	-5.617151260E-1	9.876375198E0	7.962117195E-1
5.096780663E0	-8.650053740E-1	9.778269768E0	6.484549642E-1
5.105183683E0	-1.100100160E0	9.658030510E0	5.659025311E-1
5.113586704E0	-1.124626637E0	9.722038269E0	5.246263742E-1
5.121989725E0	-9.146564603E-1	9.841679573E0	5.700899959E-1
5.130392746E0	-5.730810165E-1	9.893125534E0	7.304090858E-1
5.138795767E0	-3.822534084E-1	9.845269203E0	1.091127157E0
5.147198788E0	-3.732803464E-1	9.717252731E0	1.476371527E0
5.155601808E0	-4.480560422E-1	9.594022751E0	1.714457393E0
5.164004829E0	-6.448656917E-1	9.559925079E0	1.756929994E0
5.172407850E0	-7.926225066E-1	9.622735977E0	1.546959877E0
5.180810871E0	-7.914260626E-1	9.640084267E0	1.407577872E0
5.189213892E0	-7.555337548E-1	9.643074989E0	1.308275819E0
5.197616913E0	-7.890332937E-1	9.674181938E0	1.186840057E0
5.206019933E0	-7.453642488E-1	9.711869240E0	1.143171072E0
5.214422954E0	-5.066801906E-1	9.710074425E0	1.064207911E0
5.222825975E0	-3.086741269E-1	9.736993790E0	1.001396298E0
5.231228996E0	-3.266202807E-1	9.765707016E0	8.907282352E-1
5.239632017E0	-5.712863803E-1	9.752547264E0	7.393822074E-1
5.248035038E0	-9.218349457E-1	9.719047546E0	5.000999570E-1
5.256438058E0	-1.106082320E0	9.697511673E0	4.683950245E-1
5.264841079E0	-1.003190875E0	9.702896118E0	6.520441771E-1
5.273244100E0	-7.818548083E-1	9.707681656E0	7.842476368E-1
5.281647121E0	-6.472585201E-1	9.684351921E0	7.902296782E-1
5.290050142E0	-6.023930907E-1	9.643673897E0	9.601200819E-1
5.298453163E0	-7.004988194E-1	9.613762856E0	1.004985452E0
5.306856183E0	-8.596215248E-1	9.640084267E0	9.272187948E-1
5.315259204E0	-9.583254457E-1	9.701101303E0	8.889335990E-1
5.323662225E0	-1.086341500E0	9.677172661E0	1.101894855E0
5.332065246E0	-1.203589797E0	9.583852768E0	1.104287624E0
5.340468267E0	-1.140778184E0	9.539586067E0	8.967102766E-1
5.348871288E0	-8.315058947E-1	9.605388641E0	7.513462901E-1
5.357274308E0	-5.575276613E-1	9.680762291E0	7.393822074E-1
5.365677329E0	-4.259224236E-1	9.757332802E0	6.424728632E-1
5.374080350E0	-3.972085714E-1	9.807581902E0	6.927221417E-1
5.382483371E0	-3.714857101E-1	9.775279045E0	8.632107973E-1
5.390886392E0	-3.403790295E-1	9.720842361E0	9.942178130E-1
5.399289413E0	-3.517449200E-1	9.653244972E0	1.061815023E0
5.407692433E0	-3.296113312E-1	9.602995872E0	1.055832982E0
5.416095454E0	-2.811566591E-1	9.705288887E0	9.858429432E-1
5.424498475E0	-2.404786795E-1	9.902696609E0	8.943174481E-1
5.432901496E0	-2.530409992E-1	9.912865639E0	8.057830334E-1
5.441304517E0	-3.559323549E-1	9.734002113E0	8.967102766E-1
5.449707538E0	-3.104687333E-1	9.649057388E0	9.403793216E-1
5.458110558E0	-4.067798331E-2	9.752547264E0	9.343972206E-1
5.466513579E0	3.433700502E-1	9.975677490E0	1.068395257E0
5.474916600E0	5.162515044E-1	1.016351414E1	1.219143152E0
5.483319621E0	4.271188378E-1	1.016829967E1	1.342373490E0
5.491722642E0	1.764706671E-1	1.003789139E1	1.384846091E0
5.500125663E0	-9.571290575E-3	9.790832520E0	1.280160069E0
5.508528683E0	-9.690931439E-2	9.645467758E0	1.195813060E0
5.516931704E0	-1.106680483E-1	9.655039787E0	9.900303483E-1
5.525334725E0	1.914258115E-2	9.935597420E0	7.800601721E-1
5.533737746E0	1.609173268E-1	1.016411209E1	5.557330847E-1
5.542140767E0	3.361915946E-1	1.019940662E1	3.044866920E-1
5.550543788E0	4.360919297E-1	1.012522888E1	1.555334684E-2
5.558946808E0	3.349951804E-1	1.001874828E1	-3.373879790E-1
5.567349829E0	8.135596663E-2	9.902098656E0	-5.300102234E-1
5.575752850E0	-2.506481707E-1	9.728020668E0	-5.335994363E-1
5.584155871E0	-4.827519655E-1	9.724431038E0	-3.224328458E-1
5.592558892E0	-4.833501875E-1	1.003011417E1	-1.471585929E-1
5.600961913E0	-4.947160780E-1	1.046500969E1	2.333002165E-2
5.609364933E0	-5.688936114E-1	1.086281681E1	2.141576260E-1
5.617767954E0	-6.059823632E-1	1.093519974E1	3.649054468E-1
5.626170975E0	-6.502495408E-1	1.099202919E1	6.287141442E-1
5.634573996E0	-7.609176040E-1	1.123310566E1	9.206385016E-1
5.642977017E0	-3.672982752E-1	1.152921772E1	5.670989752E-1
5.651380038E0	-9.990034252E-2	1.212503052E1	5.353940725E-1
5.659783058E0	-4.600201547E-1	1.228594780E1	5.126622319E-1
5.668186079E0	-1.034297585E0	1.189531994E1	3.427718580E-1
5.676589100E0	-1.312463164E0	1.125882912E1	3.948157281E-2
5.684992121E0	-9.960124493E-1	1.068215847E1	-2.380858511E-1
5.693395142E0	-2.566302419E-1	1.025025368E1	-2.650051117E-1
5.701798163E0	7.070791125E-1	9.952347755E0	-2.075773627E-1
5.710201183E0	1.329811215E0	9.769894600E0	-3.756731451E-1
5.718604204E0	3.074777126E-1	9.483952522E0	-3.493520916E-1
5.727007225E0	-2.354537487E0	8.572287560E0	-9.098708034E-1
5.735410246E0	-4.690530777E0	7.919046402E0	-1.217946768E0
5.743813267E0	-5.054239750E0	7.993822098E0	-1.054038405E0
5.752216288E0	-3.954737663E0	8.404789925E0	-8.955138922E-1
5.760619308E0	-2.714657307E0	8.888737679E0	-3.355933726E-1
5.769022329E0	-2.240280151E0	8.968298912E0	1.316052489E-2
5.777425350E0	-2.123630047E0	9.114859581E0	1.585244983E-1
5.785828371E0	-2.217548370E0	9.240483284E0	1.639083475E-1
5.794231392E0	-2.327618122E0	9.287740707E0	9.332008660E-2
5.802634413E0	-2.011765718E0	9.634101868E0	-3.912265003E-1
5.811037433E0	-1.371685624E0	1.001874828E1	-2.656033039E-1
5.819440454E0	-1.003789067E0	9.888937950E0	6.388836503E-1
5.827843475E0	-1.188036442E0	9.387641907E0	1.037288666E0
5.836246496E0	-1.160519004E0	9.309276581E0	6.203392744E-1
5.844649517E0	-6.723831892E-1	9.676574707E0	1.184447184E-1
5.853052538E0	1.148554832E-1	9.988240242E0	-8.614161611E-2
5.861455558E0	8.476574421E-1	9.983454704E0	2.506481707E-1
5.869858579E0	1.336391449E0	9.813564301E0	5.988038778E-1
5.878261600E0	1.573280931E0	9.650253296E0	5.611169338E-1
5.886664621E0	1.543968797E0	9.656235695E0	3.780659735E-1
5.895067642E0	1.421336651E0	9.654440880E0	1.471585929E-1
5.903470663E0	1.344766378E0	9.577870369E0	1.196411322E-3
5.911873683E0	1.421934843E0	9.510871887E0	2.093719877E-2
5.920276704E0	1.731207132E0	9.390034676E0	-7.896314561E-2
5.928679725E0	2.398804665E0	9.453444481E0	-1.136590764E-1
5.937082746E0	3.144168854E0	9.458827972E0	1.980060786E-1
5.945485767E0	3.334996462E0	9.361918449E0	3.517449200E-1
5.953888788E0	2.748754978E0	9.117252350E0	3.439682424E-1
5.962291808E0	2.015354872E0	8.926424980E0	2.033899277E-1
5.970694829E0	1.861017823E0	8.964710236E0	8.673982322E-2
5.979097850E0	2.319841623E0	9.155537605E0	3.762713671E-1
5.987500871E0	2.839084148E0	9.322437286E0	5.258227587E-1
5.995903892E0	3.017349243E0	9.457033157E0	4.564309120E-1
6.004306913E0	2.764906645E0	9.580264091E0	1.543370634E-1
6.012709933E0	2.240878344E0	9.737591743E0	-5.563312769E-2
6.021112954E0	2.018944025E0	9.775876999E0	3.290131316E-2
6.029515975E0	2.421536446E0	9.851848602E0	1.555334777E-1
6.037918996E0	3.058027267E0	9.856635094E0	3.188436031E-1
6.046322017E0	3.572484255E0	9.884750366E0	2.033899166E-2
6.054725038E0	3.956532240E0	1.036690426E1	-4.731806815E-1
6.063128058E0	4.716253281E0	1.118225861E1	-4.719842672E-1
6.071531079E0	5.927021503E0	1.178106213E1	-7.956135273E-2
6.079934100E0	7.027122021E0	1.287159157E1	-6.604190469E-1
6.088337121E0	5.906682491E0	1.357807255E1	1.764706671E-1
6.096740142E0	1.599601984E0	1.237627697E1	3.050848842E-2
6.105143163E0	-4.070191383E0	1.105065346E1	-4.127619043E-2
6.113546183E0	-8.998807907E0	9.570692062E0	-5.072783828E-1
6.121949204E0	-1.006002426E1	7.901698589E0	-2.068595171E0
6.130352225E0	-6.305087566E0	7.531409264E0	-1.786840320E0
6.138755246E0	-1.914258122E0	8.487939835E0	1.304088384E-1
6.147158267E0	1.617548108E0	9.806385040E0	1.268195987E0
6.155561288E0	3.857828379E0	1.067916775E1	1.934597135E0
6.163964308E0	3.866801500E0	1.061157036E1	1.937588096E0
6.172367329E0	1.419542074E0	1.009591675E1	1.467398524E0
6.180770350E0	-1.652842283E0	9.799804688E0	9.954141974E-1
6.189173371E0	-3.058625460E0	9.663414001E0	3.457628787E-1
6.197576392E0	-2.512463808E0	9.681360245E0	-1.698904037E-1
6.205979413E0	-1.111466169E0	9.831509590E0	4.366901144E-2
6.214382433E0	3.643072546E-1	1.007976532E1	6.442674994E-1
6.222785454E0	1.475175142E0	1.041057301E1	1.347159147E0
6.231188475E0	1.468594909E0	1.033519936E1	1.444068432E0
6.239591496E0	2.267199457E-1	9.844670296E0	1.099501967E0
6.247994517E0	-1.239482164E0	9.439086914E0	4.582255483E-1
6.256397538E0	-1.929811478E0	9.473184586E0	-1.465603858E-1
6.264800558E0	-1.701296926E0	9.772287369E0	-3.176472187E-1
6.273203579E0	-8.560323119E-1	9.940383911E0	1.836491376E-1
6.281606600E0	-9.391828626E-2	9.814760208E0	6.933203340E-1
6.290009621E0	1.591227055E-1	9.759725571E0	7.196413875E-1
6.298412642E0	-5.982056609E-4	9.874580383E0	3.505485058E-1
6.306815663E0	-3.906283081E-1	1.003549862E1	8.015955985E-2
6.315218683E0	-7.226324677E-1	1.005763149E1	6.161518395E-2
6.323621704E0	-1.032503009E0	9.958928108E0	2.291127741E-1
6.332024725E0	-1.211366415E0	9.812965393E0	6.610172391E-1
6.340427746E0	-1.011565804E0	9.728020668E0	1.043270707E0
6.348830767E0	-5.018945336E-1	9.764511108E0	1.266401410E0
6.357233788E0	-1.256231871E-2	9.766903877E0	1.510469317E0
6.365636808E0	1.148554832E-1	9.693324089E0	1.606182218E0
6.374039829E0	-2.183450609E-1	9.650852203E0	1.567298889E0
6.382442850E0	-6.221339107E-1	9.712467194E0	1.435693622E0
6.390845871E0	-8.410771489E-1	9.772886276E0	1.268794179E0
6.399248892E0	-7.663014531E-1	9.704689980E0	1.308275819E0
6.407651913E0	-5.431707501E-1	9.598808289E0	1.563709617E0
6.416054933E0	-2.991028428E-1	9.539586067E0	1.619940877E0
6.424457954E0	-1.357926875E-1	9.599406242E0	1.750349760E0
6.432860975E0	-9.451649338E-2	9.657432556E0	1.849053741E0
6.441263996E0	-1.716850251E-1	9.725627899E0	1.616949916E0
6.449667017E0	-3.559323549E-1	9.771689415E0	1.589432478E0
6.458070038E0	-6.221339107E-1	9.711270332E0	1.528415442E0
6.466473058E0	-7.124629617E-1	9.622138023E0	1.234696507E0
6.474876079E0	-5.802595019E-1	9.613762856E0	1.097109199E0
6.483279100E0	-2.590230405E-1	9.775279045E0	9.643075466E-1
6.491682121E0	-1.704886109E-1	9.826126099E0	1.004387259E0
6.500085142E0	-3.397808075E-1	9.672985077E0	9.014959335E-1
6.508488163E0	-3.463610709E-1	9.606584549E0	8.386843204E-1
6.516891183E0	-2.081755698E-1	9.693922997E0	7.986045480E-1
6.525294204E0	-3.649054468E-1	9.630513191E0	8.309076428E-1
6.533697225E0	-6.071787477E-1	9.458827972E0	7.064808607E-1
6.542100246E0	-4.558327198E-1	9.496515274E0	5.036891699E-1
6.550503267E0	-1.848455518E-1	9.628120422E0	4.510470629E-1
6.558906288E0	-1.758724600E-1	9.757930756E0	4.695914388E-1
6.567309308E0	-2.763710022E-1	9.796813965E0	5.515456200E-1
6.575712329E0	-2.913261652E-1	9.696315765E0	6.305087805E-1
6.584115350E0	-2.027917206E-1	9.566504478E0	5.898307562E-1
6.592518371E0	-3.134597540E-1	9.540781975E0	6.669993401E-1
6.600921392E0	-5.892325640E-1	9.570094109E0	8.213363886E-1
6.609324413E0	-6.735795736E-1	9.618548393E0	1.179661512E0
6.617727433E0	-5.964110494E-1	9.532406807E0	1.538584948E0
6.626130454E0	-2.715853751E-1	9.559925079E0	1.253240824E0
6.634533475E0	1.770688742E-1	9.716055870E0	1.121635556E0
6.642936496E0	3.451646566E-1	9.783055305E0	1.243669510E0
6.651339517E0	2.285145670E-1	9.761520386E0	1.210768223E0
6.659742538E0	-2.991028316E-2	9.662816048E0	1.123430252E0
6.668145558E0	-9.511470050E-2	9.610174179E0	9.960124493E-1
6.676548579E0	8.554340899E-2	9.649655342E0	9.948160052E-1
6.684951600E0	2.141576260E-1	9.732806206E0	9.080761671E-1
6.693354621E0	1.393819153E-1	9.879366875E0	8.291130662E-1
6.701757642E0	-6.460621208E-2	1.000977516E1	5.832505226E-1
6.710160663E0	-4.115654826E-1	9.962516785E0	4.145565331E-1
6.718563683E0	-7.226324677E-1	9.912267685E0	3.391826153E-1
6.726966704E0	-9.858429432E-1	1.004088211E1	9.894321561E-1
6.735369725E0	-8.374879360E-1	1.025503922E1	1.467996716E0
6.743772746E0	1.184447184E-1	1.060379314E1	1.232303619E0
6.752175767E0	1.290927768E0	1.075872898E1	1.276570916E0
6.760578788E0	1.724028707E0	1.052782154E1	1.152144074E0
6.768981808E0	1.343569875E0	1.033819008E1	8.979067206E-1
6.777384829E0	7.788637877E-1	1.045723343E1	5.012963414E-1
6.785787850E0	5.419743061E-1	1.087956619E1	1.082752272E-1
6.794190871E0	6.197410822E-1	1.138863945E1	9.212367237E-2
6.802593892E0	8.315058947E-1	1.193480110E1	-1.435693540E-2
6.810996913E0	8.464609981E-1	1.225125217E1	-2.703889608E-1
6.819399933E0	3.870390654E-1	1.180259800E1	-7.244270444E-1
6.827802954E0	-9.930214286E-2	1.128096199E1	-9.990034252E-2
6.836205975E0	-1.118644550E-1	1.099501991E1	1.992024779E-1
6.844608996E0	2.895315289E-1	1.128156090E1	3.206382394E-1
6.853012017E0	7.824530005E-1	1.144247818E1	1.716850251E-1
6.861415038E0	1.168295622E0	1.110628605E1	3.672982752E-1
6.869818058E0	1.474576950E0	1.033938694E1	6.604190469E-1
6.878221079E0	1.893919110E0	9.720842361E0	6.065805554E-1
6.886624100E0	2.230110645E0	9.502496719E0	5.581258535E-1
6.895027121E0	2.480758905E0	9.433703423E0	7.298108935E-1
6.903430142E0	2.550150633E0	9.428318977E0	8.608179688E-1
6.911833163E0	2.434697151E0	9.504291534E0	1.063011408E0
6.920236183E0	2.404786825E0	9.600004196E0	1.362114310E0
6.928639204E0	2.249851465E0	9.665806770E0	1.399203062E0
6.937042225E0	1.419542074E0	9.775279045E0	1.078564763E0
6.945445246E0	-1.025922656E0	9.097511292E0	4.175475538E-1
6.953848267E0	-3.191427231E0	8.196614265E0	-7.040880919E-1
6.962251288E0	-4.164109707E0	7.879564762E0	-9.834501147E-1
6.970654308E0	-4.242474556E0	7.792226791E0	-1.454836130E0
6.979057329E0	-4.345963955E0	8.154739380E0	-1.581655741E0
6.987460350E0	-4.526023865E0	8.361120224E0	-9.798609018E-1
6.995863371E0	-3.963710785E0	8.492725372E0	-8.572286963E-1
7.004266392E0	-2.289931297E0	9.098110199E0	-9.619147182E-1
7.012669413E0	-9.337990284E-1	9.401400566E0	-1.262213886E-1
7.021072433E0	-5.581258535E-1	9.064610481E0	5.641079545E-1
7.029475454E0	-7.010970116E-1	8.789435387E0	3.152543902E-1
7.037878475E0	-6.693921089E-1	9.024530411E0	-3.128615618E-1
7.046281496E0	-4.438686073E-1	9.349954605E0	-5.886343718E-1
7.054684517E0	-2.691925466E-1	9.363713264E0	-4.295116663E-1
7.063087538E0	-1.686939895E-1	9.125029564E0	-3.469592929E-1
7.071490558E0	7.417750359E-2	9.081958771E0	-4.271188378E-1
7.079893579E0	4.019941986E-1	9.425328255E0	-5.054838061E-1
7.088296600E0	7.716853023E-1	9.867402077E0	-4.713860750E-1
7.096699621E0	1.151545882E0	1.012522888E1	-1.926222295E-1
7.105102642E0	1.402792215E0	1.021137047E1	1.531406492E-1
7.113505663E0	1.543968797E0	1.027178955E1	1.854437590E-1
7.121908683E0	1.530210137E0	1.039083195E1	-8.374879137E-3
7.130311704E0	1.430907965E0	1.049791145E1	-9.870393574E-2
7.138714725E0	1.380060434E0	1.048594666E1	5.563312769E-2
7.147117746E0	1.485942841E0	1.025145054E1	3.523431420E-1
7.155520767E0	1.889133453E0	9.813564301E0	2.757728100E-1
7.163923788E0	2.350350142E0	9.550353050E0	1.794616925E-3
7.172326808E0	2.647658348E0	9.554540634E0	-1.746760458E-1
7.180729829E0	2.870190859E0	9.602995872E0	-3.242274821E-1
7.189132850E0	3.047259569E0	9.658030510E0	-2.458625287E-1
7.197535871E0	2.990430117E0	9.766903877E0	7.417750359E-2
7.205938892E0	2.695514679E0	9.819545746E0	1.770688742E-1
7.214341913E0	2.243869543E0	9.725627899E0	-5.623133108E-2
7.222744933E0	1.929213285E0	9.617950439E0	-2.632105052E-1
7.231147954E0	1.914856315E0	9.582656860E0	-1.124626622E-1
7.239550975E0	2.150549412E0	9.638887405E0	3.284149170E-1
7.247953996E0	2.398804665E0	9.821938515E0	6.388836503E-1
7.256357017E0	2.435295343E0	9.850652695E0	9.355936646E-1
7.264760038E0	2.399402857E0	9.635896683E0	9.702895880E-1
7.273163058E0	2.403590441E0	9.456435204E0	7.417750359E-1
7.281566079E0	2.372483730E0	9.446864128E0	4.947160780E-1
7.289969100E0	2.318047047E0	9.590433121E0	2.596212626E-1
7.298372121E0	2.292324066E0	9.836296082E0	5.024927482E-2
7.306775142E0	2.356332064E0	1.007677460E1	5.324030295E-2
7.315178163E0	2.277369022E0	1.021376324E1	2.907279432E-1
7.323581183E0	2.111067772E0	1.016291618E1	3.074777126E-1
7.331984204E0	1.800000787E0	1.005224800E1	3.607180119E-1
7.340387225E0	2.263011932E0	1.025683403E1	-4.498506486E-1
7.348790246E0	3.513261795E0	1.188754272E1	-8.662018180E-1
7.357193267E0	3.195016384E0	1.364028549E1	3.248256743E-1
7.365596288E0	3.170489967E-1	1.369352531E1	9.816554785E-1
7.373999308E0	-3.678964853E0	1.220818138E1	1.052842021E0
7.382402329E0	-6.972685337E0	1.005643559E1	3.637090325E-1
7.390805350E0	-7.638488293E0	8.347960472E0	-7.998009920E-1
7.399208371E0	-5.210371494E0	8.244470596E0	-1.233500123E0
7.407611392E0	-1.948355794E0	9.151947975E0	-5.982056856E-1
7.416014413E0	8.733802438E-1	1.001097202E1	-1.387837082E-1
7.424417433E0	2.663809776E0	1.037827015E1	1.531406492E-1
7.432820454E0	2.985644341E0	1.025384331E1	2.506481707E-1
7.441223475E0	1.710269928E0	9.739386559E0	3.320041299E-1
7.449626496E0	-3.481557071E-1	9.177073479E0	3.433700502E-1
7.458029517E0	-2.043470621E0	8.925228119E0	-2.931207791E-2
7.466432538E0	-2.773879766E0	9.138788223E0	-5.180460811E-1
7.474835558E0	-2.116451740E0	9.908080101E0	-5.449653864E-1
7.483238579E0	-4.402793646E-1	1.067498016E1	-6.161518395E-2
7.491641600E0	8.291130662E-1	1.072941685E1	1.878365725E-1
7.500044621E0	8.572286963E-1	1.030409241E1	1.651047617E-1
7.508447642E0	-1.286142170E-1	9.811769485E0	-6.580262445E-3
7.516850663E0	-1.201196909E0	9.515059471E0	9.690931439E-2
7.525253683E0	-1.782054663E0	9.460023880E0	2.512463741E-2
7.533656704E0	-1.725823283E0	9.595218658E0	8.195417374E-2
7.542059725E0	-9.936196208E-1	9.805189133E0	1.561316848E-1
7.550462746E0	-1.663011760E-1	9.853045464E0	3.254238665E-1
7.558865767E0	2.105683982E-1	9.804591179E0	5.150550604E-1
7.567268788E0	1.501496136E-1	9.833304405E0	8.165507317E-1
7.575671808E0	-4.785645381E-2	9.836296082E0	9.511470199E-1
7.584074829E0	-4.869394004E-1	9.769296646E0	8.895317912E-1
7.592477850E0	-1.063011408E0	9.762118340E0	7.334001660E-1
7.600880871E0	-1.417747378E0	9.838688850E0	3.870390654E-1
7.609283892E0	-1.287936807E0	9.892526627E0	1.513460279E-1
7.617686913E0	-9.068797827E-1	9.829715729E0	2.763710022E-1
7.626089933E0	-4.121637046E-1	9.748359680E0	5.898307562E-1
7.634492954E0	-9.152546525E-2	9.812965393E0	8.859425783E-1
7.642895975E0	-6.221338734E-2	9.997213364E0	1.072582722E0
7.651298996E0	-2.554338276E-1	9.932606697E0	1.342971683E0
7.659702017E0	-4.085744619E-1	9.719645500E0	1.491924882E0
7.668105038E0	-2.919243574E-1	9.618548393E0	1.604985833E0
7.676508058E0	-1.651047617E-1	9.620343208E0	1.905883193E0
7.684911079E0	-1.950150430E-1	9.565308571E0	2.018345833E0
7.693314100E0	-2.572284341E-1	9.578469276E0	1.667199135E0
7.701717121E0	-1.351944804E-1	9.717850685E0	1.311864972E0
7.710120142E0	-1.734796353E-2	9.768099785E0	1.103091240E0
7.718523163E0	-1.100698411E-1	9.762118340E0	9.032905698E-1
7.726926183E0	-1.579262912E-1	9.821938515E0	6.789634228E-1
7.735329204E0	-4.666004330E-2	9.846465111E0	6.346961856E-1
7.743732225E0	-4.307080805E-2	9.787242889E0	7.872386575E-1
7.752135246E0	-2.207378894E-1	9.678967476E0	8.973084688E-1
7.760538267E0	-4.863412082E-1	9.641280174E0	7.621139884E-1
7.768941288E0	-7.375875711E-1	9.650253296E0	6.000002623E-1
7.777344308E0	-8.123632669E-1	9.720842361E0	5.419743061E-1
7.785747329E0	-7.878368497E-1	9.714859962E0	7.286145091E-1
7.794150350E0	-7.830511928E-1	9.667003632E0	7.453642488E-1
7.802553371E0	-6.227321029E-1	9.702896118E0	5.473581553E-1
7.810956392E0	-3.924229145E-1	9.762118340E0	6.221339107E-1
7.819359413E0	-3.086741269E-1	9.705886841E0	7.555337548E-1
7.827762433E0	-4.378865361E-1	9.588040352E0	6.107679605E-1
7.836165454E0	-6.173482537E-1	9.541978836E0	3.822534084E-1
7.844568475E0	-7.417750359E-1	9.659226418E0	2.644068897E-1
7.852971496E0	-7.304090858E-1	9.802796364E0	6.520441771E-1
7.861374517E0	-6.568298340E-1	9.680762291E0	1.134197950E0
7.869777538E0	-6.490531564E-1	9.534201622E0	1.244866014E0
7.878180558E0	-6.771687865E-1	9.539586067E0	1.158724308E0
7.886583579E0	-7.208378315E-1	9.592227936E0	1.108475089E0
7.894986600E0	-7.441678643E-1	9.625727654E0	1.043270707E0
7.903389621E0	-6.999006271E-1	9.692726135E0	8.739784956E-1
7.911792642E0	-5.910272002E-1	9.672387123E0	8.003991842E-1
7.920195663E0	-4.767699242E-1	9.672387123E0	9.445667267E-1
7.928598683E0	-3.912265003E-1	9.726225853E0	1.056431174E0
7.937001704E0	-2.763710022E-1	9.760921478E0	1.158724308E0
7.945404725E0	-1.872383654E-1	9.655039787E0	1.047458172E0
7.953807746E0	-6.041877344E-2	9.576076508E0	8.195417523E-1
7.962210767E0	8.973085135E-2	9.672985077E0	8.255237937E-1
7.970613788E0	1.172483116E-1	9.914660454E0	9.373882413E-1
7.979016808E0	-3.290131316E-2	1.008694363E1	1.178465128E0
7.987419829E0	-1.770688742E-1	1.022333431E1	1.472184181E0
7.995822850E0	-1.591227055E-1	1.054098225E1	1.682752490E0
8.004225871E0	3.409772366E-2	1.087059307E1	1.472782373E0
8.012628892E0	3.230310678E-1	1.080838013E1	1.182054400E0
8.021031913E0	5.270192027E-1	1.021137047E1	1.231107235E0
8.029434933E0	9.158528447E-1	9.947562218E0	1.503290772E0
8.037837954E0	1.417747378E0	1.047517967E1	1.297508121E0
8.046240975E0	1.493719578E0	1.117807102E1	7.244270444E-1
8.054643996E0	8.135597110E-1	1.111705399E1	3.176472187E-1
8.063047017E0	2.333002165E-2	1.064028454E1	1.962114573E-1
8.071450038E0	-1.872383654E-1	1.059302616E1	6.101697683E-2
8.079853058E0	5.503492057E-2	1.134377384E1	-1.016949583E-2
8.088256079E0	-7.507480979E-1	1.196112251E1	4.145565331E-1
8.096659100E0	-1.370489120E0	1.187318611E1	1.579262912E-1
8.105062121E0	-1.115653515E0	1.183669567E1	6.640082598E-2
8.113465142E0	-3.403790295E-1	1.172722340E1	-7.657032460E-2
8.121868163E0	3.367897868E-1	1.150947666E1	-1.896311939E-1
8.130271183E0	8.967102766E-1	1.101715374E1	-8.733802289E-2
8.138674204E0	1.500299811E0	1.049013424E1	-1.692921966E-1
8.147077225E0	1.954337835E0	1.001097202E1	-2.865405083E-1
8.155480246E0	2.274976015E0	9.556933403E0	-2.362912297E-1
8.163883267E0	2.495115757E0	9.253643036E0	-1.016949639E-1
8.172286288E0	2.194816589E0	9.185447693E0	-9.571290575E-3
8.180689308E0	6.400800496E-2	8.677571297E0	-3.954139352E-1
8.189092329E0	-2.986840963E0	7.572087288E0	-1.353141189E0
8.197495350E0	-4.925625324E0	7.020541668E0	-1.759322882E0
8.205898371E0	-4.702494621E0	7.194619656E0	-1.570888042E0
8.214301392E0	-3.461816072E0	7.703094482E0	-1.423729420E0
8.222704413E0	-2.501696110E0	8.268997192E0	-1.138983607E0
8.231107433E0	-2.158924341E0	8.697910309E0	-6.346961856E-1
8.239510454E0	-1.905883193E0	8.782257080E0	-5.347958803E-1
8.247913475E0	-2.005185366E0	8.773283958E0	-8.063812256E-1
8.256316496E0	-2.481357098E0	8.809176445E0	-9.541380405E-1
8.264719517E0	-2.548356056E0	9.031708717E0	-8.733802438E-1
8.273122538E0	-1.989033818E0	9.674779892E0	-6.448656917E-1
8.281525558E0	-1.308275819E0	1.028734303E1	-5.252245665E-1
8.289928579E0	-8.123632669E-1	1.070010471E1	-4.522434771E-1
8.298331600E0	-4.642075896E-1	1.080359459E1	-3.409772217E-1
8.306734621E0	-5.024927482E-2	1.072463131E1	-2.608176768E-1
8.315137642E0	5.090730190E-1	1.061276627E1	-1.304088384E-1
8.323540663E0	1.105484009E0	1.066421223E1	1.339980662E-1
8.331943683E0	1.541576028E0	1.074736309E1	5.102694035E-1
8.340346704E0	1.757528186E0	1.074078274E1	6.023930907E-1
8.348749725E0	1.786840320E0	1.072223854E1	5.419743061E-1
8.357152746E0	1.663609982E0	1.075334454E1	5.419743061E-1
8.365555767E0	1.584048629E0	1.082154083E1	4.827519655E-1
8.373958788E0	1.560718536E0	1.071864891E1	4.881358147E-1
8.382361808E0	1.396810174E0	1.043988514E1	5.162515044E-1
8.390764829E0	1.071386337E0	9.993025780E0	5.862415433E-1
8.399167850E0	1.024726272E0	9.601201057E0	4.887340367E-1
8.407570871E0	1.423131227E0	9.427721024E0	9.152546525E-2
8.415973892E0	1.962114573E0	9.500701904E0	-5.563312769E-2
8.424376913E0	2.422134638E0	9.590433121E0	-9.032905847E-2
8.432779933E0	2.830111027E0	9.527023315E0	-3.367897868E-1
8.441182954E0	3.251846075E0	9.402596474E0	-3.164508045E-1
8.449585975E0	3.538386583E0	9.358329773E0	2.943171859E-1
8.457988996E0	3.506681681E0	9.308079720E0	8.715856671E-1
8.466392017E0	3.189034462E0	9.290133476E0	9.870393276E-1
8.474795038E0	2.742174864E0	9.398408890E0	7.968099117E-1
8.483198058E0	2.362314224E0	9.533005714E0	5.306084156E-1
8.491601079E0	2.169692039E0	9.552745819E0	3.948157430E-1
8.500004100E0	2.173879385E0	9.463015556E0	2.889333367E-1
8.508407121E0	2.181057930E0	9.303893089E0	4.301098585E-1
8.516810142E0	2.142772675E0	9.178269386E0	5.497509837E-1
8.525213163E0	2.092523336E0	9.070592880E0	6.227321029E-1
8.533616183E0	2.267199516E0	8.927620888E0	4.247260094E-1
8.542019204E0	2.858226538E0	8.946166039E0	3.254238665E-1
8.550422225E0	3.726821184E0	9.032905579E0	2.991028428E-1
8.558825246E0	4.404588223E0	9.172885895E0	4.528416991E-1
8.567228267E0	4.548157692E0	9.239286423E0	7.555337548E-1
8.575631288E0	4.250849247E0	9.284749985E0	8.811569214E-1
8.584034308E0	3.823730469E0	9.673583984E0	7.531409264E-1
8.592437329E0	3.385245800E0	1.096451187E1	3.248256743E-1
8.600840350E0	1.242473125E0	1.318864059E1	1.433300734E0
8.609243371E0	-2.525624275E0	1.468235970E1	2.147558212E0
8.617646392E0	-7.114459991E0	1.457348633E1	1.913061738E0
8.626049413E0	-1.008215809E1	1.238764286E1	-1.674975827E-2
8.634452433E0	-8.143373489E0	9.437891006E0	-2.732603550E0
8.642855454E0	-3.789632797E0	7.895118237E0	-2.551945448E0
8.651258475E0	2.141576260E-1	8.267800331E0	-8.721838593E-1
8.659661496E0	2.674577475E0	9.348757744E0	7.914260626E-1
8.668064517E0	3.495913982E0	9.870991707E0	1.086341500E0
8.676467538E0	2.397608280E0	9.961320877E0	7.345965505E-1
8.684870558E0	-5.682953820E-2	9.855438232E0	5.808576941E-1
8.693273579E0	-1.986641049E0	9.786046028E0	1.004985496E-1
8.701676600E0	-2.766701221E0	9.879366875E0	-7.100701332E-1
8.710079621E0	-2.455634356E0	1.002293587E1	-1.161715388E0
8.718482642E0	-1.041476011E0	1.004566765E1	-1.150947690E0
8.726885663E0	6.550351977E-1	9.984052658E0	-5.282155871E-1
8.735288683E0	1.677966833E0	9.971489906E0	7.477571070E-2
8.743691704E0	1.454237938E0	1.023350430E1	1.680957973E-1
8.752094725E0	2.889333367E-1	1.052004433E1	3.607180119E-1
8.760497746E0	-7.345965505E-1	1.026161957E1	6.239284873E-1
8.768900767E0	-1.167099237E0	9.682557106E0	9.373882413E-1
8.777303788E0	-9.559326172E-1	9.440881729E0	1.009172916E0
8.785706808E0	-3.379862010E-1	9.625128746E0	1.105484009E0
8.794109829E0	2.003988922E-1	9.820742607E0	1.323230863E0
8.802512850E0	2.470589429E-1	9.762716293E0	1.475175142E0
8.810915871E0	-1.088734269E-1	9.591629982E0	1.314856052E0
8.819318892E0	-4.157529473E-1	9.540184021E0	8.985049129E-1
8.827721913E0	-7.459624410E-1	9.628718376E0	6.490531564E-1
8.836124933E0	-1.118046403E0	9.713663101E0	4.438686073E-1
8.844527954E0	-1.229910851E0	9.920044899E0	2.087737769E-1
8.852930975E0	-1.097109199E0	1.007258701E1	1.872383654E-1
8.861333996E0	-9.098708034E-1	9.971489906E0	2.967100143E-1
8.869737017E0	-8.147560954E-1	9.899106979E0	7.657032609E-1
8.878140038E0	-7.292127013E-1	9.908679008E0	1.188036442E0
8.886543058E0	-7.411768436E-1	9.838688850E0	1.325623751E0
8.894946079E0	-8.644071817E-1	9.764511108E0	1.618744493E0
8.903349100E0	-1.074377418E0	9.656833649E0	1.476969719E0
8.911752121E0	-1.391426325E0	9.457033157E0	1.336391449E0
8.920155142E0	-1.654636860E0	9.361918449E0	1.569093466E0
8.928558163E0	-1.557129383E0	9.458827972E0	1.372283816E0
8.936961183E0	-1.257428288E0	9.558130264E0	1.373480201E0
8.945364204E0	-9.930213690E-1	9.470791817E0	1.725823283E0
8.953767225E0	-7.262216806E-1	9.443274498E0	1.847857237E0
8.962170246E0	-5.790630579E-1	9.564111710E0	1.664806366E0
8.970573267E0	-7.256234884E-1	9.564111710E0	1.433300734E0
8.978976288E0	-1.060020447E0	9.518648148E0	1.165304661E0
8.987379308E0	-1.207179070E0	9.549157143E0	9.726824164E-1
8.995782329E0	-1.039681435E0	9.668798447E0	9.828519225E-1
9.004185350E0	-7.429714203E-1	9.738189697E0	1.168893814E0
9.012588371E0	-5.407779217E-1	9.667601585E0	1.332802176E0
9.020991392E0	-5.772684813E-1	9.558728218E0	1.405185103E0
9.029394413E0	-8.129615188E-1	9.528818130E0	1.402194023E0
9.037797433E0	-1.141376376E0	9.534799576E0	1.200598717E0
9.046200454E0	-1.294517040E0	9.588040352E0	9.912267923E-1
9.054603475E0	-1.248455167E0	9.597611427E0	9.230313301E-1
9.063006496E0	-1.204786181E0	9.576674461E0	9.349954724E-1
9.071409517E0	-1.231107235E0	9.559326172E0	8.967102766E-1
9.079812538E0	-1.242473125E0	9.600603104E0	7.567301393E-1
9.088215558E0	-1.146162033E0	9.640682220E0	8.811569214E-1
9.096618579E0	-9.786644578E-1	9.647262573E0	1.027119160E0
9.105021600E0	-7.280163169E-1	9.658030510E0	1.019940615E0
9.113424621E0	-6.837490797E-1	9.623932838E0	1.074377418E0
9.121827642E0	-7.525427341E-1	9.590433121E0	1.222134113E0
9.130230663E0	-7.351947427E-1	9.558130264E0	1.332203984E0
9.138633683E0	-6.209374666E-1	9.513862610E0	1.166501045E0
9.147036704E0	-4.965106845E-1	9.516255379E0	9.720842242E-1
9.155439725E0	-4.725824594E-1	9.546165466E0	7.579265833E-1
9.163842746E0	-5.742774606E-1	9.684949875E0	7.112665176E-1
9.172245767E0	-5.246263742E-1	9.802796364E0	7.639086246E-1
9.180648788E0	-3.547359705E-1	9.814760208E0	9.391828775E-1
9.189051808E0	-2.039881349E-1	9.683155060E0	1.145563841E0
9.197454829E0	-1.220339537E-1	9.594022751E0	1.286142230E0
9.205857850E0	-7.537391037E-2	9.631709099E0	1.256231904E0
9.214260871E0	-1.142572835E-1	9.644869804E0	1.175474167E0
9.222663892E0	-1.692921966E-1	9.598209381E0	1.104287624E0
9.231066913E0	-1.363908947E-1	9.643074989E0	9.936196208E-1
9.239469933E0	-5.084748194E-2	9.741779327E0	8.781659007E-1
9.247872954E0	1.100698411E-1	9.881160736E0	8.285148144E-1
9.256275975E0	2.123630047E-1	1.004207802E1	9.355936646E-1
9.264678996E0	1.872383654E-1	1.024367332E1	1.057029366E0
9.273082017E0	1.764706671E-1	1.042672443E1	1.087537885E0
9.281485038E0	2.171486616E-1	1.039083195E1	9.786644578E-1
9.289888058E0	3.242274821E-1	1.009232807E1	6.113662124E-1
9.298291079E0	6.029912829E-1	9.803992271E0	3.343969584E-1
9.306694100E0	1.056431174E0	9.945169449E0	2.033899277E-1
9.315097121E0	1.526022673E0	1.060080242E1	1.537388563E-1
9.323500142E0	1.688734531E0	1.120738316E1	-2.141576260E-1
9.331903163E0	1.341775298E0	1.116909790E1	-6.939185858E-1
9.340306183E0	7.184450030E-1	1.085982513E1	-7.866404653E-1
9.348709204E0	1.022931710E-1	1.054816055E1	-6.598208547E-1
9.357112225E0	-6.460621208E-2	1.060020447E1	2.835494876E-1
9.365515246E0	4.187439568E-3	1.077188969E1	9.421738982E-1
9.373918267E0	4.809573591E-1	1.106979561E1	7.890332937E-1
9.382321288E0	7.651050687E-1	1.167517948E1	6.891329288E-1
9.390724308E0	5.383851007E-3	1.180857944E1	6.765705943E-1
9.399127329E0	-6.777670383E-1	1.160399342E1	4.462614357E-1
9.407530350E0	-6.000002623E-1	1.137906837E1	4.941178858E-1
9.415933371E0	3.828516230E-2	1.108594704E1	3.505485058E-1
9.424336392E0	6.927221417E-1	1.080957603E1	5.389832854E-1
9.432739413E0	1.354337573E0	1.040159988E1	7.776673436E-1
9.441142433E0	1.980658889E0	9.881160736E0	8.949156404E-1
9.449545454E0	2.333002090E0	9.498908043E0	7.692924738E-1
9.457948475E0	1.414158225E0	9.333803177E0	8.721838593E-1
9.466351496E0	-1.470389485E0	8.392825127E0	3.379862010E-1
9.474754517E0	-4.518845558E0	7.521838188E0	-6.831508875E-1
9.483157538E0	-5.823532104E0	7.549953461E0	-9.038887620E-1
9.491560558E0	-5.355735302E0	8.013563156E0	-9.020941257E-1
9.499963579E0	-4.094119549E0	8.516654015E0	-8.416753411E-1
9.508366600E0	-3.114856958E0	8.743971825E0	-6.723831892E-1
9.516769621E0	-2.456232548E0	8.788239479E0	-4.199403822E-1
9.525172642E0	-2.005185366E0	8.902496338E0	-2.949153781E-1
9.533575663E0	-1.950748682E0	9.111868858E0	-2.512463629E-1
9.541978683E0	-1.690529227E0	9.410971642E0	-6.149554253E-1
9.550381704E0	-1.035493970E0	1.013599682E1	-9.397810698E-1
9.558784725E0	-4.013960063E-1	1.057866859E1	-5.605186820E-1
9.567187746E0	-2.572284341E-1	1.035733318E1	-1.304088384E-1
9.575590767E0	-2.931207716E-1	1.005643559E1	4.905286431E-2
9.583993788E0	-1.668993831E-1	1.007856941E1	-2.141576260E-1
9.592396808E0	1.531406492E-1	1.039501953E1	-5.491527915E-1
9.600799829E0	5.461617708E-1	1.060678482E1	-4.941178858E-1
9.609202850E0	8.650053740E-1	1.061815071E1	-2.482553422E-1
9.617605871E0	1.020538807E0	1.043091202E1	-4.785645381E-2
9.626008892E0	1.088136077E0	1.025384331E1	-5.144568533E-2
9.634411913E0	1.169492126E0	1.021196842E1	-9.032905847E-2
9.642814933E0	1.213161111E0	1.020658493E1	1.178465188E-1
9.651217954E0	1.161117196E0	1.007617569E1	4.875376225E-1
9.659620975E0	1.149751306E0	9.897313118E0	7.537391186E-1
9.668023996E0	1.316650629E0	9.905687332E0	8.410771489E-1
9.676427017E0	1.496710539E0	9.886545181E0	1.198205948E0
9.684830038E0	1.444068432E0	9.584450722E0	1.347159147E0
9.693233058E0	1.292722464E0	9.211769104E0	1.152742267E0
9.701636079E0	1.235892892E0	9.019744873E0	9.577272534E-1
9.710039100E0	1.357926846E0	9.059824944E0	1.078564763E0
9.718442121E0	1.785643935E0	9.154939651E0	8.321040869E-1
9.726845142E0	2.444268227E0	9.418149948E0	3.595215976E-1
9.735248163E0	3.049652576E0	9.791430473E0	3.355933726E-1
9.743651183E0	3.341576815E0	9.926026344E0	4.965106845E-1
9.752054204E0	3.235096216E0	9.862018585E0	5.820540786E-1
9.760457225E0	2.809772015E0	9.787840843E0	7.758727670E-1
9.768860246E0	2.420340061E0	9.757930756E0	9.092726111E-1
9.777263267E0	2.427518606E0	9.894919395E0	9.068797827E-1
9.785666288E0	2.685345173E0	1.003250694E1	8.315058947E-1
9.794069308E0	2.992822886E0	1.008395290E1	6.448656917E-1
9.802472329E0	3.294916868E0	9.976275444E0	5.096712112E-1
9.810875350E0	3.562314749E0	9.781260490E0	5.994020700E-1
9.819278371E0	3.710071564E0	9.562915802E0	6.005984545E-1
9.827681392E0	3.827319860E0	9.432506561E0	4.336991012E-1
9.836084413E0	4.427320004E0	9.559326172E0	-3.290131316E-2
9.844487433E0	6.131608009E0	1.073061275E1	-7.202396393E-1
9.852890454E0	7.293323517E0	1.292423344E1	7.722834945E-1
9.861293475E0	6.069993019E0	1.450050545E1	2.101496458E0
9.869696496E0	2.075773716E0	1.415175152E1	1.701296926E0
9.878099517E0	-3.534797192E0	1.238405323E1	8.003991842E-1
9.886502538E0	-8.929415703E0	9.926026344E0	-7.531409264E-1
9.894905558E0	-1.081077290E1	7.750950813E0	-2.758924484E0
9.903308579E0	-8.100900650E0	7.126423836E0	-3.296711445E0
9.911711600E0	-3.682554007E0	7.998009682E0	-2.162513494E0
9.920114621E0	1.058823988E-1	9.376873970E0	-8.273184299E-1
9.928517642E0	2.708076954E0	1.011386299E1	1.399801224E-1
9.936920663E0	3.666402578E0	9.875179291E0	3.002992272E-1
9.945323683E0	2.445464849E0	9.463015556E0	-2.757728100E-1
9.953726704E0	-1.208375469E-1	9.622138023E0	-1.015154958E0
9.962129725E0	-1.982453585E0	1.015693378E1	-1.540977836E0
9.970532746E0	-2.464009047E0	1.047936630E1	-1.612164259E0
9.978935767E0	-1.964507341E0	1.032443142E1	-1.076770186E0
9.987338788E0	-1.264606714E0	9.869196892E0	-1.776670814E-1
9.995741808E0	-7.363911867E-1	9.580862045E0	5.700899959E-1
1.000414483E1	-3.152543902E-1	9.739984512E0	1.158126116E0
1.001254785E1	-1.160518974E-1	1.028255749E1	1.840080619E0
1.002095087E1	-5.186443329E-1	1.031665516E1	2.185843468E0
1.002935389E1	-1.581655741E0	9.639486313E0	1.852044702E0
1.003775691E1	-2.676970243E0	8.943773270E0	1.272383451E0
1.004615993E1	-2.904288530E0	8.933005333E0	9.607182741E-1
1.005456295E1	-2.192423820E0	9.393025398E0	7.034898400E-1
1.006296598E1	-1.266401410E0	9.841679573E0	7.752745152E-1
1.007136900E1	-5.934200287E-1	9.960124016E0	1.088734269E0
1.007977202E1	-1.603191197E-1	9.912267685E0	1.338186026E0
1.008817504E1	-6.161518395E-2	9.976275444E0	1.396810174E0
1.009657806E1	-3.882354796E-1	9.955936432E0	1.463809252E0
1.010498108E1	-9.816554785E-1	9.744172096E0	1.466202021E0
1.011338410E1	-1.429711580E0	9.530612946E0	1.283749342E0
1.012178712E1	-1.493121386E0	9.521639824E0	1.212562919E0
1.013019014E1	-1.067797065E0	9.580862045E0	1.426122308E0
1.013859316E1	-4.779663086E-1	9.543772697E0	1.774278045E0
1.014699618E1	-1.453639716E-1	9.538987160E0	1.879562140E0
1.015539920E1	1.435693540E-2	9.691530228E0	1.626521230E0
1.016380223E1	1.226321608E-1	9.832108498E0	1.356730461E0
1.017220525E1	9.571290761E-2	9.771091461E0	1.294517040E0
1.018060827E1	-8.733802289E-2	9.705288887E0	1.057627559E0
1.018901129E1	-2.069791555E-1	9.777671814E0	7.651050687E-1
1.019741431E1	-1.710868180E-1	9.859625816E0	7.106683254E-1
1.020581733E1	-7.956135273E-2	9.817750931E0	7.854440212E-1
1.021422035E1	-1.214357466E-1	9.780662537E0	8.644071817E-1
1.022262337E1	-2.650051117E-1	9.745966911E0	8.871390224E-1
1.023102639E1	-4.247260094E-1	9.703494072E0	8.249256015E-1
1.023942941E1	-6.287141442E-1	9.683155060E0	9.672985673E-1
1.024783243E1	-7.758727670E-1	9.677172661E0	1.063011408E0
1.025623545E1	-7.106683254E-1	9.687342644E0	8.679963946E-1
1.026463848E1	-5.958128572E-1	9.701699257E0	7.196413875E-1
1.027304150E1	-5.670989752E-1	9.700503349E0	6.496513486E-1
1.028144452E1	-5.976074338E-1	9.745966911E0	6.801598072E-1
1.028984754E1	-5.964110494E-1	9.724431038E0	8.075776696E-1
1.029825056E1	-5.509474277E-1	9.651450157E0	8.129615188E-1
1.030665358E1	-5.581258535E-1	9.646066666E0	8.213363886E-1
1.031505660E1	-6.125625968E-1	9.674181938E0	8.333004713E-1
1.032345962E1	-7.334001660E-1	9.640084267E0	8.470591903E-1
1.033186264E1	-8.656035662E-1	9.571888924E0	9.487541914E-1
1.034026566E1	-7.932206988E-1	9.549157143E0	8.009973764E-1
1.034866868E1	-5.168496966E-1	9.625727654E0	6.502495408E-1
1.035707170E1	-2.416750938E-1	9.718449593E0	5.413761139E-1
1.036547472E1	-1.417747438E-1	9.717850685E0	5.724828243E-1
1.037387775E1	-2.757728100E-1	9.635298729E0	4.013960063E-1
1.038228077E1	-5.838487148E-1	9.738189697E0	1.142572835E-1
1.039068379E1	-7.944171429E-1	9.880562782E0	1.076770201E-1
1.039908681E1	-7.004988194E-1	9.881759644E0	4.061816335E-1
1.040748983E1	-4.767699242E-1	9.793225288E0	9.583254457E-1
1.041589285E1	-9.810572863E-2	9.703494072E0	1.083350420E0
1.042429587E1	4.624129832E-1	9.781260490E0	1.070189953E0
1.043269889E1	8.721838593E-1	9.930811882E0	1.116251707E0
1.044110191E1	8.249256015E-1	9.949954987E0	1.156929731E0
1.044950493E1	5.060819983E-1	9.848259926E0	1.165902853E0
1.045790795E1	1.286142170E-1	9.787840843E0	1.048654556E0
1.046631098E1	-5.862415582E-2	9.935597420E0	9.667003751E-1
1.047471400E1	4.486542568E-2	1.012463093E1	1.196411371E0
1.048311702E1	3.798605800E-1	9.990633011E0	1.405185103E0
1.049152004E1	8.195417523E-1	9.717850685E0	1.391426325E0
1.049992306E1	1.077966571E0	9.638887405E0	1.025922656E0
1.050832608E1	1.088136077E0	9.826724052E0	6.544370055E-1
1.051672910E1	1.058225870E0	1.012104130E1	3.667000830E-1
1.052513212E1	1.028913736E0	1.032144070E1	1.130608693E-1
1.053353514E1	9.038887620E-1	1.053440189E1	3.529413417E-2
1.054193816E1	7.064808607E-1	1.081795120E1	-2.835494876E-1
1.055034118E1	1.926222295E-1	1.081735325E1	-8.763712645E-1
1.055874420E1	-6.293123364E-1	1.039023399E1	-5.150550604E-1
1.056714723E1	-1.189831018E0	1.022512913E1	1.974078715E-1
1.057555025E1	-1.157527924E0	1.074437141E1	6.969096065E-1
1.058395327E1	-6.849454641E-1	1.138804150E1	3.655036688E-1
1.059235629E1	-4.271188378E-1	1.174875927E1	7.597211599E-1
1.060075931E1	-7.238288224E-2	1.182114220E1	9.176474810E-1
1.060916233E1	4.325026870E-1	1.199821091E1	8.404789567E-1
1.061756535E1	2.703889608E-1	1.201436234E1	8.590233326E-1
1.062596837E1	-1.818545163E-1	1.171167088E1	3.894318938E-1
1.063437139E1	-4.492524564E-1	1.135573769E1	1.561316848E-1
1.064277441E1	-3.840480447E-1	1.092024422E1	2.500499785E-1
1.065117743E1	-1.621137410E-1	1.015274620E1	6.101697683E-2
1.065958045E1	3.792623878E-1	9.785448074E0	-1.417747438E-1
1.066798348E1	5.748756528E-1	9.910472870E0	2.979064286E-1
1.067638650E1	-1.340578914E0	9.409176826E0	4.947160780E-1
1.068478952E1	-4.459623337E0	8.263612747E0	-3.661018610E-1
1.069319254E1	-6.474380016E0	7.741379261E0	-7.495517135E-1
1.070159556E1	-6.457630157E0	8.082356453E0	-8.321040869E-1
1.070999858E1	-5.160121918E0	8.834898949E0	-9.397810698E-1
1.071840160E1	-3.969094515E0	9.477970123E0	-9.158528447E-1
1.072680462E1	-3.386442184E0	9.701101303E0	-5.318048596E-1
1.073520764E1	-3.145963669E0	9.461220741E0	-3.260220885E-1
1.074361066E1	-2.644068956E0	9.438488960E0	-5.048855543E-1
1.075201368E1	-1.855035782E0	9.900901794E0	-5.497509837E-1
1.076041670E1	-1.286740422E0	1.027657509E1	-3.008974493E-1
1.076881972E1	-1.440479279E0	1.014796066E1	-2.697907388E-1
1.077722275E1	-1.758724689E0	9.860223770E0	-3.942175210E-1
1.078562577E1	-1.686939955E0	9.811769485E0	-6.376872063E-1
1.079402879E1	-1.232901812E0	9.918250084E0	-9.284151793E-1
1.080243181E1	-5.270192027E-1	1.002592659E1	-1.042672515E0
1.081083483E1	1.663011760E-1	1.006421185E1	-6.981059909E-1
1.081923785E1	7.680960894E-1	1.001755238E1	-2.536391914E-1
1.082764087E1	1.302293777E0	9.921240807E0	-1.680957973E-1
1.083604389E1	1.794018745E0	9.804591179E0	-2.458625287E-1
1.084444691E1	2.297708035E0	9.664012909E0	-3.762713671E-1
1.085284993E1	2.790629387E0	9.559925079E0	-4.666004181E-1
1.086125295E1	3.063411236E0	9.471988678E0	-1.190429255E-1
1.086965598E1	3.430709362E0	9.608977318E0	-8.913264424E-2
1.087805900E1	3.878765583E0	9.734002113E0	5.982056726E-3
1.088646202E1	4.002593994E0	9.711869240E0	3.290131092E-1
1.089486504E1	3.613760471E0	9.472586632E0	3.559323549E-1
1.090326806E1	3.040081263E0	9.283554077E0	1.609173268E-1
1.091167108E1	2.571087837E0	9.323035240E0	2.213360965E-1
1.092007410E1	2.285743713E0	9.368498802E0	6.185446382E-1
1.092847712E1	2.202593327E0	9.177073479E0	7.226324677E-1
1.093688014E1	2.265404940E0	9.095118523E0	7.537391186E-1
1.094528316E1	2.409572363E0	9.098110199E0	9.828519225E-1
1.095368618E1	2.882753134E0	9.112466812E0	9.577272534E-1
1.096208920E1	3.765704632E0	9.157930374E0	8.536394835E-1
1.097049223E1	4.794020176E0	9.385847092E0	6.687939167E-1
1.097889525E1	5.398806095E0	9.905687332E0	7.417750359E-1
1.098729827E1	5.030909538E0	1.040818024E1	7.561319470E-1
1.099570129E1	3.747160196E0	1.051765156E1	3.684946895E-1
1.100410431E1	2.201995134E0	1.030768204E1	3.146561682E-1
1.101250733E1	1.228714466E0	9.734601021E0	4.731806815E-1
1.102091035E1	1.424925923E0	9.516854286E0	8.255238086E-2
1.102931337E1	2.387438774E0	1.008754253E1	-1.118644550E-1
1.103771639E1	3.360719442E0	1.105723381E1	1.621137410E-1
1.104611941E1	3.425923824E0	1.247019482E1	1.788634956E-1
1.105452243E1	1.536192179E0	1.365703487E1	4.618147612E-1
1.106292545E1	-1.872383714E0	1.379103374E1	7.459624410E-1
1.107132848E1	-5.563910961E0	1.194138145E1	2.578266263E-1
1.107973150E1	-7.329813957E0	9.316454887E0	-1.207179070E0
1.108813452E1	-6.203990936E0	7.655836105E0	-2.070389748E0
1.109653754E1	-3.213560820E0	7.974679470E0	-1.276570916E0
1.110494056E1	-3.158525825E-1	9.428917885E0	-5.581258535E-1
1.111334358E1	1.761117458E0	1.071506023E1	-1.244267747E-1
1.112174660E1	2.600399971E0	1.103749275E1	9.571290575E-3
1.113014962E1	1.648056626E0	1.044048309E1	-1.196411322E-3
1.113855264E1	-2.368894368E-1	9.776474953E0	6.400800496E-2
1.114695566E1	-1.839482427E0	9.461220741E0	-1.441675574E-1
1.115535868E1	-2.768495798E0	9.465408325E0	-5.563312769E-1
1.116376170E1	-2.843271494E0	9.625727654E0	-6.574280262E-1
1.117216472E1	-1.795215130E0	1.000199890E1	-3.523431420E-1
1.118056775E1	-7.298108935E-2	1.032921696E1	4.133601189E-1
1.118897077E1	1.312463164E0	1.033998489E1	1.146760225E0
1.119737379E1	1.127617717E0	1.007976532E1	1.669592023E0
1.120577681E1	-4.085744619E-1	9.799804688E0	1.816750646E0
1.121417983E1	-2.036890268E0	9.580264091E0	1.613958836E0
1.122258285E1	-2.601596355E0	9.390632629E0	1.225723386E0
1.123098587E1	-2.277967215E0	9.274580956E0	1.134197950E0
1.123938889E1	-1.562513232E0	9.329615593E0	1.293320656E0
1.124779191E1	-9.361918569E-1	9.492327690E0	1.491924882E0
1.125619493E1	-5.318048596E-1	9.681958199E0	1.354337573E0
1.126459795E1	-3.613162339E-1	9.859027863E0	8.464609981E-1
1.127300098E1	-3.798605800E-1	1.000020409E1	3.499503136E-1
1.128140400E1	-5.802595019E-1	1.001994514E1	8.195417374E-2
1.128980702E1	-8.733802438E-1	9.916455269E0	3.768695518E-2
1.129821004E1	-1.216152072E0	9.824331284E0	1.022931710E-1
1.130661306E1	-1.406381488E0	9.767501831E0	2.368894368E-1
1.131501608E1	-1.228714466E0	9.741779327E0	6.610172391E-1
1.132341910E1	-8.428717852E-1	9.692726135E0	1.345364571E0
1.133182212E1	-5.018945336E-1	9.627521515E0	1.936989903E0
1.134022514E1	-3.906283081E-1	9.553942680E0	2.142174482E0
1.134862816E1	-3.882354796E-1	9.493523598E0	2.019542217E0
1.135703118E1	-3.487538993E-1	9.557532310E0	1.683948994E0
1.136543420E1	-3.074777126E-1	9.743574142E0	1.282552958E0
1.137383722E1	-3.732803464E-1	9.829715729E0	1.287936807E0
1.138224025E1	-3.242274821E-1	9.772886276E0	1.168295622E0
1.139064327E1	-1.609173268E-1	9.689735413E0	9.176474810E-1
1.139904629E1	-6.640082598E-2	9.720842361E0	7.686942816E-1
1.140744931E1	-1.298106313E-1	9.821938515E0	8.243274093E-1
1.141585233E1	-3.038884699E-1	9.865608215E0	9.146564603E-1
1.142425535E1	-5.413761139E-1	9.780662537E0	9.816554785E-1
1.143265837E1	-7.752745152E-1	9.637093544E0	1.055234790E0
1.144106139E1	-9.116654396E-1	9.519845009E0	1.047458172E0
1.144946441E1	-9.361918569E-1	9.545567513E0	9.966106415E-1
1.145786743E1	-9.505487680E-1	9.634700775E0	8.087740541E-1
1.146627045E1	-9.176474810E-1	9.696315765E0	7.280163169E-1
1.147467348E1	-7.519445419E-1	9.747760773E0	7.513462901E-1
1.148307650E1	-5.491527915E-1	9.799206734E0	7.794619799E-1
1.149147952E1	-4.594219327E-1	9.779465675E0	1.009172916E0
1.149988254E1	-5.240281820E-1	9.715457916E0	1.189831018E0
1.150828556E1	-7.579265833E-1	9.650852203E0	1.252642632E0
1.151668858E1	-9.242277741E-1	9.583852768E0	1.151545882E0
1.152509160E1	-9.469595551E-1	9.530014038E0	1.013958573E0
1.153349462E1	-9.445667267E-1	9.516255379E0	9.397810698E-1
1.154189764E1	-9.589236975E-1	9.539586067E0	9.116654396E-1
1.155030066E1	-1.004387259E0	9.588638306E0	9.284151793E-1
1.155870368E1	-8.757730722E-1	9.591031075E0	9.218349457E-1
1.156710670E1	-5.862415433E-1	9.586245537E0	7.579265833E-1
1.157550972E1	-3.625126183E-1	9.704092026E0	7.064808607E-1
1.158391275E1	-3.517449200E-1	9.795618057E0	9.278169870E-1
1.159231577E1	-4.342973232E-1	9.695118904E0	1.057029366E0
1.160071879E1	-5.036891699E-1	9.581459999E0	9.206385016E-1
1.160912181E1	-4.043870270E-1	9.661021233E0	7.435696125E-1
1.161752483E1	-2.626122832E-1	9.806983948E0	8.925228715E-1
1.162592785E1	-3.762713671E-1	9.716055870E0	9.457631707E-1
1.163433087E1	-5.958128572E-1	9.639486313E0	8.093722463E-1
1.164273389E1	-5.383850932E-1	9.739386559E0	7.298108935E-1
1.165113691E1	-2.751746178E-1	9.915857315E0	1.029511929E0
1.165953993E1	-1.423729509E-1	9.976275444E0	1.451845169E0
1.166794295E1	-2.350948304E-1	9.981659889E0	1.672582984E0
1.167634598E1	-2.697907388E-1	1.004148006E1	1.743171334E0
1.168474900E1	-1.854437590E-1	1.013958549E1	1.701895118E0
1.169315202E1	-8.793623000E-2	1.013121128E1	1.575673699E0
1.170155504E1	-3.290131316E-2	9.898509026E0	1.304088354E0
1.170995806E1	5.383851007E-2	9.731011391E0	9.559326172E-1
1.171836108E1	1.555334777E-1	9.945767403E0	5.246263742E-1
1.172676410E1	3.684946895E-1	1.035553837E1	1.142572835E-1
1.173516712E1	6.771687865E-1	1.080957603E1	-9.092725813E-2
1.174357014E1	5.832505226E-1	1.105125141E1	-5.916253924E-1
1.175197316E1	-3.589233849E-3	1.099741268E1	-8.015955687E-1
1.176037618E1	-8.141579032E-1	1.056490993E1	-5.383850932E-1
1.176877920E1	-1.054038405E0	1.041954613E1	8.554340899E-2
1.177718222E1	-8.303094506E-1	1.076112175E1	5.617151260E-1
1.178558525E1	-6.329016089E-1	1.146580791E1	7.238288522E-1
1.179398827E1	-3.044866920E-1	1.211366463E1	8.787640929E-1
1.180239129E1	-4.498506486E-1	1.248455238E1	1.116251707E0
1.181079431E1	-9.379864931E-1	1.225185013E1	7.435696125E-1
1.181919733E1	-8.590233326E-1	1.196411324E1	2.967100143E-1
1.182760035E1	-2.219343036E-1	1.172662544E1	3.924229145E-1
1.183600337E1	5.934200287E-1	1.140180016E1	4.648058116E-1
1.184440639E1	1.335793257E0	1.096391296E1	4.474578202E-1
1.185280941E1	1.829312921E0	1.064925671E1	3.427718580E-1
1.186121243E1	8.243274093E-1	1.019462109E1	7.609176040E-1
1.186961545E1	-2.056631088E0	8.998209953E0	1.262213886E-1
1.187801848E1	-5.356333256E0	7.969295979E0	-1.018146038E0
1.188642150E1	-6.790830612E0	7.750352383E0	-1.534397483E0
1.189482452E1	-6.379265308E0	8.182256699E0	-1.587637782E0
1.190322754E1	-5.263611794E0	8.760123253E0	-1.466800332E0
1.191163056E1	-4.382454872E0	9.121439934E0	-1.256231904E0
1.192003358E1	-3.736392498E0	9.186644554E0	-8.506484628E-1
1.192843660E1	-2.920439959E0	9.251849174E0	-8.715856671E-1
1.193683962E1	-1.917249203E0	9.724431038E0	-1.006780148E0
1.194524264E1	-1.406381488E0	9.769296646E0	-2.751746178E-1
1.195364566E1	-1.765304923E0	9.401400566E0	4.582255483E-1
1.196204868E1	-2.168495417E0	9.091529846E0	2.321037948E-1
1.197045170E1	-1.998006940E0	9.507881165E0	-3.541377485E-1
1.197885473E1	-1.406979680E0	1.006839943E1	-7.597211599E-1
1.198725775E1	-8.338986635E-1	1.019820976E1	-8.608179688E-1
1.199566077E1	-3.643072546E-1	9.995418549E0	-6.562315822E-1
1.200406379E1	3.050848842E-2	9.815358162E0	-3.176472187E-1
1.201246681E1	4.695914388E-1	9.811170578E0	-1.238285750E-1
1.202086983E1	9.714859724E-1	9.911071777E0	-8.733802289E-2
1.202927285E1	1.446461320E0	9.899106979E0	-1.950150430E-1
1.203767587E1	1.974078655E0	9.832108498E0	-3.218346536E-1
1.204607889E1	2.441875458E0	9.757332802E0	3.589234129E-2
1.205448191E1	2.694916487E0	9.467203140E0	3.553341627E-1
1.206288493E1	2.804388046E0	9.181260109E0	3.768695518E-2
1.207128795E1	2.830111027E0	9.180662155E0	-1.226321608E-1
1.207969098E1	2.815155745E0	9.401400566E0	-2.249253243E-1
1.208809400E1	2.723630428E0	9.699904442E0	-2.428714931E-1
1.209649702E1	2.504687071E0	9.782457352E0	-5.682953820E-2
1.210490004E1	2.215155602E0	9.708279610E0	1.920240223E-1
1.211330306E1	1.959721804E0	9.501898766E0	5.383850932E-1
1.212170608E1	1.944168448E0	9.228518486E0	8.123632669E-1
1.213010910E1	2.298306227E0	8.937192917E0	1.024128079E0
1.213851212E1	3.025125980E0	8.835497856E0	1.087537885E0
1.214691514E1	3.794418573E0	9.049654961E0	1.288534999E0
1.215531816E1	4.450650215E0	9.330811501E0	1.302891970E0
1.216372118E1	4.779065132E0	9.574281693E0	1.190429211E0
1.217212420E1	4.529613495E0	9.678369522E0	1.130608678E0
1.218052722E1	3.727419376E0	9.710074425E0	8.979067206E-1
1.218893025E1	2.769692183E0	9.758528709E0	9.278169870E-1
1.219733327E1	2.249851465E0	9.766305923E0	6.574280262E-1
1.220573629E1	2.295315027E0	9.739386559E0	5.670989752E-1
1.221413931E1	2.793620348E0	9.743574142E0	5.641079545E-1
1.222254233E1	3.388236761E0	1.005583763E1	2.249253243E-1
1.223094535E1	3.880560160E0	1.090648556E1	-5.862415582E-2
1.223934837E1	4.745565414E0	1.196830082E1	1.417747438E-1
1.224775139E1	6.397809505E0	1.442273808E1	7.896314561E-2
1.225615441E1	5.929414749E0	1.618445396E1	1.831107497E0
1.226455743E1	2.535195589E0	1.485344696E1	1.813161373E0
1.227296045E1	-2.226521492E0	1.237388420E1	1.333998680E0
1.228136348E1	-6.224927902E0	9.103493690E0	6.251249313E-1
1.228976650E1	-6.809374809E0	6.444469452E0	-2.330011129E0
1.229816952E1	-4.700700283E0	6.250052929E0	-3.081955671E0
1.230657254E1	-1.926222205E0	8.015357971E0	-1.296311617E0
1.231497556E1	3.475574851E-1	1.005523872E1	1.615155302E-2
1.232337858E1	1.844866276E0	1.125882912E1	4.851447940E-1
1.233178160E1	2.045863390E0	1.106979561E1	2.865405083E-1
1.234018462E1	6.382854581E-1	1.021196842E1	1.692921966E-1
1.234858764E1	-1.006780148E0	9.723235130E0	7.776673418E-3
1.235699066E1	-1.705484390E0	9.789037704E0	-4.432703853E-1
1.236539368E1	-9.966106415E-1	1.025503922E1	-4.307080805E-1
1.237379670E1	2.931207716E-1	1.058046341E1	1.980060786E-1
1.238219973E1	1.071386337E0	1.045723343E1	1.130010486E0
1.239060275E1	7.848458290E-1	1.000379372E1	1.633699656E0
1.239900577E1	-6.041877270E-1	9.634700775E0	1.493121386E0
1.240740879E1	-2.163111687E0	9.388239861E0	1.309472203E0
1.241581181E1	-2.799602509E0	9.136395454E0	1.130608678E0
1.242421483E1	-2.056631088E0	9.113663673E0	1.070788145E0
1.243261785E1	-6.705885530E-1	9.468399048E0	1.104287624E0
1.244102087E1	3.678964674E-1	9.845867157E0	9.529415965E-1
1.244942389E1	6.035895348E-1	1.004746246E1	7.920243144E-1
1.245782691E1	-1.399801224E-1	1.002173901E1	7.663014531E-1
1.246622993E1	-8.638089895E-1	9.900303841E0	5.270192027E-1
1.247463295E1	-1.183250785E0	9.791430473E0	4.432703853E-1
1.248303598E1	-1.194018483E0	9.628718376E0	6.753742099E-1
1.249143900E1	-1.133599758E0	9.622735977E0	8.123632669E-1
1.249984202E1	-9.637092948E-1	9.870393753E0	8.656035662E-1
1.250824504E1	-7.824530005E-1	9.972088814E0	1.077966571E0
1.251664806E1	-7.465606928E-1	9.692726135E0	1.406381488E0
1.252505108E1	-7.986045480E-1	9.351749420E0	1.575075507E0
1.253345410E1	-7.680960894E-1	9.346364975E0	1.497906923E0
1.254185712E1	-5.898307562E-1	9.702297211E0	1.451845169E0
1.255026014E1	-5.976074338E-1	9.929615974E0	1.230509043E0
1.255866316E1	-9.056833982E-1	9.815957069E0	1.107876897E0
1.256706618E1	-1.143769264E0	9.615557671E0	9.278169870E-1
1.257546920E1	-1.004387259E0	9.637691498E0	6.735795736E-1
1.258387222E1	-6.107679605E-1	9.751948357E0	7.028916478E-1
1.259227525E1	-3.780659735E-1	9.737591743E0	8.644071817E-1
1.260067827E1	-3.984049559E-1	9.701101303E0	7.645068169E-1
1.260908129E1	-4.917250574E-1	9.711270332E0	7.100701332E-1
1.261748431E1	-5.330012441E-1	9.686744690E0	7.106683254E-1
1.262588733E1	-4.701896608E-1	9.662816048E0	6.334998012E-1
1.263429035E1	-3.194418252E-1	9.692128181E0	7.064808607E-1
1.264269337E1	-3.236292601E-1	9.689735413E0	8.889335990E-1
1.265109639E1	-4.863412082E-1	9.643074989E0	9.469595551E-1
1.265949941E1	-6.077769399E-1	9.642477036E0	8.081758618E-1
1.266790243E1	-5.922235847E-1	9.710074425E0	6.454638839E-1
1.267630545E1	-4.899304509E-1	9.750154495E0	6.394818425E-1
1.268470848E1	-3.816552162E-1	9.731609344E0	6.317051649E-1
1.269311150E1	-3.308077157E-1	9.726225853E0	6.011967063E-1
1.270151452E1	-2.763710022E-1	9.729216576E0	4.510470629E-1
1.270991754E1	-2.979064286E-1	9.738788605E0	3.762713671E-1
1.271832056E1	-3.511467278E-1	9.756135941E0	3.403790295E-1
1.272672358E1	-3.457628787E-1	9.861420631E0	3.972085714E-1
1.273512660E1	-2.715853751E-1	9.924231529E0	5.270192027E-1
1.274352962E1	-2.488535494E-1	9.795618057E0	7.645068169E-1
1.275193264E1	-2.267199457E-1	9.611968994E0	9.810572863E-1
1.276033566E1	-1.328016520E-1	9.641280174E0	9.792626500E-1
1.276873868E1	-6.041877344E-2	9.802198410E0	9.367900491E-1
1.277714170E1	-5.682953820E-2	9.820742607E0	8.644071817E-1
1.278554473E1	-8.374879509E-2	9.738189697E0	8.554341197E-1
1.279394775E1	7.776673418E-3	9.738189697E0	8.554341197E-1
1.280235077E1	1.316052526E-1	9.760323524E0	7.872386575E-1
1.281075379E1	6.281159073E-2	9.775876999E0	5.784648657E-1
1.281915681E1	-1.064806059E-1	9.843474388E0	3.218346536E-1
1.282755983E1	-1.651047617E-1	9.952945709E0	2.458625287E-1
1.283596285E1	-2.512463629E-1	1.006301594E1	3.206382394E-1
1.284436587E1	-3.236292601E-1	1.038784122E1	3.589234054E-1
1.285276889E1	-1.698904037E-1	1.075693417E1	4.695914388E-1
1.286117191E1	6.939185411E-2	1.069830990E1	5.186443329E-1
1.286957493E1	-9.571290575E-3	1.022812080E1	2.907279432E-1
1.287797795E1	-3.326023519E-1	9.669396400E0	2.572284266E-2
1.288638098E1	-5.395814776E-1	9.732208252E0	8.374879509E-2
1.289478400E1	-4.899304509E-1	1.030110168E1	9.571290761E-2
1.290318702E1	-5.060819983E-1	1.065344429E1	1.238285750E-1
1.291159004E1	-7.268198729E-1	1.033160973E1	5.054838061E-1
1.291999306E1	-7.657032609E-1	1.019880867E1	1.167099237E0
1.292839608E1	-5.928218365E-1	1.053320503E1	1.163509965E0
1.293679910E1	-3.948157430E-1	1.113320541E1	7.519445419E-1
1.294520212E1	-2.673979402E-1	1.152682495E1	5.497509837E-1
1.295360514E1	-4.187439755E-2	1.156690502E1	4.486542344E-1
1.296200816E1	2.464607358E-1	1.174337578E1	4.959124923E-1
1.297041118E1	3.206382394E-1	1.195155048E1	8.368897438E-1
1.297881420E1	2.799602449E-1	1.188036442E1	9.391828775E-1
1.298721722E1	2.973082066E-1	1.155254745E1	8.847461939E-1
1.299562025E1	5.593222976E-1	1.114038372E1	7.561319470E-1
1.300402327E1	1.120439172E0	1.069412231E1	5.335994363E-1
1.301242629E1	1.673181176E0	1.048355389E1	5.192425251E-1
1.302082931E1	1.299302697E0	1.018923664E1	1.003190875E0
1.302923233E1	-8.656035662E-1	9.170493126E0	4.815555513E-1
1.303763535E1	-3.651447296E0	8.167302132E0	-7.974081635E-1
1.304603837E1	-5.579464436E0	7.773682594E0	-1.466202021E0
1.305444139E1	-5.860022545E0	7.935198307E0	-1.720439434E0
1.306284441E1	-5.099703312E0	8.378468513E0	-1.837687731E0
1.307124743E1	-4.171288013E0	8.814560890E0	-1.624726534E0
1.307965045E1	-3.423531055E0	8.894720078E0	-9.014959335E-1
1.308805348E1	-2.502892494E0	8.976674080E0	-8.195417523E-1
1.309645650E1	-1.560718536E0	9.116654396E0	-6.017948985E-1
1.310485952E1	-1.357926846E0	9.083154678E0	-1.974078640E-2
1.311326254E1	-1.841277003E0	8.830712318E0	7.058826834E-2
1.312166556E1	-2.237289190E0	9.058628082E0	-2.045863420E-1
1.313006858E1	-2.244467735E0	9.703494072E0	-6.532405615E-1
1.313847160E1	-2.048256159E0	1.033819008E1	-1.122233868E0
1.314687462E1	-1.724028707E0	1.072881889E1	-1.048654556E0
1.315527764E1	-1.290927768E0	1.070548820E1	-5.347958803E-1
1.316368066E1	-7.268198729E-1	1.052901745E1	-2.081755698E-1
1.317208368E1	-1.860419661E-1	1.050269699E1	-1.136590764E-1
1.318048670E1	1.692921966E-1	1.063609695E1	-5.324030295E-2
1.318888973E1	3.738785386E-1	1.066361427E1	1.794617064E-2
1.319729275E1	5.700899959E-1	1.049551868E1	3.852444589E-1
1.320569577E1	9.840483069E-1	1.011565781E1	8.039883971E-1
1.321409879E1	1.692323804E0	9.713663101E0	7.375875711E-1
1.322250181E1	2.396411896E0	9.665208817E0	5.114658475E-1
1.323090483E1	2.889931440E0	9.899705887E0	2.512463629E-1
1.323930785E1	2.979662418E0	1.020000458E1	-1.393819153E-1
1.324771087E1	2.590230465E0	1.035194874E1	-2.201396823E-1
1.325611389E1	1.892722726E0	1.020419216E1	2.392822644E-3
1.326451691E1	1.198804140E0	9.892526627E0	1.052841991E-1
1.327291993E1	9.326026440E-1	9.756733894E0	-4.127619043E-2
1.328132295E1	1.070189953E0	9.769296646E0	-1.483550072E-1
1.328972598E1	1.595414519E0	9.732806206E0	-2.315055877E-1
1.329812900E1	2.295913219E0	9.651450157E0	-2.679961324E-1
1.330653202E1	2.962314367E0	9.629914284E0	-1.310070455E-1
1.331493504E1	3.418745279E0	9.620343208E0	6.699903309E-2
1.332333806E1	3.642474174E0	9.556933403E0	2.129612118E-1
1.333174108E1	3.753740549E0	9.391828537E0	3.553341627E-1
1.334014410E1	4.010969162E0	9.175278664E0	4.289134443E-1
1.334854712E1	4.501497746E0	9.122636795E0	3.906283081E-1
1.335695014E1	4.910670280E0	9.359525681E0	6.592226624E-1
1.336535316E1	4.844867706E0	9.600603104E0	6.448656917E-1
1.337375618E1	4.195216179E0	9.604191780E0	2.853440940E-1
1.338215920E1	3.310470104E0	9.455837250E0	-1.884347796E-1
1.339056222E1	2.617748022E0	9.297910690E0	-2.386840582E-1
1.339896525E1	2.239083767E0	8.937192917E0	-1.471585929E-1
1.340736827E1	2.501696110E0	8.761918068E0	-3.343969584E-1
1.341577129E1	3.165106058E0	8.837292671E0	-1.884347796E-1
1.342417431E1	3.894917011E0	9.035298347E0	-3.176472187E-1
1.343257733E1	4.488337040E0	9.710074425E0	-5.874379873E-1
1.344098035E1	4.117449760E0	1.151306629E1	-7.597211748E-2
1.344938337E1	1.067797065E0	1.322692490E1	1.465603828E0
1.345778639E1	-3.628117323E0	1.435394478E1	1.959123492E0
1.346618941E1	-8.595019341E0	1.377667618E1	1.482353687E0
1.347459243E1	-1.068215847E1	1.137787151E1	-1.277767301E0
1.348299545E1	-7.247261524E0	8.905488014E0	-3.346960783E0
1.349139848E1	-2.236690998E0	8.342576027E0	-2.045863390E0
1.349980150E1	2.139183521E0	9.206983566E0	1.250249892E-1
1.350820452E1	5.099104881E0	1.041715336E1	1.620539188E0
1.351660754E1	5.296513081E0	1.079103184E1	1.696511269E0
1.352501056E1	2.512463808E0	1.040339470E1	7.088736892E-1
1.353341358E1	-1.153340459E0	9.915258408E0	3.397808075E-1
1.354181660E1	-3.379862070E0	9.537193298E0	7.878368497E-1
1.355021962E1	-3.833899975E0	9.293723106E0	1.061815023E0
1.355862264E1	-3.108874798E0	9.337990761E0	9.068797827E-1
1.356702566E1	-1.638485312E0	9.632308006E0	8.321040869E-1
1.357542868E1	-2.338984162E-1	9.905687332E0	9.936196208E-1
1.358383170E1	9.750752151E-2	9.978070259E0	1.258026481E0
1.359223472E1	-9.619147182E-1	9.844072342E0	1.467398524E0
1.360063775E1	-2.384447813E0	9.674779892E0	1.056431174E0
1.360904077E1	-2.876770973E0	9.565906525E0	3.834498227E-1
1.361744379E1	-2.352144718E0	9.639486313E0	3.858426511E-1
1.362584681E1	-1.328614831E0	9.838089943E0	5.623133183E-1
1.363424983E1	-6.831508875E-1	9.988240242E0	7.184450030E-1
1.364265285E1	-6.113662124E-1	9.899106979E0	9.212366939E-1
1.365105587E1	-9.290133715E-1	9.656235695E0	1.179063320E0
1.365945889E1	-1.399203062E0	9.419346809E0	1.646261930E0
1.366786191E1	-1.576870084E0	9.327820778E0	1.551147223E0
1.367626493E1	-1.293320656E0	9.442078590E0	1.411167145E0
1.368466795E1	-7.932206988E-1	9.567103386E0	1.539781332E0
1.369307098E1	-3.385843933E-1	9.708877563E0	1.529611826E0
1.370147400E1	-1.609173268E-1	9.766903877E0	1.351944804E0
1.370987702E1	-2.422732860E-1	9.695118904E0	1.149153113E0
1.371828004E1	-3.930211067E-1	9.693922997E0	9.086744189E-1
1.372668306E1	-3.738785386E-1	9.866206169E0	8.416753411E-1
1.373508608E1	-3.074777126E-1	9.854840279E0	9.032905698E-1
1.374348910E1	-2.991028428E-1	9.696315765E0	1.025922656E0
1.375189212E1	-2.297109663E-1	9.617352486E0	1.229910851E0
1.376029514E1	-1.429711580E-1	9.698110580E0	1.137787223E0
1.376869816E1	-2.123630047E-1	9.793225288E0	1.015154958E0
1.377710118E1	-3.463610709E-1	9.726225853E0	1.060618639E0
1.378550420E1	-3.493520916E-1	9.668199539E0	1.059422255E0
1.379390723E1	-2.285145670E-1	9.689137459E0	9.080761671E-1
1.380231025E1	-1.268195957E-1	9.747162819E0	8.273184299E-1
1.381071327E1	-1.316052526E-1	9.788438797E0	8.644071817E-1
1.381911629E1	-2.703889608E-1	9.782457352E0	8.039883971E-1
1.382751931E1	-5.030909777E-1	9.708877563E0	7.752745152E-1
1.383592233E1	-7.549355626E-1	9.634700775E0	7.609176040E-1
1.384432535E1	-7.160521746E-1	9.658628464E0	7.956135273E-1
1.385272837E1	-4.456632137E-1	9.690931320E0	9.002995491E-1
1.386113139E1	-2.584248483E-1	9.665806770E0	1.107876897E0
1.386953441E1	-2.560320199E-1	9.617352486E0	1.146162033E0
1.387793743E1	-2.333002090E-1	9.640084267E0	9.942178130E-1
1.388634045E1	-6.580262631E-2	9.668199539E0	7.902296782E-1
1.389474348E1	1.196411327E-1	9.662218094E0	5.425725579E-1
1.390314650E1	1.710868180E-1	9.716654778E0	5.324030519E-1
1.391154952E1	1.980060786E-1	9.763314247E0	6.311069727E-1
1.391995254E1	2.644068897E-1	9.791430473E0	6.107679605E-1
1.392835556E1	3.876372576E-1	9.796813965E0	5.928218365E-1
1.393675858E1	3.792623878E-1	9.751350403E0	8.075776696E-1
1.394516160E1	2.745763958E-1	9.695717812E0	8.147560954E-1
1.395356462E1	2.853440940E-1	9.758528709E0	5.204389095E-1
1.396196764E1	4.037888348E-1	9.920642853E0	3.499503136E-1
1.397037066E1	4.683950245E-1	9.939785004E0	4.821537733E-1
1.397877368E1	5.288137794E-1	9.903892517E0	6.005984545E-1
1.398717670E1	6.520441771E-1	9.914062500E0	6.490531564E-1
1.399557972E1	7.758727670E-1	9.930213928E0	7.423732281E-1
1.400398275E1	7.998009920E-1	9.934401512E0	8.751748800E-1
1.401238577E1	6.837490797E-1	9.936196327E0	9.601200819E-1
1.402078879E1	4.642075896E-1	9.970293999E0	9.661021233E-1
1.402919181E1	1.968096644E-1	9.940383911E0	1.204786181E0
1.403759483E1	2.512463741E-2	9.905687332E0	1.555932879E0
1.404599785E1	-4.905286431E-2	9.951749802E0	1.664806366E0
1.405440087E1	9.930214286E-2	1.021017456E1	1.711466432E0
1.406280389E1	3.906283081E-1	1.047817039E1	1.575075507E0
1.407120691E1	5.856433511E-1	1.055234814E1	1.260419369E0
1.407960993E1	7.543373108E-1	1.050808048E1	9.559326172E-1
1.408801295E1	7.399803996E-1	1.069711399E1	3.906283081E-1
1.409641598E1	4.205385745E-1	1.067856884E1	-4.863412082E-1
1.410481900E1	-3.888336718E-1	1.057208824E1	-7.058826685E-1
1.411322202E1	-1.405783296E0	1.031665516E1	-1.962114573E-1
1.412162504E1	-1.724626899E0	1.048833942E1	4.325026870E-1
1.413002806E1	-1.473978758E0	1.110748291E1	4.211367965E-1
1.413843108E1	-8.662018180E-1	1.190847969E1	4.331009090E-1
1.414683410E1	-1.244866014E0	1.208973598E1	7.465606928E-1
1.415523712E1	-1.975275040E0	1.170209885E1	3.888336718E-1
1.416364014E1	-1.924427629E0	1.125105190E1	-1.256231871E-2
1.417204316E1	-8.321040869E-1	1.106859970E1	-3.493520916E-1
1.418044618E1	5.880361795E-1	1.096869946E1	-2.249253243E-1
1.418884920E1	1.764108539E0	1.068814087E1	8.135596663E-2
1.419725223E1	2.598605394E0	1.010070229E1	2.147558331E-1
1.420565525E1	3.156133175E0	9.560523033E0	-1.794617064E-2
1.421405827E1	3.020340443E0	9.484550476E0	2.009970993E-1
1.422246129E1	1.031904817E0	8.967103004E0	5.850451589E-1
1.423086431E1	-2.467598438E0	7.465606689E0	-1.710868180E-1
1.423926733E1	-5.131408215E0	6.803991318E0	-7.555337548E-1
1.424767035E1	-5.989234924E0	7.225726128E0	-9.248259664E-1
1.425607337E1	-5.279164791E0	8.043473244E0	-1.008574724E0
1.426447639E1	-4.098905087E0	8.736793518E0	-7.471588850E-1
1.427287941E1	-3.385245800E0	9.196813583E0	-4.642075896E-1
1.428128243E1	-3.090330362E0	9.247062683E0	-3.367897868E-1
1.428968545E1	-2.747558594E0	9.407382011E0	-4.594219327E-1
1.429808848E1	-2.464607239E0	9.672387123E0	-5.294120312E-1
1.430649150E1	-2.098505497E0	1.015454102E1	-9.846464992E-1
1.431489452E1	-1.759322882E0	1.058106136E1	-8.327022791E-1
1.432329754E1	-1.634896040E0	1.053858948E1	-4.929214716E-1
1.433170056E1	-1.450050473E0	1.022871876E1	-3.451646566E-1
1.434010358E1	-9.367900491E-1	1.021017456E1	-3.906283081E-1
1.434850660E1	-3.020938635E-1	1.051466084E1	-2.315055877E-1
1.435690962E1	2.763710022E-1	1.067737293E1	-1.657029688E-1
1.436531264E1	6.903293133E-1	1.057627583E1	1.375873014E-2
1.437371566E1	9.146564603E-1	1.034656525E1	4.247260094E-2
1.438211868E1	1.062413216E0	1.014377308E1	-3.050848842E-2
1.439052170E1	1.308275819E0	1.003848934E1	3.888336942E-2
1.439892472E1	1.719841242E0	1.005284595E1	2.626122832E-1
1.440732775E1	2.220539331E0	9.987641335E0	6.400800347E-1
1.441573077E1	2.736790895E0	1.007677460E1	8.991031051E-1
1.442413379E1	2.690130949E0	1.017547798E1	1.356132269E0
1.443253681E1	2.144567251E0	1.021496010E1	9.397810698E-1
1.444093983E1	1.290927768E0	1.012223816E1	4.695914388E-1
1.444934285E1	6.275177598E-1	9.925428391E0	3.110669553E-1
1.445774587E1	3.086741269E-1	9.675378799E0	4.013960063E-1
1.446614889E1	3.810569942E-1	9.446265221E0	4.767699242E-1
1.447455191E1	8.213363886E-1	9.403793335E0	5.599204898E-1
1.448295493E1	1.296909928E0	9.435498238E0	7.136593461E-1
1.449135795E1	1.605584025E0	9.417551994E0	8.656035662E-1
1.449976098E1	1.840080619E0	9.350552559E0	7.872386575E-1
1.450816400E1	2.389233351E0	9.433105469E0	4.701896608E-1
1.451656702E1	3.142374277E0	9.750154495E0	4.151547253E-1
1.452497004E1	3.782454491E0	1.008395290E1	6.999006271E-1
1.453337306E1	4.034298897E0	1.001037312E1	8.985049129E-1
1.454177608E1	3.827918053E0	9.677771568E0	8.237292171E-1
1.455017910E1	3.311068296E0	9.499505997E0	5.545366406E-1
1.455858212E1	2.646461725E0	9.514460564E0	2.811566591E-1
1.456698514E1	2.266601324E0	9.699306488E0	-1.974078640E-2
1.457538816E1	2.245065928E0	9.793823242E0	3.110669367E-2
1.458379118E1	2.598605394E0	9.648459435E0	3.828516230E-2
1.459219420E1	3.078366280E0	9.263215065E0	4.007977992E-2
1.460059723E1	3.519842148E0	9.232108116E0	2.021935135E-1
1.460900025E1	4.093521118E0	9.457033157E0	3.804588020E-1
1.461740327E1	5.414957523E0	1.033579731E1	3.559323549E-1
1.462580629E1	6.814160824E0	1.192283726E1	1.194616675E0
1.463420931E1	6.668198586E0	1.361635685E1	1.938186288E0
1.464261233E1	3.512663603E0	1.404048538E1	2.788236618E0
1.465101535E1	-1.727617979E0	1.270409393E1	2.133799553E0
1.465941837E1	-7.274778843E0	1.028913784E1	-1.926222295E-1
1.466782139E1	-9.977472305E0	7.923832417E0	-2.933600664E0
1.467622441E1	-8.100900650E0	6.931408882E0	-3.681357622E0
1.468462743E1	-3.771686792E0	7.791030407E0	-1.904686809E0
1.469303045E1	-2.955136001E-1	9.195018768E0	-5.958128572E-1
1.470143348E1	1.817348838E0	1.035852909E1	-8.434699476E-2
1.470983650E1	2.612364054E0	1.087717342E1	3.529413417E-2
1.471823952E1	2.228316069E0	1.092383385E1	2.452643216E-1
1.472664254E1	1.228714466E0	1.072522926E1	7.184450030E-1
1.473504556E1	-2.093719840E-1	1.018564796E1	8.338986635E-1
1.474344858E1	-1.817947030E0	9.660423279E0	7.298108935E-1
1.475185160E1	-2.778665304E0	9.546165466E0	7.944171429E-1
1.476025462E1	-2.383849621E0	9.802198410E0	9.032905698E-1
1.476865764E1	-1.200000525E0	9.999007225E0	1.104287624E0
1.477706066E1	-7.710871100E-1	9.735198975E0	1.668993831E0
1.478546368E1	-1.407577872E0	9.333204269E0	2.240280151E0
1.479386670E1	-2.190030813E0	9.090931892E0	2.395813704E0
1.480226972E1	-2.176870346E0	9.147162437E0	1.844866276E0
1.481067275E1	-1.216152072E0	9.563513756E0	8.793623447E-1
1.481907577E1	-8.135596663E-2	9.992427826E0	6.562315822E-1
1.482747879E1	6.550351977E-1	1.011805058E1	1.238285661E0
1.483588181E1	9.188438654E-1	9.939187050E0	1.291526079E0
1.484428483E1	6.508477330E-1	9.920642853E0	6.646065116E-1
1.485268785E1	1.196411322E-3	9.941579819E0	3.098705411E-1
1.486109087E1	-5.665007830E-1	9.833903313E0	3.373879790E-1
1.486949389E1	-7.076773047E-1	9.796216011E0	3.984049559E-1
1.487789691E1	-6.149554253E-1	9.815957069E0	4.851447940E-1
1.488629993E1	-4.217349887E-1	9.724431038E0	6.245267391E-1
1.489470295E1	-2.039881349E-1	9.666405678E0	8.069794178E-1
1.490310598E1	7.118647546E-2	9.782457352E0	7.872386575E-1
1.491150900E1	3.122633696E-1	9.928419113E0	7.680960894E-1
1.491991202E1	3.840480447E-1	9.969097137E0	7.345965505E-1
1.492831504E1	2.201396823E-1	9.863813400E0	6.173482537E-1
1.493671806E1	-2.871387079E-2	9.835697174E0	4.336991012E-1
1.494512108E1	-3.050848842E-1	9.776474953E0	3.565305769E-1
1.495352410E1	-5.306084156E-1	9.698708534E0	4.630111754E-1
1.496192712E1	-5.252245665E-1	9.733404160E0	4.115654826E-1
1.497033014E1	-4.456632137E-1	9.829715729E0	5.258227587E-1
1.497873316E1	-3.547359705E-1	9.760921478E0	1.065404296E0
1.498713618E1	-1.262213886E-1	9.577272415E0	1.416550994E0
1.499553920E1	-1.316052489E-2	9.545567513E0	1.269392371E0
1.500394223E1	-9.092725813E-2	9.680164337E0	8.799605370E-1
1.501234525E1	-2.482553422E-1	9.759725571E0	7.818548083E-1
1.502074827E1	-3.218346536E-1	9.741779327E0	8.548358679E-1
1.502915129E1	-3.224328458E-1	9.757332802E0	9.996016622E-1
1.503755431E1	-2.440679073E-1	9.696315765E0	1.109671474E0
1.504595733E1	-1.196411327E-1	9.635896683E0	1.053440213E0
1.505436035E1	2.991028363E-3	9.680164337E0	8.021938205E-1
1.506276337E1	-2.392822690E-2	9.729815483E0	6.825526357E-1
1.507116639E1	-1.537388563E-1	9.713663101E0	6.340979934E-1
1.507956941E1	-2.249253243E-1	9.723833084E0	5.934200287E-1
1.508797243E1	-1.710868180E-1	9.797411919E0	5.174478889E-1
1.509637545E1	-5.623133108E-2	9.778269768E0	4.809573591E-1
1.510477848E1	6.161518395E-2	9.678967476E0	2.422732860E-1
1.511318150E1	1.429711580E-1	9.734601021E0	-2.991028316E-2
1.512158452E1	2.644068897E-1	9.904491425E0	-4.725824669E-2
1.512998754E1	3.631108403E-1	1.002532864E1	1.393819153E-1
1.513839056E1	4.366901219E-1	9.946963310E0	3.409772217E-1
1.514679358E1	4.390829504E-1	9.803394318E0	5.503492355E-1
1.515519660E1	4.127618968E-1	9.745368004E0	7.094719410E-1
1.516359962E1	2.973082066E-1	9.742975235E0	8.333004713E-1
1.517200264E1	5.264209956E-2	9.711869240E0	8.937192559E-1
1.518040566E1	-2.003988922E-1	9.683155060E0	7.878368497E-1
1.518880868E1	-3.607180119E-1	9.715457916E0	6.131607890E-1
1.519721170E1	-4.923232496E-1	9.833304405E0	5.042873621E-1
1.520561472E1	-6.346961856E-1	9.911669731E0	4.546363056E-1
1.521401775E1	-6.550351977E-1	9.983454704E0	4.935196638E-1
1.522242077E1	-5.138586760E-1	1.005404282E1	6.837490797E-1
1.523082379E1	-2.135594189E-1	1.017906761E1	9.248259664E-1
1.523922681E1	1.507478207E-1	1.027238750E1	1.289133191E0
1.524762983E1	1.710868180E-1	1.019581699E1	1.296311617E0
1.525603285E1	-3.678964674E-1	9.837491989E0	8.703892231E-1
1.526443587E1	-1.106680512E0	9.903892517E0	9.092726111E-1
1.527283889E1	-1.460818172E0	1.034836006E1	7.674978375E-1
1.528124191E1	-1.312463164E0	1.061934662E1	4.606183469E-1
1.528964493E1	-9.930213690E-1	1.056072235E1	7.686942816E-1
1.529804795E1	-5.748756528E-1	1.071206856E1	1.265205026E0
1.530645098E1	-2.249253243E-1	1.105663490E1	1.266999602E0
1.531485400E1	-1.112662554E-1	1.156092262E1	1.283749342E0
1.532325702E1	-1.932204217E-1	1.196531010E1	1.202393413E0
1.533166004E1	-2.087737769E-1	1.216750336E1	1.000798106E0
1.534006306E1	-5.922235921E-2	1.219202995E1	1.145563841E0
1.534846608E1	-1.333998591E-1	1.169192982E1	1.430907965E0
1.535686910E1	-5.832505226E-1	1.037707329E1	8.578268886E-1
1.536527212E1	-5.509474277E-1	9.591629982E0	6.819544733E-2
1.537367514E1	-3.116651475E-1	9.617352486E0	3.457628787E-1
1.538207816E1	-1.500299811E0	9.272188187E0	5.144568533E-2
1.539048118E1	-3.996612072E0	8.474779129E0	-7.064808607E-1
1.539888420E1	-5.961717606E0	7.962715626E0	-1.079162955E0
1.540728723E1	-5.816353798E0	8.234300613E0	-9.553344250E-1
1.541569025E1	-4.287340164E0	9.040083885E0	-6.586244106E-1
1.542409327E1	-2.797209740E0	9.808777809E0	-5.515456200E-1
1.543249629E1	-1.911267042E0	1.030469036E1	-2.009970993E-1
1.544089931E1	-1.515254974E0	1.031844902E1	1.022931710E-1
1.544930233E1	-1.455434322E0	1.014616585E1	9.332008660E-2
1.545770535E1	-1.463809252E0	1.008335495E1	-1.914258152E-1
1.546610837E1	-1.456630826E0	1.019222832E1	-4.372883439E-1
1.547451139E1	-1.229910851E0	1.028136063E1	-6.418746710E-1
1.548291441E1	-7.812566161E-1	1.020658493E1	-6.825526357E-1
1.549131743E1	-2.219343036E-1	1.005165005E1	-5.886343718E-1
1.549972045E1	2.452643216E-1	9.903892517E0	-4.522434771E-1
1.550812348E1	5.335994363E-1	9.716055870E0	-2.871387303E-1
1.551652650E1	7.507480979E-1	9.455238342E0	-3.230310678E-1
1.552492952E1	9.487541914E-1	9.287740707E0	-4.055834413E-1
1.553333254E1	1.041476011E0	9.323035240E0	-4.133601189E-1
1.554173556E1	1.010967612E0	9.401998520E0	-4.881358147E-1
1.555013858E1	8.506484628E-1	9.403194427E0	-5.946164131E-1
1.555854160E1	7.220342159E-1	9.282357216E0	-3.876372576E-1
1.556694462E1	8.763712645E-1	9.042476654E0	4.187439568E-3
1.557534764E1	1.393221021E0	8.928817749E0	-5.982056726E-3
1.558375066E1	2.053041935E0	9.247661591E0	-8.195417374E-2
1.559215368E1	2.520838737E0	9.930213928E0	-3.828516230E-2
1.560055670E1	2.507678032E0	1.041954613E1	4.067798331E-2
1.560895973E1	1.899302959E0	1.045783138E1	1.070788130E-1
1.561736275E1	9.164510965E-1	1.006421185E1	1.992024779E-1
1.562576577E1	1.489532143E-1	9.699306488E0	8.315058798E-2
1.563416879E1	-2.321037948E-1	9.540781975E0	-3.110669367E-2
1.564257181E1	-1.944168359E-1	9.497711182E0	-5.144568533E-2
1.565097483E1	1.411765367E-1	9.572486877E0	-2.931207791E-2
1.565937785E1	4.887340367E-1	9.677771568E0	2.075773627E-1
1.566778087E1	6.927221417E-1	9.728618622E0	4.887340367E-1
1.567618389E1	7.495517135E-1	9.664610863E0	6.640082598E-1
1.568458691E1	8.536394835E-1	9.506684303E0	7.609176040E-1
1.569298993E1	1.106082320E0	9.296713829E0	7.722834945E-1
1.570139295E1	1.666600943E0	9.107681274E0	3.996013701E-1
1.570979598E1	2.539382935E0	9.194420815E0	-2.548356056E-1
1.571819900E1	3.301496983E0	9.739386559E0	-9.571290761E-2
1.572660202E1	3.419343472E0	1.024606609E1	6.263213158E-1
1.573500504E1	2.678166628E0	1.010070229E1	8.321040869E-1
1.574340806E1	1.332802176E0	9.542576790E0	8.303094506E-1
1.575181108E1	2.021935135E-1	8.967103004E0	3.828516304E-1
1.576021410E1	-1.842473447E-1	8.762516975E0	-2.177468538E-1
1.576861712E1	4.217349887E-1	8.977870941E0	-3.439682424E-1
1.577702014E1	1.552343726E0	9.292527199E0	-3.649054468E-2
1.578542316E1	2.430509567E0	9.282357216E0	3.014956415E-1
1.579382618E1	2.974278450E0	8.843872070E0	3.158525825E-1
1.580222920E1	3.958326817E0	8.779266357E0	1.190429255E-1
1.581063222E1	5.868397713E0	1.049910736E1	1.369891018E-1
1.581903525E1	7.192226887E0	1.408774376E1	1.782652855E0
1.582743827E1	5.292325497E0	1.689512253E1	3.903890133E0
1.583584129E1	-2.033899277E-1	1.587219048E1	3.739981890E0
1.584424431E1	-6.607181549E0	1.199222851E1	1.330409408E0
1.585264733E1	-1.037228775E1	7.438089371E0	-2.212164640E0
1.586105035E1	-8.362915039E0	5.407180786E0	-3.954139471E0
1.586945337E1	-3.964907169E0	7.071987152E0	-2.555534601E0
1.587785639E1	-4.743770957E-1	9.981659889E0	-9.098708034E-1
1.588625941E1	1.788634896E0	1.173200989E1	1.310070455E-1
1.589466243E1	2.629712105E0	1.115653515E1	1.086341500E0
1.590306545E1	1.950150490E0	9.984650612E0	1.784447432E0
1.591146848E1	4.809573591E-1	9.608977318E0	1.619940877E0
1.591987150E1	-8.171489239E-1	9.862018585E0	1.341775298E0
1.592827452E1	-1.384247899E0	9.964909554E0	1.249651670E0
1.593667754E1	-1.313061476E0	9.854242325E0	9.056833982E-1
1.594508056E1	-1.033699393E0	9.796813965E0	3.547359705E-1
1.595348358E1	-1.145563841E0	9.847063065E0	4.785645306E-1
1.596188660E1	-1.719243050E0	9.725028992E0	1.153340459E0
1.597028962E1	-2.225923300E0	9.515657425E0	1.403988719E0
1.597869264E1	-2.057229280E0	9.387042999E0	1.119840980E0
1.598709566E1	-9.936196208E-1	9.586843491E0	8.213363886E-1
1.599549868E1	2.243271172E-1	9.960722923E0	5.964110494E-1
1.600390170E1	8.919246197E-1	1.018684387E1	6.137589812E-1
1.601230472E1	5.641079545E-1	1.004925728E1	7.800601721E-1
1.602070775E1	-2.865405083E-1	9.800403595E0	8.219345808E-1
1.602911077E1	-1.016351461E0	9.662816048E0	8.739784956E-1
1.603751379E1	-1.359123230E0	9.585049629E0	1.124028444E0
1.604591681E1	-1.274776220E0	9.576674461E0	1.499103427E0
1.605431983E1	-9.427721500E-1	9.569496155E0	1.798206210E0
1.606272285E1	-4.803591371E-1	9.542576790E0	1.818545222E0
1.607112587E1	-1.830509305E-1	9.517452240E0	1.820339799E0
1.607952889E1	-1.501496136E-1	9.559326172E0	1.399801254E0
1.608793191E1	-3.469592929E-1	9.675378799E0	9.230313301E-1
1.609633493E1	-5.599204898E-1	9.833903313E0	5.611169338E-1
1.610473795E1	-5.168496966E-1	9.961918831E0	4.372883439E-1
1.611314098E1	-3.188436031E-1	9.936196327E0	6.029912829E-1
1.612154400E1	-2.494517565E-1	9.793823242E0	8.668000102E-1
1.612994702E1	-4.211367965E-1	9.702297211E0	1.090528965E0
1.613835004E1	-6.843472719E-1	9.673583984E0	1.159920812E0
1.614675306E1	-9.601200819E-1	9.587442398E0	1.237687469E0
1.615515608E1	-1.050449133E0	9.488738060E0	1.195214868E0
1.616355910E1	-7.674978375E-1	9.580862045E0	9.206385016E-1
1.617196212E1	-4.336991012E-1	9.699306488E0	9.846464992E-1
1.618036514E1	-1.393819153E-1	9.781260490E0	9.074779749E-1
1.618876816E1	-7.477571070E-2	9.827322960E0	8.207381964E-1
1.619717118E1	-2.261217386E-1	9.817750931E0	7.878368497E-1
1.620557420E1	-4.175475538E-1	9.782457352E0	7.603194118E-1
1.621397722E1	-4.785645306E-1	9.695118904E0	7.142575383E-1
1.622238025E1	-4.881358147E-1	9.644869804E0	5.246263742E-1
1.623078327E1	-4.923232496E-1	9.723235130E0	4.372883439E-1
1.623918629E1	-5.132604837E-1	9.832706451E0	6.095715761E-1
1.624758931E1	-5.126622319E-1	9.824331284E0	7.010970116E-1
1.625599233E1	-4.773681164E-1	9.806983948E0	7.962117195E-1
1.626439535E1	-4.091726840E-1	9.793225288E0	1.052842021E0
1.627279837E1	-3.625126183E-1	9.696913719E0	1.180259824E0
1.628120139E1	-4.486542344E-1	9.597013474E0	1.207777262E0
1.628960441E1	-4.366901219E-1	9.579665184E0	1.130010486E0
1.629800743E1	-2.356930375E-1	9.677771568E0	1.198205948E0
1.630641045E1	-1.495514158E-2	9.741779327E0	1.358525038E0
1.631481348E1	5.742774159E-2	9.731011391E0	1.315454245E0
1.632321650E1	-9.571290575E-3	9.718449593E0	1.220339537E0
1.633161952E1	-1.076770201E-1	9.698110580E0	1.188634634E0
1.634002254E1	-2.590230405E-1	9.679565430E0	1.047458172E0
1.634842556E1	-3.505485058E-1	9.675378799E0	8.638089895E-1
1.635682858E1	-2.069791555E-1	9.684949875E0	7.938188910E-1
1.636523160E1	7.357929647E-2	9.786046028E0	6.927221417E-1
1.637363462E1	2.691925466E-1	9.936794281E0	7.597211599E-1
1.638203764E1	2.428714931E-1	9.953543663E0	8.841479421E-1
1.639044066E1	1.375873014E-2	9.893125534E0	8.919246197E-1
1.639884368E1	-1.621137410E-1	9.967901230E0	1.037288666E0
1.640724670E1	-1.866401732E-1	1.019043350E1	1.229910851E0
1.641564972E1	-1.686939895E-1	1.035494041E1	1.283151150E0
1.642405275E1	-2.458625287E-1	1.019162941E1	1.219143152E0
1.643245577E1	-3.804588020E-1	9.803992271E0	1.138385415E0
1.644085879E1	-5.096712112E-1	9.752547264E0	1.023529887E0
1.644926181E1	-7.399803996E-1	9.996016502E0	7.710871100E-1
1.645766483E1	-1.156929731E0	1.009711361E1	7.399803996E-1
1.646606785E1	-1.730010748E0	1.007079220E1	9.870393276E-1
1.647447087E1	-2.191227436E0	1.024367332E1	1.061815023E0
1.648287389E1	-2.488535643E0	1.056550884E1	8.626125455E-1
1.649127691E1	-2.612962246E0	1.089811039E1	5.443671346E-1
1.649967993E1	-2.538784742E0	1.105663490E1	-2.512463741E-2
1.650808295E1	-2.311466694E0	1.127916813E1	3.290131316E-2
1.651648598E1	-1.496710539E0	1.162074280E1	9.092725813E-2
1.652488900E1	-5.886343718E-1	1.237567902E1	3.355933726E-1
1.653329202E1	-4.115654826E-1	1.245882893E1	5.270192027E-1
1.654169504E1	-4.384847581E-1	1.204726410E1	3.439682424E-1
1.655009806E1	-2.943171859E-1	1.156331539E1	8.135596663E-2
1.655850108E1	2.117647976E-1	1.097228813E1	-8.913264424E-2
1.656690410E1	1.040877819E0	1.030827999E1	-1.333998591E-1
1.657530712E1	2.017747641E0	9.683753014E0	-3.224328458E-1
1.658371014E1	2.582453728E0	9.530014038E0	-4.097708762E-1
1.659211316E1	6.424728632E-1	8.831310272E0	5.383851007E-2
1.660051618E1	-2.952743053E0	7.129415035E0	-6.526423693E-1
1.660891920E1	-5.842076302E0	6.275775433E0	-1.194018483E0
1.661732223E1	-6.182455540E0	6.754938126E0	-1.179063320E0
1.662572525E1	-4.932205677E0	7.901100159E0	-1.229312658E0
1.663412827E1	-3.632902861E0	9.075976372E0	-5.880361795E-1
1.664253129E1	-2.845664263E0	9.497113228E0	1.142572835E-1
1.665093431E1	-2.052443504E0	9.684949875E0	4.289134443E-1
1.665933733E1	-1.326221943E0	1.001994514E1	4.845465720E-1
1.666774035E1	-8.560323119E-1	1.038485050E1	3.092723191E-1
1.667614337E1	-8.099704385E-1	1.046919727E1	4.648058116E-1
1.668454639E1	-8.003991842E-1	1.030229759E1	6.376872063E-1
1.669294941E1	-5.180460811E-1	1.016770172E1	8.410771489E-1
1.670135243E1	1.914258152E-1	1.014138031E1	7.591229677E-1
1.670975545E1	9.457631707E-1	1.034716320E1	6.795616150E-1
1.671815848E1	1.394417405E0	1.054995537E1	6.640082598E-1
1.672656150E1	1.466800332E0	1.053739262E1	6.610172391E-1
1.673496452E1	1.275374413E0	1.035314560E1	5.168496966E-1
1.674336754E1	1.001396298E0	1.020419216E1	4.055834413E-1
1.675177056E1	8.763712645E-1	1.017906761E1	2.111666054E-1
1.676017358E1	8.392825127E-1	1.021436119E1	2.446661144E-1
1.676857660E1	1.030708313E0	1.022632599E1	3.361915946E-1
1.677697962E1	1.314257860E0	1.022273636E1	3.074777126E-1
1.678538264E1	1.611566067E0	1.015035343E1	3.116651475E-1
1.679378566E1	1.945364833E0	9.969097137E0	3.804588020E-1
1.680218868E1	2.290529490E0	9.732806206E0	5.090730190E-1
1.681059170E1	2.575873613E0	9.544969559E0	6.442674994E-1
1.681899472E1	2.778665304E0	9.401400566E0	3.804588020E-1
1.682739775E1	2.934198856E0	9.495318413E0	8.315058798E-2
1.683580077E1	3.144168854E0	9.708877563E0	1.100698411E-1
1.684420379E1	3.247658491E0	9.766903877E0	3.577269912E-1
1.685260681E1	3.059821844E0	9.568898201E0	4.474578202E-1
1.686100983E1	2.692523718E0	9.360123634E0	2.422732860E-1
1.686941285E1	2.371885538E0	9.284749985E0	2.201396823E-1
1.687781587E1	2.151745796E0	9.181859016E0	3.547359705E-1
1.688621889E1	2.011765718E0	9.050851822E0	3.954139352E-1
1.689462191E1	1.868196249E0	9.005388260E0	3.379862010E-1
1.690302493E1	1.795813441E0	9.025128365E0	4.199403822E-1
1.691142795E1	1.969891191E0	8.874979019E0	7.477570772E-1
1.691983098E1	2.624328136E0	8.558527946E0	6.227321029E-1
1.692823400E1	3.681955814E0	8.629117012E0	1.543370634E-1
1.693663702E1	4.637290478E0	9.168100357E0	1.232303679E-1
1.694504004E1	4.895715237E0	9.610174179E0	1.764706671E-1
1.695344306E1	4.478765965E0	9.714859962E0	2.398804724E-1
1.696184608E1	4.010370731E0	9.494720459E0	2.883351147E-1
1.697024910E1	4.100101471E0	9.244669914E0	1.776670814E-1
1.697865212E1	4.905884743E0	9.199805260E0	1.794616925E-3
1.698705514E1	7.087540627E0	1.080718327E1	-1.255035520E0
1.699545816E1	8.814560890E0	1.480319691E1	1.956132501E-1
1.700386118E1	5.992824078E0	1.713021660E1	3.655036688E0
1.701226420E1	-1.318445325E0	1.486002636E1	3.819543123E0
1.702066722E1	-9.804591179E0	9.934999466E0	1.640279889E0
1.702907025E1	-1.380957794E1	5.267200947E0	-2.380260229E0
1.703747327E1	-9.956535339E0	4.312464714E0	-3.680759430E0
1.704587629E1	-4.095914364E0	6.793821812E0	-1.699502230E0
1.705427931E1	7.004988194E-1	1.021974564E1	2.548356056E-1
1.706268233E1	4.402195454E0	1.255334568E1	1.070189953E0
1.707108535E1	5.495715618E0	1.204846001E1	1.473978758E0
1.707948837E1	3.533600807E0	1.038425159E1	1.511665702E0
1.708789139E1	7.537391037E-2	9.467801094E0	5.078766346E-1
1.709629441E1	-2.810968399E0	9.315856934E0	-5.958128572E-1
1.710469743E1	-3.385245800E0	9.600603104E0	-8.488538265E-1
1.711310045E1	-1.636092424E0	1.013958549E1	-2.997010350E-1
1.712150348E1	3.852444589E-1	1.045005512E1	4.175475538E-1
1.712990650E1	6.825526357E-1	1.030409241E1	6.867401004E-1
1.713830952E1	-4.325026870E-1	1.001336479E1	7.106683254E-1
1.714671254E1	-1.592423439E0	9.692128181E0	9.403793216E-1
1.715511556E1	-1.774876237E0	9.342776299E0	1.537986755E0
1.716351858E1	-9.332008362E-1	9.267401695E0	2.070987940E0
1.717192160E1	2.871387079E-2	9.521040916E0	2.109273195E0
1.718032462E1	6.323033571E-1	9.897313118E0	1.643270969E0
1.718872764E1	7.944171429E-1	1.006600666E1	1.230509043E0
1.719713066E1	6.550351977E-1	9.954142570E0	1.121037364E0
1.720553368E1	3.385843933E-1	9.789037704E0	1.030708313E0
1.721393670E1	1.692921966E-1	9.817750931E0	8.021938205E-1
1.722233972E1	3.613162339E-1	1.000439167E1	7.866404653E-1
1.723074275E1	6.723831892E-1	1.009352398E1	9.367900491E-1
1.723914577E1	7.046862841E-1	9.991828918E0	9.469595551E-1
1.724754879E1	3.086741269E-1	9.817750931E0	1.086939692E0
1.725595181E1	-1.393819153E-1	9.690333366E0	9.876375198E-1
1.726435483E1	-2.458625287E-1	9.717252731E0	6.825526357E-1
1.727275785E1	1.016949639E-1	9.853045464E0	5.150550604E-1
1.728116087E1	4.049852192E-1	9.936794281E0	8.482556343E-1
1.728956389E1	3.337987661E-1	9.847661972E0	1.222732425E0
1.729796691E1	-2.632104978E-2	9.723833084E0	1.146162033E0
