"Time (s)"	"Gyroscope x (rad/s)"	"Gyroscope y (rad/s)"	"Gyroscope z (rad/s)"
3.816212100E-2	3.054236295E-4	3.451287001E-2	6.566607859E-3
4.656514200E-2	-1.985253533E-3	4.703523964E-2	1.191152167E-2
5.496816300E-2	-4.581354442E-4	3.542914242E-2	3.665083554E-3
6.337118300E-2	-1.679830020E-3	1.588202827E-2	4.886778072E-3
7.177420400E-2	9.162708884E-4	5.803049076E-3	1.068982668E-2
8.017722500E-2	3.359660041E-3	-1.679830020E-3	9.773556143E-3
8.858024600E-2	4.123218823E-3	-4.581354558E-3	6.413896102E-3
9.698326700E-2	4.428642802E-3	4.581354442E-4	5.955760833E-3
1.053862880E-1	3.359660041E-3	5.650337320E-3	8.093725890E-3
1.137893080E-1	3.359660041E-3	7.635590620E-3	7.024743594E-3
1.221923290E-1	9.162708884E-4	5.955760833E-3	6.108472589E-3
1.305953500E-1	1.985253533E-3	1.114796288E-2	4.886778072E-3
1.389983710E-1	4.581354442E-4	1.756185852E-2	7.330167107E-3
1.474013920E-1	-4.581354442E-4	1.817270555E-2	7.024743594E-3
1.558044130E-1	1.068982761E-3	1.481304597E-2	7.024743594E-3
1.642074330E-1	9.162708884E-4	9.620844387E-3	9.315420873E-3
1.726104540E-1	3.054236295E-3	6.261184346E-3	9.926267900E-3
1.810134750E-1	2.901524538E-3	6.108472589E-3	1.038440317E-2
1.894164960E-1	2.290677279E-3	1.130067464E-2	1.206423342E-2
1.978195170E-1	4.428642802E-3	1.649287529E-2	1.313321572E-2
2.062225380E-1	3.206948051E-3	1.740914769E-2	1.313321572E-2
2.146255580E-1	3.206948051E-3	1.496575773E-2	1.511846948E-2
2.230285790E-1	1.985253533E-3	1.206423342E-2	1.679829881E-2
2.314316000E-1	1.068982761E-3	1.206423342E-2	1.771457121E-2
2.398346210E-1	7.635590737E-4	1.679829881E-2	1.863084175E-2
2.482376420E-1	6.108472589E-4	1.939439960E-2	2.046338283E-2
2.566406630E-1	6.108472589E-4	1.832541823E-2	2.153236605E-2
2.650436830E-1	2.596100792E-3	1.740914769E-2	2.244863659E-2
2.734467040E-1	3.206948051E-3	1.282779220E-2	2.336490713E-2
2.818497250E-1	2.137965523E-3	1.068982668E-2	2.535016090E-2
2.902527460E-1	2.290677279E-3	6.413896102E-3	2.443389036E-2
2.986557670E-1	1.985253533E-3	9.009997360E-3	2.351761982E-2
3.070587880E-1	4.581354442E-4	1.007897966E-2	2.412846684E-2
3.154618080E-1	-2.748812549E-3	1.420219894E-2	2.290677279E-2
3.238648290E-1	-1.832541777E-3	1.847812906E-2	2.290677279E-2
3.322678500E-1	-6.108472589E-4	2.015795931E-2	2.367033064E-2
3.406708710E-1	-7.635590737E-4	1.908897609E-2	2.183778957E-2
3.490738920E-1	-1.679830020E-3	1.496575773E-2	2.183778957E-2
3.574769130E-1	-1.679830020E-3	1.252236869E-2	1.863084175E-2
3.658799330E-1	-1.985253533E-3	1.236965694E-2	1.801999472E-2
3.742829540E-1	-1.679830020E-3	1.450762246E-2	1.679829881E-2
3.826859750E-1	-2.596100792E-3	2.153236605E-2	1.679829881E-2
3.910889960E-1	-3.512371797E-3	3.023693897E-2	1.450762246E-2
3.994920170E-1	-4.275931045E-3	3.481829539E-2	1.068982668E-2
4.078950380E-1	-4.275931045E-3	3.176405653E-2	1.068982668E-2
4.162980580E-1	-2.290677279E-3	2.916795574E-2	1.145338640E-2
4.247010790E-1	1.374406274E-3	2.962609194E-2	1.313321572E-2
4.331041000E-1	4.275931045E-3	2.794626169E-2	1.450762246E-2
4.415071210E-1	3.359660041E-3	2.794626169E-2	1.649287529E-2
4.499101420E-1	6.108472589E-3	2.794626169E-2	2.122694254E-2
4.583131630E-1	9.162709117E-3	2.580829710E-2	2.473931387E-2
4.667161830E-1	1.145338640E-2	1.634016447E-2	3.008422814E-2
4.751192040E-1	1.160609815E-2	1.023169141E-2	3.191677108E-2
4.835222250E-1	1.160609815E-2	8.399149403E-3	3.787253052E-2
4.919252460E-1	1.298050396E-2	3.512371797E-3	4.153761268E-2
5.003282670E-1	1.206423342E-2	3.206948051E-3	4.260659590E-2
5.087312880E-1	1.221694518E-2	6.719320081E-3	4.627167806E-2
5.171343080E-1	1.236965694E-2	1.756185852E-2	4.627167806E-2
5.255373290E-1	1.252236869E-2	2.901524492E-2	4.856235534E-2
5.339403500E-1	1.130067464E-2	2.901524492E-2	5.238015205E-2
5.423433710E-1	1.145338640E-2	2.290677279E-2	5.451811850E-2
5.507463920E-1	1.267508045E-2	1.038440317E-2	5.497625470E-2
5.591494130E-1	1.267508045E-2	8.093725890E-3	5.803048983E-2
5.675524330E-1	1.343864016E-2	9.009997360E-3	6.016845629E-2
5.759554540E-1	1.389677543E-2	1.313321572E-2	5.971032009E-2
5.843584750E-1	1.252236869E-2	2.061609551E-2	5.971032009E-2
5.927614960E-1	1.068982668E-2	3.023693897E-2	6.215370819E-2
6.011645170E-1	1.053711493E-2	3.283303976E-2	6.154286116E-2
6.095675380E-1	8.551862091E-3	3.329117596E-2	6.230641901E-2
6.179705580E-1	6.413896102E-3	3.741439432E-2	6.444438547E-2
6.263735790E-1	5.803049076E-3	4.046862945E-2	6.658235192E-2
6.347766000E-1	4.886778072E-3	4.260659590E-2	6.826218218E-2
6.431796210E-1	2.596100792E-3	3.955236077E-2	6.826218218E-2
6.515826420E-1	2.748812549E-3	2.626643144E-2	6.734590977E-2
6.599856630E-1	4.123218823E-3	8.704573847E-3	6.566607952E-2
6.683886830E-1	1.527118147E-3	-7.635590620E-3	6.780404598E-2
6.767917040E-1	-1.679830020E-3	-1.252236869E-2	6.322269142E-2
6.851947250E-1	-3.054236295E-3	-2.443389036E-3	5.573981255E-2
6.935977460E-1	-2.443389036E-3	1.634016447E-2	5.222744122E-2
7.020007670E-1	-4.734066315E-3	2.382304333E-2	5.070032179E-2
7.104037880E-1	-6.872031838E-3	1.557660475E-2	4.734066129E-2
7.188068080E-1	-1.160609815E-2	3.512371797E-3	4.779879749E-2
7.272098290E-1	-1.343864016E-2	-2.901524538E-3	4.917320609E-2
7.356128500E-1	-1.649287529E-2	-1.679830020E-3	4.947862774E-2
7.440158710E-1	-1.649287529E-2	-9.162708884E-4	5.329642445E-2
7.524188920E-1	-2.122694254E-2	-6.108472589E-4	5.833591148E-2
7.608219130E-1	-2.702999115E-2	1.527118147E-3	6.352811307E-2
7.692249330E-1	-3.344388679E-2	1.511846948E-2	7.192726433E-2
7.776279540E-1	-3.802524135E-2	3.512371704E-2	7.941014320E-2
7.860309750E-1	-4.535540938E-2	5.176930502E-2	8.903098851E-2
7.944339960E-1	-5.070032179E-2	6.642963737E-2	1.009425074E-1
8.028370170E-1	-5.726693198E-2	8.414421231E-2	1.215586066E-1
8.112400380E-1	-6.459710002E-2	1.010952219E-1	1.417165697E-1
8.196430580E-1	-6.780404598E-2	1.165191159E-1	1.637070626E-1
8.280460790E-1	-7.345438004E-2	1.322484314E-1	1.847812980E-1
8.364491000E-1	-8.063183725E-2	1.418692768E-1	2.086043358E-1
8.448521210E-1	-8.582404256E-2	1.530172378E-1	2.344126403E-1
8.532551420E-1	-8.704573661E-2	1.646233350E-1	2.577775419E-1
8.616581630E-1	-9.055810422E-2	1.728697717E-1	2.829749882E-1
8.700611830E-1	-9.544488788E-2	1.728697717E-1	3.100049794E-1
8.784642040E-1	-9.605573118E-2	1.609582454E-1	3.367295563E-1
8.868672250E-1	-9.483403713E-2	1.409530044E-1	3.585673273E-1
8.952702460E-1	-9.559759498E-2	1.175880954E-1	3.779617548E-1
9.036732670E-1	-9.880454093E-2	9.513945878E-2	3.982724249E-1
9.120762880E-1	-1.000262350E-1	7.452336699E-2	4.187358022E-1
9.204793080E-1	-1.043021679E-1	6.597150117E-2	4.332434237E-1
9.288823290E-1	-1.091889441E-1	7.085828483E-2	4.459185004E-1
9.372853500E-1	-1.133121699E-1	8.231166750E-2	4.566083252E-1
9.456883710E-1	-1.198787764E-1	9.361234307E-2	4.622586668E-1
9.540913920E-1	-1.284306347E-1	1.073564067E-1	4.645493329E-1
9.624944130E-1	-1.351499557E-1	1.211004704E-1	4.639385045E-1
9.708974330E-1	-1.411057115E-1	1.392731816E-1	4.616478086E-1
9.793004540E-1	-1.467560530E-1	1.591257155E-1	4.550811946E-1
9.877034750E-1	-1.542389393E-1	1.702736765E-1	4.424061179E-1
9.961064960E-1	-1.638597846E-1	1.763821393E-1	4.233171642E-1
1.004509517E0	-1.740914732E-1	1.733279079E-1	4.062134326E-1
1.012912538E0	-1.811162084E-1	1.687465608E-1	3.943018913E-1
1.021315558E0	-1.908897758E-1	1.777565479E-1	3.788780272E-1
1.029718579E0	-2.057028115E-1	2.011214644E-1	3.614688516E-1
1.038121600E0	-2.174616307E-1	2.215848416E-1	3.466558158E-1
1.046524621E0	-2.250972092E-1	2.275405973E-1	3.342861533E-1
1.054927642E0	-2.426590770E-1	2.053973973E-1	3.358132839E-1
1.063330663E0	-2.608317733E-1	1.612636745E-1	3.396310806E-1
1.071733683E0	-2.730487287E-1	1.273616552E-1	3.425326049E-1
1.080136704E0	-2.783936262E-1	1.160609797E-1	3.341334462E-1
1.088539725E0	-2.675510943E-1	1.259872466E-1	3.184041381E-1
1.096942746E0	-2.518217862E-1	1.091889441E-1	3.051182032E-1
1.105345767E0	-2.551814318E-1	1.267508119E-1	2.939702570E-1
1.113748788E0	-2.669402659E-1	1.430909634E-1	2.860292196E-1
1.122151808E0	-2.428117841E-1	2.084516287E-1	2.728960216E-1
1.130554829E0	-2.183778882E-1	2.669402659E-1	2.649549842E-1
1.138957850E0	-2.449497581E-1	2.802261710E-1	2.567085624E-1
1.147360871E0	-2.774773538E-1	2.162399292E-1	2.370087355E-1
1.155763892E0	-2.834331393E-1	1.476723254E-1	2.112004459E-1
1.164166913E0	-2.988570333E-1	1.443126649E-1	1.940967143E-1
1.172569933E0	-3.164188862E-1	1.536280811E-1	1.827960461E-1
1.180972954E0	-3.300102353E-1	1.675248593E-1	1.716480851E-1
1.189375975E0	-3.437542915E-1	1.953184158E-1	1.579040140E-1
1.197778996E0	-3.432961702E-1	1.869192570E-1	1.507265568E-1
1.206182017E0	-3.324536085E-1	1.814216375E-1	1.560714692E-1
1.214585038E0	-3.332171738E-1	1.551551968E-1	1.635543555E-1
1.222988058E0	-3.350497186E-1	9.727742523E-2	1.632489264E-1
1.231391079E0	-3.271087110E-1	8.108997345E-2	1.672194302E-1
1.239794100E0	-3.220692277E-1	8.506047726E-2	1.727170646E-1
1.248197121E0	-3.008422852E-1	1.035386100E-1	1.760767251E-1
1.256600142E0	-2.857238054E-1	9.727742523E-2	1.826433241E-1
1.265003163E0	-2.744231224E-1	2.397575416E-2	1.960819662E-1
1.273406183E0	-2.539597452E-1	-5.344913527E-2	2.021904439E-1
1.281809204E0	-2.347180545E-1	-9.849911928E-2	2.023431510E-1
1.290212225E0	-2.061609477E-1	-1.414111406E-1	2.026485801E-1
1.298615246E0	-1.875301152E-1	-1.818797737E-1	1.992889196E-1
1.307018267E0	-1.791309565E-1	-2.066190839E-1	1.817270666E-1
1.315421288E0	-1.681357026E-1	-2.124221325E-1	1.598892659E-1
1.323824308E0	-1.605001241E-1	-1.588202864E-1	1.293469071E-1
1.332227329E0	-1.542389393E-1	-1.175880954E-1	9.147437662E-2
1.340630350E0	-1.382041872E-1	-1.235438585E-1	5.390727147E-2
1.349033371E0	-1.269035190E-1	-1.655396074E-1	3.069507517E-2
1.357436392E0	-1.096470803E-1	-2.009687424E-1	1.359135192E-2
1.365839413E0	-9.223793447E-2	-2.591519356E-1	6.108472589E-4
1.374242433E0	-7.253811508E-2	-3.185568452E-1	-2.000524849E-2
1.382645454E0	-5.207473040E-2	-3.196258247E-1	-5.115845799E-2
1.391048475E0	-3.237490356E-2	-3.081724346E-1	-8.261708915E-2
1.399451496E0	-2.076880634E-2	-3.283303976E-1	-1.061347127E-1
1.407854517E0	-1.939439960E-2	-3.669664860E-1	-1.183516532E-1
1.416257538E0	-1.282779220E-2	-4.094203711E-1	-1.195733473E-1
1.424660558E0	-3.359660041E-3	-4.324798584E-1	-1.035386100E-1
1.433063579E0	1.832541777E-3	-4.378247857E-1	-8.231166750E-2
1.441466600E0	7.024743594E-3	-4.034646153E-1	-6.642963737E-2
1.449869621E0	1.359135192E-2	-3.329117596E-1	-4.795150831E-2
1.458272642E0	1.252236869E-2	-2.771719396E-1	-3.619270027E-2
1.466675663E0	8.704573847E-3	-2.565558553E-1	-2.382304333E-2
1.475078683E0	3.970507067E-3	-2.425063550E-1	3.054236295E-4
1.483481704E0	5.803049076E-3	-2.365505993E-1	2.428117767E-2
1.491884725E0	7.635590620E-3	-2.418955117E-1	4.871506989E-2
1.500287746E0	5.650337320E-3	-2.353289127E-1	7.666133344E-2
1.508690767E0	2.596100792E-3	-2.104368806E-1	9.865183383E-2
1.517093788E0	5.192201585E-3	-1.521009654E-1	1.084253863E-1
1.525496808E0	4.428642802E-3	-9.437590092E-2	1.149920002E-1
1.533899829E0	1.053711493E-2	-7.910472155E-2	1.236965731E-1
1.542302850E0	1.145338640E-2	-9.116895497E-2	1.411057115E-1
1.550705871E0	1.511846948E-2	-1.015533581E-1	1.556133330E-1
1.559108892E0	2.092151903E-2	-9.315420687E-2	1.643179059E-1
1.567511913E0	2.657185495E-2	-7.589777559E-2	1.710372269E-1
1.575914933E0	3.497100621E-2	-7.635590434E-2	1.733279079E-1
1.584317954E0	4.230117425E-2	-8.353336155E-2	1.713426560E-1
1.592720975E0	4.764608666E-2	-8.887827396E-2	1.699682474E-1
1.601123996E0	5.421269313E-2	-1.024696305E-1	1.719534993E-1
1.609527017E0	6.413896382E-2	-1.133121699E-1	1.751604527E-1
1.617930038E0	7.941014320E-2	-1.091889441E-1	1.656923145E-1
1.626333058E0	9.819369763E-2	-8.872556686E-2	1.516428292E-1
1.634736079E0	1.142284349E-1	-6.948387623E-2	1.437018216E-1
1.643139100E0	1.278197914E-1	-5.986303091E-2	1.388150454E-1
1.651542121E0	1.380514801E-1	-6.291726977E-2	1.357607991E-1
1.659945142E0	1.478250325E-1	-5.772506446E-2	1.322484314E-1
1.668348163E0	1.507265568E-1	-3.054236248E-2	1.214058921E-1
1.676751183E0	1.580567211E-1	-4.581354442E-4	1.107160673E-1
1.685154204E0	1.663031727E-1	1.374406274E-3	1.043021679E-1
1.693557225E0	1.719534993E-1	-4.123218823E-3	1.012479365E-1
1.701960246E0	1.771457046E-1	1.679830020E-3	1.024696305E-1
1.710363267E0	1.769929975E-1	2.137965336E-2	1.055238619E-1
1.718766288E0	1.823379099E-1	2.916795574E-2	1.036913246E-1
1.727169308E0	1.817270666E-1	2.993151546E-2	1.120904684E-1
1.735572329E0	1.803526580E-1	2.580829710E-2	1.258345395E-1
1.743975350E0	1.795890927E-1	3.481829539E-2	1.282779276E-1
1.752378371E0	1.718007922E-1	4.688252881E-2	1.185043678E-1
1.760781392E0	1.747023165E-1	1.969982497E-2	9.575030953E-2
1.769184413E0	1.786728203E-1	-1.527118147E-4	8.582404256E-2
1.777587433E0	1.782146841E-1	-2.932066843E-2	8.796200156E-2
1.785990454E0	1.808107942E-1	-5.100574717E-2	7.788302749E-2
1.794393475E0	1.849340051E-1	-3.619270027E-2	6.337540597E-2
1.802796496E0	1.881409585E-1	-1.527118147E-3	5.344913527E-2
1.811199517E0	1.878355294E-1	1.832541823E-2	4.810422286E-2
1.819602538E0	1.861557066E-1	1.328592747E-2	5.283828825E-2
1.828005558E0	1.824906170E-1	-1.527118147E-4	6.383354217E-2
1.836408579E0	1.724116355E-1	-3.313846514E-2	8.353336155E-2
1.844811600E0	1.696628332E-1	-7.040014863E-2	1.053711548E-1
1.853214621E0	1.724116355E-1	-4.031591862E-2	1.212531775E-1
1.861617642E0	1.849340051E-1	7.467607409E-2	1.366770715E-1
1.870020663E0	1.985253543E-1	1.875301152E-1	1.452289373E-1
1.878423683E0	1.980672181E-1	2.250972092E-1	1.458397806E-1
1.886826704E0	2.021904439E-1	1.954711229E-1	1.433963925E-1
1.895229725E0	2.151709497E-1	1.675248593E-1	1.511846930E-1
1.903632746E0	2.211267054E-1	1.501157135E-1	1.557660550E-1
1.912035767E0	2.173089087E-1	1.194206402E-1	1.511846930E-1
1.920438788E0	2.145601064E-1	1.047603041E-1	1.517955512E-1
1.928841808E0	2.145601064E-1	9.513945878E-2	1.432436854E-1
1.937244829E0	2.142546773E-1	9.345962852E-2	1.128540337E-1
1.945647850E0	2.165453583E-1	1.038440317E-1	6.780404598E-2
1.954050871E0	2.186833173E-1	9.254335612E-2	2.122694254E-2
1.962453892E0	2.166980654E-1	1.084253844E-2	-1.007897966E-2
1.970856913E0	2.024958730E-1	-1.159082651E-1	-4.886778072E-3
1.979259933E0	1.763821393E-1	-2.112004459E-1	6.978929788E-2
1.987662954E0	1.537808031E-1	-2.212794125E-1	1.800472289E-1
1.996065975E0	1.331647038E-1	-1.466033459E-1	2.765611112E-1
2.004468996E0	1.020114943E-1	-3.756710514E-2	3.297048211E-1
2.012872017E0	9.544488788E-2	4.840964451E-2	3.776563108E-1
2.021275038E0	9.681928903E-2	1.183516532E-1	4.475983381E-1
2.029678058E0	8.948912472E-2	2.089097649E-1	5.059342384E-1
2.038081079E0	6.719319522E-2	2.918322682E-1	5.370874405E-1
2.046484100E0	6.230641901E-2	3.910949528E-1	5.523586273E-1
2.054887121E0	7.452336699E-2	5.073086619E-1	5.638120174E-1
2.063290142E0	7.620319724E-2	6.270347238E-1	5.538857579E-1
2.071693163E0	5.971032009E-2	7.047650218E-1	4.926483035E-1
2.080096183E0	5.070032179E-2	7.207997441E-1	3.987305462E-1
2.088499204E0	4.504998401E-2	6.989619732E-1	2.980934680E-1
2.096902225E0	5.925218388E-2	7.284353375E-1	1.586675793E-1
2.105305246E0	7.391251624E-2	8.066238165E-1	-8.460234851E-2
2.113708267E0	8.261708915E-2	7.322531343E-1	-2.487675399E-1
2.122111288E0	9.865183383E-2	5.712949038E-1	-3.133646548E-1
2.130514308E0	1.185043678E-1	4.527905285E-1	-4.031592011E-1
2.138917329E0	1.160609797E-1	4.335488379E-1	-5.257867575E-1
2.147320350E0	1.078145429E-1	4.010212123E-1	-6.325323582E-1
2.155723371E0	1.010952219E-1	3.671191931E-1	-7.391251922E-1
2.164126392E0	1.024696305E-1	3.495573401E-1	-8.347227573E-1
2.172529413E0	9.956810623E-2	2.941229641E-1	-8.932114244E-1
2.180932433E0	8.689302206E-2	2.023431510E-1	-9.228374958E-1
2.189335454E0	7.162184268E-2	9.636115283E-2	-9.504783154E-1
2.197738475E0	8.399149776E-2	1.832541777E-3	-9.807152748E-1
2.206141496E0	1.356080920E-1	-1.000262350E-1	-1.004080176E0
2.214544517E0	1.513374150E-1	-2.328855246E-1	-1.019656777E0
2.222947538E0	1.143811494E-1	-3.636068404E-1	-1.034164429E0
2.231350558E0	6.169557199E-2	-4.819584787E-1	-1.014464617E0
2.239753579E0	4.046862945E-2	-5.893148780E-1	-9.274188280E-1
2.248156600E0	3.909422457E-2	-6.135960817E-1	-8.142594099E-1
2.256559621E0	4.993676394E-2	-4.297310412E-1	-7.988355160E-1
2.264962642E0	5.650337040E-2	-1.737860441E-1	-9.152019024E-1
2.273365663E0	4.275930673E-2	-7.146912813E-2	-1.010341406E0
2.281768683E0	2.397575416E-2	-5.467082933E-2	-1.032484531E0
2.290171704E0	1.801999472E-2	-1.327065676E-1	-9.654440880E-1
2.298574725E0	2.489202656E-2	-2.701472044E-1	-8.919897079E-1
2.306977746E0	2.626643144E-2	-3.837648034E-1	-8.785510659E-1
2.315380767E0	1.007897966E-2	-4.398100376E-1	-8.955020905E-1
2.323783788E0	-4.428642802E-3	-4.622586668E-1	-8.773293495E-1
2.332186808E0	-2.947338112E-2	-4.459185004E-1	-8.353336453E-1
2.340589829E0	-5.207473040E-2	-4.049917459E-1	-8.021951914E-1
2.348992850E0	-6.612421572E-2	-3.959817290E-1	-7.673768401E-1
2.357395871E0	-8.826743066E-2	-4.358395338E-1	-7.076665759E-1
2.365798892E0	-1.072036922E-1	-4.782933891E-1	-6.184828281E-1
2.374201913E0	-9.910997003E-2	-4.744756222E-1	-5.412106514E-1
2.382604933E0	-9.223793447E-2	-4.411844313E-1	-4.802786708E-1
2.391007954E0	-1.032331884E-1	-4.417952895E-1	-4.123218954E-1
2.399410975E0	-1.317902952E-1	-4.384356141E-1	-3.416163325E-1
2.407813996E0	-1.412584335E-1	-4.349232614E-1	-2.422009408E-1
2.416217017E0	-1.235438585E-1	-4.063661397E-1	-1.174353883E-1
2.424620038E0	-1.218640283E-1	-3.365768492E-1	-1.679830020E-3
2.433023058E0	-1.771457046E-1	-3.315373361E-1	1.340809762E-1
2.441426079E0	-2.918322682E-1	-4.034646153E-1	3.304683566E-1
2.449829100E0	-4.130854607E-1	-3.668137789E-1	5.079194903E-1
2.458232121E0	-4.575245976E-1	2.806843221E-1	3.368822634E-1
2.466635142E0	-4.547757804E-1	1.281710267E0	-1.249182671E-1
2.475038163E0	-3.944546282E-1	1.805359125E0	-4.078932703E-1
2.483441183E0	-3.295520842E-1	1.459924936E0	-2.405211031E-1
2.491844204E0	-3.614688516E-1	3.872771561E-1	1.934858710E-1
2.500247225E0	-3.458922505E-1	-8.597674966E-1	4.619532526E-1
2.508650246E0	-3.052709103E-1	-1.639361382E0	5.108210444E-1
2.517053267E0	-3.651339412E-1	-1.443584800E0	4.679090083E-1
2.525456288E0	-4.624113739E-1	-5.616740584E-1	3.965925872E-1
2.533859308E0	-4.750864506E-1	3.323009014E-1	3.031329513E-1
2.542262329E0	-4.031592011E-1	8.360971808E-1	2.089097649E-1
2.550665350E0	-3.755183518E-1	8.502993584E-1	1.727170646E-1
2.559068371E0	-3.999522328E-1	5.928272605E-1	2.073826492E-1
2.567471392E0	-3.910949528E-1	2.864873707E-1	2.748812735E-1
2.575874413E0	-3.177932799E-1	9.208522737E-2	3.428380191E-1
2.584277433E0	-2.641914487E-1	-4.947862774E-2	3.581092060E-1
2.592680454E0	-2.466295809E-1	-1.627907902E-1	3.443651497E-1
2.601083475E0	-2.423536479E-1	-1.369825006E-1	3.324536085E-1
2.609486496E0	-2.383831441E-1	9.773556143E-3	3.151971996E-1
2.617889517E0	-2.298312783E-1	1.589729935E-1	2.684673667E-1
2.626292538E0	-2.212794125E-1	2.609844804E-1	2.261662036E-1
2.634695558E0	-2.218902707E-1	2.785463631E-1	2.179197669E-1
2.643098579E0	-2.157817930E-1	2.273878902E-1	2.283041626E-1
2.651501600E0	-2.079934925E-1	1.417165697E-1	2.435753495E-1
2.659904621E0	-1.948602796E-1	7.498150319E-2	2.466295809E-1
2.668307642E0	-1.820324808E-1	5.818320066E-2	2.319692522E-1
2.676710663E0	-1.782146841E-1	6.612421572E-2	2.064663768E-1
2.685113683E0	-1.675248593E-1	5.528167635E-2	1.772984117E-1
2.693516704E0	-1.481304616E-1	2.489202656E-2	1.562241912E-1
2.701919725E0	-1.269035190E-1	-1.832541823E-2	1.574458778E-1
2.710322746E0	-1.072036922E-1	-3.863608837E-2	1.498102844E-1
2.718725767E0	-8.597674966E-2	-4.489727318E-2	1.316375881E-1
2.727128788E0	-7.223268598E-2	-5.604523420E-2	1.107160673E-1
2.735531808E0	-5.894676223E-2	-4.749337584E-2	9.193251282E-2
2.743934829E0	-5.039490014E-2	-3.741439432E-2	7.269082218E-2
2.752337850E0	-4.169032723E-2	-5.253286287E-2	5.467082933E-2
2.760740871E0	-4.123219103E-2	-9.040539712E-2	4.886778072E-2
2.769143892E0	-3.909422457E-2	-1.183516532E-1	5.314370990E-2
2.777546913E0	-3.542914242E-2	-1.351499557E-1	4.840964451E-2
2.785949933E0	-3.359659761E-2	-1.163664013E-1	3.237490356E-2
2.794352954E0	-3.497100621E-2	-8.750387281E-2	1.710372418E-2
2.802755975E0	-3.206948191E-2	-6.505523622E-2	1.175880991E-2
2.811158996E0	-3.451287001E-2	-3.924693540E-2	2.183778957E-2
2.819562017E0	-3.771981969E-2	-4.306473210E-2	3.130592033E-2
2.827965038E0	-4.214845970E-2	-7.253811508E-2	3.955236077E-2
2.836368058E0	-4.734066129E-2	-7.345438004E-2	6.093201414E-2
2.844771079E0	-4.077405483E-2	-5.100574717E-2	8.811471611E-2
2.853174100E0	-3.054236248E-2	-3.481829539E-2	1.079672500E-1
2.861577121E0	-2.443389036E-2	-2.901524492E-2	1.143811494E-1
2.869980142E0	-1.786728203E-2	-2.443389036E-2	1.258345395E-1
2.878383163E0	-1.496575773E-2	-2.977880463E-2	1.501157135E-1
2.886786183E0	-3.359660041E-3	-4.871506989E-2	1.835595965E-1
2.895189204E0	1.038440317E-2	-7.055285573E-2	2.221956849E-1
2.903592225E0	2.076880634E-2	-8.872556686E-2	2.622061968E-1
2.911995246E0	2.779355086E-2	-8.521319181E-2	2.980934680E-1
2.920398267E0	3.741439432E-2	-6.474980712E-2	3.266505599E-1
2.928801288E0	5.054761097E-2	-3.206948191E-2	3.434488773E-1
2.937204308E0	7.162184268E-2	1.374406274E-3	3.533751369E-1
2.945607329E0	8.918370306E-2	1.527118147E-3	3.617742956E-1
2.954010350E0	9.956810623E-2	-1.817270555E-2	3.715478480E-1
2.962413371E0	1.101052165E-1	-4.077405483E-2	3.791834414E-1
2.970816392E0	1.206423342E-1	-4.535540938E-2	3.855973184E-1
2.979219413E0	1.307213157E-1	-2.061609551E-2	3.889569938E-1
2.987622433E0	1.429382563E-1	8.093725890E-3	3.839175105E-1
2.996025454E0	1.586675793E-1	3.268032894E-2	3.761292100E-1
3.004428475E0	1.760767251E-1	5.635065958E-2	3.768927455E-1
3.012831496E0	1.944021434E-1	7.223268598E-2	3.778090179E-1
3.021234517E0	2.188360244E-1	6.856760383E-2	3.826957941E-1
3.029637538E0	2.567085624E-1	4.077405483E-2	3.915531039E-1
3.038040558E0	2.944283783E-1	-1.236965694E-2	3.997995257E-1
3.046443579E0	3.222219348E-1	-7.131642103E-2	4.008685052E-1
3.054846600E0	3.323009014E-1	-1.091889441E-1	3.891097009E-1
3.063249621E0	3.260397315E-1	-1.152974218E-1	3.761292100E-1
3.071652642E0	3.150444627E-1	-1.211004704E-1	3.683409095E-1
3.080055663E0	3.156553209E-1	-1.327065676E-1	3.500154912E-1
3.088458683E0	3.289412558E-1	-1.331647038E-1	2.948864996E-1
3.096861704E0	3.240544796E-1	-2.124221325E-1	2.557922900E-1
3.105264725E0	3.020639718E-1	-3.735330999E-1	2.735068500E-1
3.113667746E0	2.837385535E-1	-4.993676245E-1	3.791834414E-1
3.122070767E0	2.597627938E-1	-4.746283293E-1	5.676298141E-1
3.130473788E0	2.447970361E-1	-3.475720882E-1	7.366818190E-1
3.138876808E0	2.287622988E-1	-2.195995897E-1	8.493831158E-1
3.147279829E0	2.082989216E-1	-8.353336155E-2	9.188669920E-1
3.155682850E0	2.040229887E-1	6.337540597E-2	9.924740791E-1
3.164085871E0	2.142546773E-1	2.347180545E-1	1.073869467E0
3.172488892E0	1.963873953E-1	4.475983381E-1	1.123653531E0
3.180891913E0	1.491994411E-1	6.719319820E-1	1.104717255E0
3.189294933E0	1.328592747E-1	8.099834919E-1	1.067302823E0
3.197697954E0	1.217113137E-1	8.709154725E-1	1.019504070E0
3.206100975E0	8.353336155E-2	8.822161555E-1	9.542961121E-1
3.214503996E0	5.268557742E-2	8.396095634E-1	8.849649429E-1
3.222907017E0	5.192201585E-2	7.696675658E-1	8.057075143E-1
3.231310038E0	9.254335612E-2	7.499676943E-1	6.528429985E-1
3.239713058E0	1.105633527E-1	9.199360013E-1	3.515425920E-1
3.248116079E0	1.068982705E-1	1.052337170E0	4.825693369E-2
3.256519100E0	1.120904684E-1	1.002400398E0	-1.743968874E-1
3.264922121E0	1.423274130E-1	7.317950130E-1	-3.358132839E-1
3.273325142E0	1.832541823E-1	3.425326049E-1	-5.189147592E-1
3.281728163E0	2.035648525E-1	4.321744293E-2	-7.343910933E-1
3.290131183E0	1.934858710E-1	-1.403421611E-1	-9.104678631E-1
3.298534204E0	1.776038408E-1	-2.602209449E-1	-1.017671585E0
3.306937225E0	1.652341783E-1	-3.707842827E-1	-1.099219680E0
3.315340246E0	1.438545287E-1	-4.960079789E-1	-1.161220670E0
3.323743267E0	1.052184403E-1	-6.302416325E-1	-1.192221165E0
3.332146288E0	5.100574717E-2	-7.689039707E-1	-1.209935665E0
3.340549308E0	4.581354442E-4	-8.509102464E-1	-1.245975733E0
3.348952329E0	-3.695625812E-2	-8.751913905E-1	-1.283237338E0
3.357355350E0	-6.398624927E-2	-8.706100583E-1	-1.316528559E0
3.365758371E0	-7.421794534E-2	-8.512156606E-1	-1.358524323E0
3.374161392E0	-7.528692484E-2	-8.246437907E-1	-1.382500052E0
3.382564413E0	-7.956285775E-2	-7.950177193E-1	-1.373184681E0
3.390967433E0	-8.231166750E-2	-7.421793938E-1	-1.344627500E0
3.399370454E0	-6.200099736E-2	-6.488724947E-1	-1.338671803E0
3.407773475E0	-4.367557913E-2	-5.784723759E-1	-1.354706526E0
3.416176496E0	-4.993676394E-2	-5.534276366E-1	-1.355775476E0
3.424579517E0	-6.276455522E-2	-5.441122055E-1	-1.335159421E0
3.432982538E0	-6.581879407E-2	-5.541911721E-1	-1.313932419E0
3.441385558E0	-6.016845629E-2	-5.888567567E-1	-1.276365399E0
3.449788579E0	-5.436540768E-2	-6.039752364E-1	-1.215127945E0
3.458191600E0	-4.046862945E-2	-5.861079693E-1	-1.163969398E0
3.466594621E0	-3.298575059E-2	-5.743491650E-1	-1.131594539E0
3.474997642E0	-3.206948191E-2	-5.793886185E-1	-1.088377118E0
3.483400663E0	-3.069507517E-2	-5.613686442E-1	-1.041952729E0
3.491803683E0	-2.153236605E-2	-5.242596865E-1	-9.900307059E-1
3.500206704E0	-7.177455351E-3	-4.866925478E-1	-9.174925685E-1
3.508609725E0	-1.527118147E-3	-4.176668227E-1	-8.338065147E-1
3.517012746E0	1.511846948E-2	-3.301629424E-1	-7.324058414E-1
3.525415767E0	3.176405653E-2	-2.545706034E-1	-6.067240238E-1
3.533818788E0	3.191677108E-2	-1.733279079E-1	-4.787515402E-1
3.542221808E0	2.000524849E-2	-2.596100792E-3	-3.891097009E-1
3.550624829E0	7.177455351E-3	2.182251811E-1	-3.142809272E-1
3.559027850E0	-1.206423342E-2	4.268295169E-1	-2.551814318E-1
3.567430871E0	-4.581354558E-2	5.923691392E-1	-2.206685692E-1
3.575833892E0	-9.605573118E-2	6.684195995E-1	-1.743968874E-1
3.584236913E0	-2.017323077E-1	6.410841942E-1	-7.055285573E-2
3.592639933E0	-3.726168275E-1	4.581354558E-1	1.157555580E-1
3.601042954E0	-5.334223509E-1	4.500417113E-1	1.754658818E-1
3.609445975E0	-5.734328628E-1	8.984035850E-1	5.039489828E-3
3.617848996E0	-3.785725832E-1	1.365243673E0	-1.569877416E-1
3.626252017E0	-1.049130186E-1	1.392426372E0	-1.154501289E-1
3.634655038E0	-1.001789495E-1	6.048914790E-1	1.960819662E-1
3.643058058E0	-1.988307834E-1	-5.987830162E-1	4.900522232E-1
3.651461079E0	-2.475458533E-1	-1.441446781E0	6.416950226E-1
3.659864100E0	-2.838912606E-1	-1.526965380E0	6.952968836E-1
3.668267121E0	-3.293993771E-1	-9.141329527E-1	5.850389600E-1
3.676670142E0	-3.640649617E-1	-2.249445021E-1	3.973561525E-1
3.685073163E0	-3.924693763E-1	2.252499312E-1	2.916795611E-1
3.693476183E0	-3.897205591E-1	4.631749392E-1	3.034383655E-1
3.701879204E0	-3.466558158E-1	5.193728805E-1	3.333698809E-1
3.710282225E0	-2.970244884E-1	4.272876680E-1	3.385621011E-1
3.718685246E0	-2.777827978E-1	2.579302490E-1	3.368822634E-1
3.727088267E0	-2.657185495E-1	1.275143623E-1	3.347443044E-1
3.735491288E0	-2.221956849E-1	8.536590636E-2	2.974826097E-1
3.743894308E0	-1.667613089E-1	9.605573118E-2	2.608317733E-1
3.752297329E0	-1.296523362E-1	4.856235534E-2	2.635805905E-1
3.760700350E0	-1.067455560E-1	-6.642963737E-2	2.589992285E-1
3.769103371E0	-1.050657257E-1	-1.965401024E-1	2.437280566E-1
3.777506392E0	-1.252236813E-1	-2.577775419E-1	2.363978922E-1
3.785909413E0	-1.595838517E-1	-1.643179059E-1	2.220429778E-1
3.794312433E0	-1.927223057E-1	7.482878864E-3	1.852394342E-1
3.802715454E0	-2.079934925E-1	1.551551968E-1	1.348445266E-1
3.811118475E0	-2.093679011E-1	2.185306102E-1	1.075091213E-1
3.819521496E0	-2.066190839E-1	1.863084137E-1	1.055238619E-1
3.827924517E0	-1.666085869E-1	8.918370306E-2	1.181989461E-1
3.836327538E0	-1.188097894E-1	-5.360184610E-2	1.414111406E-1
3.844730558E0	-9.330692142E-2	-1.951656938E-1	1.762294322E-1
3.853133579E0	-8.032641560E-2	-2.602209449E-1	1.953184158E-1
3.861536600E0	-6.902574003E-2	-2.370087355E-1	1.818797737E-1
3.869939621E0	-5.879404768E-2	-1.563768983E-1	1.504211426E-1
3.878342642E0	-5.405998230E-2	-9.865183383E-2	1.276670843E-1
3.886745663E0	-4.871506989E-2	-6.383354217E-2	1.082726792E-1
3.895148683E0	-3.206948191E-2	-5.039490014E-2	9.773556143E-2
3.903551704E0	-1.969982497E-2	-4.184303805E-2	1.136175916E-1
3.911954725E0	-1.160609815E-2	-2.550287358E-2	1.298050433E-1
3.920357746E0	-2.443389036E-3	-1.404948719E-2	1.204896197E-1
3.928760767E0	3.054236295E-4	-5.192201585E-3	1.021642014E-1
3.937163788E0	-5.039489828E-3	1.160609815E-2	9.880454093E-2
3.945566808E0	-7.177455351E-3	2.260134928E-2	8.429691941E-2
3.953969829E0	-7.788302377E-3	2.748812735E-2	5.726693198E-2
3.962372850E0	-3.665083554E-3	5.192201585E-2	4.520269856E-2
3.970775871E0	-3.206948051E-3	7.024743408E-2	4.184303805E-2
3.979178892E0	-8.399149403E-3	6.536065787E-2	3.374931216E-2
3.987581913E0	-5.497625098E-3	3.222219273E-2	3.313846514E-2
3.995984933E0	-3.206948051E-3	-5.650337320E-3	4.764608666E-2
4.004387954E0	1.985253533E-3	-3.100049868E-2	6.704048812E-2
4.012790975E0	7.482878864E-3	-3.771981969E-2	7.834116369E-2
4.021193996E0	1.145338640E-2	-3.206948191E-2	8.994726092E-2
4.029597017E0	1.313321572E-2	-3.741439432E-2	1.033858955E-1
4.038000038E0	1.145338640E-2	-3.558185324E-2	1.185043678E-1
4.046403058E0	1.527118124E-2	-1.664558798E-2	1.345391124E-1
4.054806079E0	2.229592577E-2	-1.817270555E-2	1.566823274E-1
4.063209100E0	3.252761811E-2	-3.771981969E-2	1.849340051E-1
4.071612121E0	3.466558084E-2	-5.344913527E-2	2.101314515E-1
4.080015142E0	4.123219103E-2	-5.268557742E-2	2.286095917E-1
4.088418163E0	5.054761097E-2	-3.069507517E-2	2.409792393E-1
4.096821183E0	6.032116711E-2	-9.162709117E-3	2.507528067E-1
4.105224204E0	7.605048269E-2	1.801999472E-2	2.670929730E-1
4.113627225E0	8.933641016E-2	2.947338112E-2	2.924431264E-1
4.122030246E0	1.027750522E-1	1.572931744E-2	3.193204105E-1
4.130433267E0	1.125486046E-1	5.803049076E-3	3.422271907E-1
4.138836288E0	1.226275861E-1	2.733541466E-2	3.602471650E-1
4.147239308E0	1.337755471E-1	5.803048983E-2	3.781144619E-1
4.155642329E0	1.412584335E-1	7.543963939E-2	3.965925872E-1
4.164045350E0	1.458397806E-1	6.368082762E-2	4.010212123E-1
4.172448371E0	1.537808031E-1	2.137965336E-2	3.805578351E-1
4.180851392E0	1.649287641E-1	-7.742489129E-2	3.839175105E-1
4.189254413E0	1.797417998E-1	-1.546970755E-1	4.214846194E-1
4.197657433E0	1.931804419E-1	-1.905843467E-1	4.553866386E-1
4.206060454E0	2.115058601E-1	-1.724116355E-1	4.695888162E-1
4.214463475E0	2.432699203E-1	-1.049130186E-1	4.804313779E-1
4.222866496E0	2.738122940E-1	-5.054761097E-2	4.842491746E-1
4.231269517E0	2.906105816E-1	-3.771981969E-2	4.758500159E-1
4.239672538E0	2.895416021E-1	-2.687728032E-2	4.830274582E-1
4.248075558E0	2.895416021E-1	-3.038965166E-2	5.132644176E-1
4.256478579E0	2.919849753E-1	-5.558710173E-2	5.505260825E-1
4.264881600E0	2.971771955E-1	-8.811471611E-2	5.810684562E-1
4.273284621E0	3.019112647E-1	-1.101052165E-1	6.103891134E-1
4.281687642E0	2.959555089E-1	-1.221694499E-1	6.351284385E-1
4.290090663E0	2.811424434E-1	-1.246128380E-1	6.464291215E-1
4.298493683E0	2.649549842E-1	-1.003316641E-1	6.455128193E-1
4.306896704E0	2.550287247E-1	-8.139539510E-2	6.407787800E-1
4.315299725E0	2.501419485E-1	-8.231166750E-2	6.276455522E-1
4.323702746E0	2.374668717E-1	-1.371352077E-1	6.453601122E-1
4.332105767E0	2.055501044E-1	-1.753131598E-1	7.255338430E-1
4.340508788E0	1.869192570E-1	-1.505738497E-1	8.113578558E-1
4.348911808E0	1.769929975E-1	-9.804098308E-2	8.730534315E-1
4.357314829E0	1.572931707E-1	-5.329642445E-2	9.162709117E-1
4.365717850E0	1.443126649E-1	5.192201585E-3	9.536852837E-1
4.374120871E0	1.391204596E-1	7.192726433E-2	1.015228152E0
4.382523892E0	1.343863904E-1	1.918060333E-1	1.093111157E0
4.390926913E0	1.169772521E-1	3.909422457E-1	1.119377613E0
4.399329933E0	1.114796251E-1	6.209262609E-1	1.099677801E0
4.407732954E0	1.043021679E-1	8.422056437E-1	1.065164924E0
4.416135975E0	8.735115826E-2	1.010799527E0	1.015838981E0
4.424538996E0	6.016845629E-2	1.061652541E0	9.465078115E-1
4.432942017E0	3.283303976E-2	1.009425044E0	8.657232523E-1
4.441345038E0	2.382304333E-2	9.486457705E-1	7.750124335E-1
4.449748058E0	5.253286287E-2	1.066844702E0	5.431959033E-1
4.458151079E0	4.932591692E-2	1.203063726E0	2.585411072E-1
4.466554100E0	3.054236248E-2	1.190083146E0	6.658235192E-2
4.474957121E0	4.107947648E-2	1.024848938E0	-6.383354217E-2
4.483360142E0	6.505523622E-2	7.269082665E-1	-2.151709497E-1
4.491763163E0	1.050657257E-1	4.042281806E-1	-4.019374847E-1
4.500166183E0	1.345391124E-1	1.195733473E-1	-5.838172436E-1
4.508569204E0	1.409530044E-1	-4.596625641E-2	-7.559235096E-1
4.516972225E0	1.501157135E-1	-1.721062213E-1	-8.913788795E-1
4.525375246E0	1.785201132E-1	-2.877090573E-1	-1.008966923E0
4.533778267E0	2.133384049E-1	-3.848337829E-1	-1.112963676E0
4.542181288E0	2.363978922E-1	-5.041016936E-1	-1.174659252E0
4.550584308E0	2.153236568E-1	-6.139014959E-1	-1.226275921E0
4.558987329E0	1.791309565E-1	-7.009472251E-1	-1.310420036E0
4.567390350E0	1.562241912E-1	-8.058602214E-1	-1.377766013E0
4.575793371E0	1.420219839E-1	-9.002361298E-1	-1.407239318E0
4.584196392E0	1.084253863E-1	-9.553651214E-1	-1.440072417E0
4.592599413E0	6.933116168E-2	-9.854493141E-1	-1.487107635E0
4.601002433E0	3.252761811E-2	-1.016602516E0	-1.506196618E0
4.609405454E0	1.695101149E-2	-1.019198656E0	-1.482679009E0
4.617808475E0	1.236965694E-2	-9.649859667E-1	-1.452594757E0
4.626211496E0	1.374406368E-2	-8.646543026E-1	-1.455954432E0
4.634614517E0	5.650337320E-3	-7.275190949E-1	-1.488482118E0
4.643017538E0	3.359660041E-3	-5.883986354E-1	-1.485427856E0
4.651420558E0	1.252236869E-2	-4.465293586E-1	-1.451373100E0
4.659823579E0	1.007897966E-2	-3.355078697E-1	-1.398840189E0
4.668226600E0	8.093725890E-3	-2.652604282E-1	-1.360356808E0
4.676629621E0	2.122694254E-2	-2.206685692E-1	-1.340046167E0
4.685032642E0	3.191677108E-2	-2.057028115E-1	-1.302326322E0
4.693435663E0	2.137965336E-2	-2.374668717E-1	-1.227802992E0
4.701838683E0	2.031067200E-2	-2.874036431E-1	-1.127624035E0
4.710241704E0	3.390202299E-2	-2.501419485E-1	-1.054016948E0
4.718644725E0	4.443913698E-2	-1.354553849E-1	-1.015838981E0
4.727047746E0	3.161134571E-2	-3.405473381E-2	-9.558232427E-1
4.735450767E0	1.557660475E-2	5.146388337E-2	-8.832851648E-1
4.743853788E0	2.137965523E-3	8.964183182E-2	-8.078454733E-1
4.752256808E0	-7.635590737E-4	3.619270027E-2	-7.107207775E-1
4.760659829E0	-1.679830020E-3	-6.734590977E-2	-5.957288146E-1
4.769062850E0	-1.099525020E-2	-2.046338320E-1	-4.735593498E-1
4.777465871E0	-4.046862945E-2	-3.083251417E-1	-3.564293683E-1
4.785868892E0	-7.467607409E-2	-3.724641204E-1	-2.298312783E-1
4.794271913E0	-9.513945878E-2	-3.857500553E-1	-9.575030953E-2
4.802674933E0	-1.247655526E-1	-3.460449576E-1	3.787253052E-2
4.811077954E0	-1.337755471E-1	-2.603736520E-1	1.608055383E-1
4.819480975E0	-1.032331884E-1	-6.551336497E-2	2.116585821E-1
4.827883996E0	-1.178935245E-1	2.144073844E-1	1.603474021E-1
4.836287017E0	-1.997470558E-1	6.562026739E-1	-1.206423342E-2
4.844690038E0	-2.611372173E-1	1.159388065E0	-2.090624720E-1
4.853093058E0	-2.576248348E-1	1.214975238E0	-1.846285909E-1
4.861496079E0	-2.141019702E-1	7.015580535E-1	7.589777559E-2
4.869899100E0	-1.537808031E-1	-1.101052165E-1	3.297048211E-1
4.878302121E0	-1.165191159E-1	-7.363763452E-1	4.451549351E-1
4.886705142E0	-1.282779276E-1	-8.719844818E-1	4.848600030E-1
4.895108163E0	-1.814216375E-1	-4.966188073E-1	4.766135812E-1
4.903511183E0	-2.289150059E-1	1.078145429E-1	3.811686933E-1
4.911914204E0	-2.483094037E-1	6.062659025E-1	2.238755226E-1
4.920317225E0	-2.562504113E-1	8.238802552E-1	9.758284688E-2
4.928720246E0	-2.643441558E-1	7.046123147E-1	7.345438004E-2
4.937123267E0	-2.576248348E-1	3.403946459E-1	1.117850468E-1
4.945526288E0	-2.490729690E-1	-6.597150117E-2	1.632489264E-1
4.953929308E0	-2.628170252E-1	-3.335226178E-1	2.199050188E-1
4.962332329E0	-2.782409191E-1	-3.240544796E-1	2.625116110E-1
4.970735350E0	-2.886253297E-1	-1.163664013E-1	2.475458533E-1
4.979138371E0	-2.987042964E-1	9.651386738E-2	1.890572309E-1
4.987541392E0	-3.164188862E-1	2.263189107E-1	1.539335102E-1
4.995944413E0	-3.345915973E-1	2.993151546E-1	1.786728203E-1
5.004347433E0	-3.359659910E-1	3.257342875E-1	2.060082406E-1
5.012750454E0	-3.252761662E-1	3.184041381E-1	1.989834905E-1
5.021153475E0	-2.924431264E-1	2.721324563E-1	1.980672181E-1
5.029556496E0	-2.594573796E-1	2.066190839E-1	2.365505993E-1
5.037959517E0	-2.386885732E-1	8.704573661E-2	2.808370292E-1
5.046362538E0	-2.270824611E-1	-6.612421572E-2	3.032856584E-1
5.054765558E0	-2.246390730E-1	-1.377460510E-1	3.034383655E-1
5.063168579E0	-2.231119573E-1	-7.895200700E-2	2.835858464E-1
5.071571600E0	-2.203631550E-1	5.543438718E-2	2.501419485E-1
5.079974621E0	-2.221956849E-1	1.511846930E-1	2.260134816E-1
5.088377642E0	-2.185306102E-1	1.751604527E-1	2.105895877E-1
5.096780663E0	-2.159345001E-1	1.456870735E-1	1.947075576E-1
5.105183683E0	-2.075353563E-1	6.810946763E-2	1.847812980E-1
5.113586704E0	-1.895153672E-1	-3.634541109E-2	1.998997629E-1
5.121989725E0	-1.727170646E-1	-1.206423342E-1	2.191414535E-1
5.130392746E0	-1.572931707E-1	-1.727170646E-1	2.258607745E-1
5.138795767E0	-1.479777545E-1	-1.482831687E-1	2.133384049E-1
5.147198788E0	-1.426328421E-1	-6.673506647E-2	1.951656938E-1
5.155601808E0	-1.229330078E-1	1.435491070E-2	1.809635013E-1
5.164004829E0	-7.986827940E-2	6.062658876E-2	1.669140160E-1
5.172407850E0	-5.390727147E-2	4.840964451E-2	1.559187621E-1
5.180810871E0	-3.084778599E-2	3.359660041E-3	1.537808031E-1
5.189213892E0	-5.803049076E-3	-3.817795217E-2	1.491994411E-1
5.197616913E0	8.246437646E-3	-6.413896382E-2	1.462979168E-1
5.206019933E0	1.786728203E-2	-7.528692484E-2	1.479777545E-1
5.214422954E0	1.542389300E-2	-7.223268598E-2	1.441599578E-1
5.222825975E0	9.620844387E-3	-3.573456407E-2	1.320957243E-1
5.231228996E0	7.635590737E-4	1.786728203E-2	1.192679256E-1
5.239632017E0	2.596100792E-3	5.054761097E-2	1.140757278E-1
5.248035038E0	4.581354558E-3	3.848337755E-2	1.192679256E-1
5.256438058E0	3.665083554E-3	-1.404948719E-2	1.372879148E-1
5.264841079E0	9.620844387E-3	-6.658235192E-2	1.608055383E-1
5.273244100E0	1.771457121E-2	-8.872556686E-2	1.745496094E-1
5.281647121E0	2.015795931E-2	-7.910472155E-2	1.846285909E-1
5.290050142E0	1.221694518E-2	-3.619270027E-2	1.889045089E-1
5.298453163E0	1.160609815E-2	-4.886778072E-3	1.933331639E-1
5.306856183E0	1.481304597E-2	9.620844387E-3	2.070772201E-1
5.315259204E0	2.229592577E-2	4.275931045E-3	2.347180545E-1
5.323662225E0	4.199574888E-2	-2.137965523E-3	2.591519356E-1
5.332065246E0	5.955760926E-2	-2.107422985E-2	2.828222811E-1
5.340468267E0	6.841489673E-2	-6.719319522E-2	3.132119179E-1
5.348871288E0	6.429167092E-2	-1.068982705E-1	3.411581814E-1
5.357274308E0	6.459710002E-2	-1.220167428E-1	3.529170156E-1
5.365677329E0	6.688777357E-2	-1.125486046E-1	3.687990308E-1
5.374080350E0	6.841489673E-2	-8.429691941E-2	3.884988427E-1
5.382483371E0	7.314895838E-2	-4.718795046E-2	4.036173224E-1
5.390886392E0	8.261708915E-2	-2.504473738E-2	4.170559645E-1
5.399289413E0	8.842013776E-2	-1.053711493E-2	4.263713956E-1
5.407692433E0	9.376505762E-2	-1.664558798E-2	4.369085133E-1
5.416095454E0	1.075091213E-1	-4.016320780E-2	4.504998624E-1
5.424498475E0	1.262926757E-1	-7.773031294E-2	4.633276463E-1
5.432901496E0	1.435490996E-1	-1.278197914E-1	4.711159468E-1
5.441304517E0	1.574458778E-1	-1.574458778E-1	4.755446017E-1
5.449707538E0	1.704263836E-1	-1.718007922E-1	4.799732268E-1
5.458110558E0	1.821851879E-1	-1.751604527E-1	4.888305068E-1
5.466513579E0	1.974563748E-1	-1.600419879E-1	4.874561131E-1
5.474916600E0	2.325800955E-1	-1.331647038E-1	4.734066129E-1
5.483319621E0	2.745758295E-1	-1.255291104E-1	4.599680007E-1
5.491722642E0	3.092414141E-1	-1.501157135E-1	4.492781460E-1
5.500125663E0	3.232909143E-1	-2.005106062E-1	4.399627447E-1
5.508528683E0	3.254288733E-1	-2.614426315E-1	4.332434237E-1
5.516931704E0	3.194731176E-1	-2.993151546E-1	4.356867969E-1
5.525334725E0	3.092414141E-1	-3.106158376E-1	4.399627447E-1
5.533737746E0	3.038965166E-1	-2.942756712E-1	4.369085133E-1
5.542140767E0	2.967190444E-1	-2.669402659E-1	4.327852726E-1
5.550543788E0	2.860292196E-1	-2.342599183E-1	4.072824121E-1
5.558946808E0	2.683146596E-1	-2.292204350E-1	3.842229247E-1
5.567349829E0	2.480039895E-1	-2.551814318E-1	3.771981895E-1
5.575752850E0	2.243336588E-1	-2.916795611E-1	4.069769979E-1
5.584155871E0	2.002051920E-1	-3.051182032E-1	4.782933891E-1
5.592558892E0	1.760767251E-1	-3.034383655E-1	5.654918551E-1
5.600961913E0	1.611109674E-1	-2.899997234E-1	6.381826997E-1
5.609364933E0	1.514901221E-1	-2.420482337E-1	7.029324770E-1
5.617767954E0	1.417165697E-1	-1.663031727E-1	7.725690603E-1
5.626170975E0	1.279724985E-1	-7.375980914E-2	8.463288546E-1
5.634573996E0	1.220167428E-1	7.925742865E-2	9.210049510E-1
5.642977017E0	1.322484314E-1	2.252499312E-1	1.031568289E0
5.651380038E0	1.276670843E-1	4.227063060E-1	1.097234368E0
5.659783058E0	1.105633527E-1	6.875085831E-1	1.090362310E0
5.668186079E0	9.330692142E-2	8.707627654E-1	1.082726717E0
5.676589100E0	7.406523079E-2	9.675820470E-1	1.084253907E0
5.684992121E0	5.115845799E-2	9.513946176E-1	1.092653036E0
5.693395142E0	2.733541466E-2	9.077190161E-1	1.085628271E0
5.701798163E0	9.162708884E-4	8.643488884E-1	1.058140159E0
5.710201183E0	-3.268032894E-2	8.452599049E-1	9.622371197E-1
5.718604204E0	-3.634541109E-2	9.717052579E-1	6.697940230E-1
5.727007225E0	-3.344388679E-2	1.078756213E0	3.237490356E-1
5.735410246E0	-3.802524135E-2	9.692618847E-1	1.579040140E-1
5.743813267E0	-1.099525020E-2	7.395833135E-1	1.067455560E-1
5.752216288E0	3.191677108E-2	4.582881629E-1	-1.863084175E-2
5.760619308E0	7.406523079E-2	2.504473627E-1	-2.455606014E-1
5.769022329E0	1.029277667E-1	1.881409585E-1	-4.943281412E-1
5.777425350E0	1.195733473E-1	1.765348613E-1	-6.963658929E-1
5.785828371E0	1.262926757E-1	1.814216375E-1	-8.729007244E-1
5.794231392E0	1.491994411E-1	1.238492802E-1	-9.985825419E-1
5.802634413E0	1.994416267E-1	-6.413896102E-3	-1.058292866E0
5.811037433E0	1.837123185E-1	-1.444653720E-1	-1.126555085E0
5.819440454E0	1.488940120E-1	-2.573194206E-1	-1.262468576E0
5.827843475E0	1.479777545E-1	-3.761292100E-1	-1.380820274E0
5.836246496E0	1.695101112E-1	-5.086830258E-1	-1.401436329E0
5.844649517E0	1.666085869E-1	-6.264238358E-1	-1.407850266E0
5.853052538E0	1.296523362E-1	-7.400414348E-1	-1.433811188E0
5.861455558E0	9.193251282E-2	-8.461761475E-1	-1.463895440E0
5.869858579E0	6.612421572E-2	-8.545753360E-1	-1.494132400E0
5.878261600E0	4.504998401E-2	-7.879929543E-1	-1.517191887E0
5.886664621E0	3.054236248E-2	-6.936170459E-1	-1.532768488E0
5.895067642E0	7.941014133E-3	-6.079457402E-1	-1.544832706E0
5.903470663E0	-1.695101149E-2	-5.540384650E-1	-1.544374585E0
5.911873683E0	-2.901524492E-2	-5.172349215E-1	-1.528797984E0
5.920276704E0	-2.290677279E-2	-4.993676245E-1	-1.480082870E0
5.928679725E0	-2.977880463E-2	-5.173876286E-1	-1.388913989E0
5.937082746E0	-4.611896724E-2	-4.672981501E-1	-1.329967141E0
5.945485767E0	-5.573981255E-2	-3.407000601E-1	-1.356844425E0
5.953888788E0	-4.963133857E-2	-2.137965411E-1	-1.406475782E0
5.962291808E0	-3.206948191E-2	-1.220167428E-1	-1.384485364E0
5.970694829E0	-3.787253052E-2	-1.012479365E-1	-1.290262103E0
5.979097850E0	-4.749337584E-2	-1.476723254E-1	-1.186265349E0
5.987500871E0	-3.802524135E-2	-2.047865391E-1	-1.107618809E0
5.995903892E0	-2.382304333E-2	-2.141019702E-1	-1.046839476E0
6.004306913E0	-1.328592747E-2	-1.731752008E-1	-1.000720501E0
6.012709933E0	-1.847812906E-2	-1.324011385E-1	-9.491039515E-1
6.021112954E0	-3.756710514E-2	-1.351499557E-1	-8.330429196E-1
6.029515975E0	-5.986303091E-2	-1.747023165E-1	-6.794148684E-1
6.037918996E0	-7.666133344E-2	-2.153236568E-1	-5.346440673E-1
6.046322017E0	-6.658235192E-2	-2.234173864E-1	-4.023956358E-1
6.054725038E0	-1.007898003E-1	-2.324273884E-1	-2.215848416E-1
6.063128058E0	-1.815743446E-1	-2.757975459E-1	7.024743408E-2
6.071531079E0	-1.951656938E-1	-2.531961799E-1	4.117110670E-1
6.079934100E0	-1.777565479E-1	-5.650337040E-2	6.488724947E-1
6.088337121E0	-2.257080674E-1	4.520269632E-1	5.224271417E-1
6.096740142E0	-2.573194206E-1	1.035386086E0	1.623326540E-1
6.105143163E0	-2.276933193E-1	1.321720719E0	-4.672981426E-2
6.113546183E0	-1.818797737E-1	1.317292094E0	1.374406368E-2
6.121949204E0	-1.574458778E-1	7.973083854E-1	2.990097404E-1
6.130352225E0	-1.459924877E-1	-2.272351831E-1	5.775560737E-1
6.138755246E0	-1.201841980E-1	-9.283351302E-1	6.557445526E-1
6.147158267E0	-1.375933439E-1	-1.013548255E0	6.604785919E-1
6.155561288E0	-2.006633282E-1	-5.833591223E-1	5.841227174E-1
6.163964308E0	-2.344126403E-1	1.053711493E-2	3.979669809E-1
6.172367329E0	-2.347180545E-1	3.779617548E-1	2.376195788E-1
6.180770350E0	-2.307475507E-1	4.631749392E-1	2.244863659E-1
6.189173371E0	-2.183778882E-1	3.035911024E-1	3.313846290E-1
6.197576392E0	-2.047865391E-1	-1.023169141E-2	4.140017331E-1
6.205979413E0	-1.954711229E-1	-1.945548505E-1	4.176668227E-1
6.214382433E0	-2.134911120E-1	-9.162709117E-2	4.132381678E-1
6.222785454E0	-2.284568697E-1	1.889045089E-1	4.014793634E-1
6.231188475E0	-2.206685692E-1	4.278984964E-1	3.284831047E-1
6.239591496E0	-2.139492482E-1	5.028799772E-1	2.457133085E-1
6.247994517E0	-2.115058601E-1	4.317162931E-1	2.168507725E-1
6.256397538E0	-2.112004459E-1	2.588465214E-1	2.489202619E-1
6.264800558E0	-2.119639963E-1	8.139539510E-2	3.009949923E-1
6.273203579E0	-2.156290859E-1	-1.572931744E-2	3.229855001E-1
6.281606600E0	-2.234173864E-1	-2.046338283E-2	3.061871827E-1
6.290009621E0	-2.382304370E-1	4.291202128E-2	2.683146596E-1
6.298412642E0	-2.560977042E-1	1.065928489E-1	2.359397560E-1
6.306815663E0	-2.692309320E-1	1.310267299E-1	2.182251811E-1
6.315218683E0	-2.764083743E-1	9.254335612E-2	2.231119573E-1
6.323621704E0	-2.663294077E-1	1.450762246E-2	2.411319613E-1
6.332024725E0	-2.417428046E-1	-5.436540768E-2	2.631224692E-1
6.340427746E0	-2.119639963E-1	-1.125486046E-1	2.832804024E-1
6.348830767E0	-1.910424829E-1	-1.530172378E-1	2.892361879E-1
6.357233788E0	-1.743968874E-1	-1.656923145E-1	2.686200738E-1
6.365636808E0	-1.571404636E-1	-1.479777545E-1	2.356343269E-1
6.374039829E0	-1.403421611E-1	-1.128540337E-1	2.171562016E-1
6.382442850E0	-1.120904684E-1	-9.636115283E-2	2.206685692E-1
6.390845871E0	-8.521319181E-2	-1.085781008E-1	2.347180545E-1
6.399248892E0	-6.795676053E-2	-1.349972486E-1	2.476985604E-1
6.407651913E0	-5.482354015E-2	-1.252236813E-1	2.454078794E-1
6.416054933E0	-3.924693540E-2	-1.030804738E-1	2.365505993E-1
6.424457954E0	-2.565558441E-2	-7.452336699E-2	2.229592502E-1
6.432860975E0	-4.886778072E-3	-4.367557913E-2	2.055501044E-1
6.441263996E0	7.177455351E-3	-3.161134571E-2	1.950129867E-1
6.449667017E0	2.000524849E-2	-3.436015919E-2	1.858502775E-1
6.458070038E0	3.222219273E-2	-4.352286831E-2	1.743968874E-1
6.466473058E0	3.924693540E-2	-9.086353332E-2	1.690519750E-1
6.474876079E0	4.337015375E-2	-1.273616552E-1	1.751604527E-1
6.483279100E0	3.802524135E-2	-1.215586066E-1	1.832541823E-1
6.491682121E0	3.833066672E-2	-1.091889441E-1	1.785201132E-1
6.500085142E0	3.344388679E-2	-9.407047927E-2	1.805053651E-1
6.508488163E0	2.657185495E-2	-6.887302548E-2	1.968455315E-1
6.516891183E0	2.031067200E-2	-4.718795046E-2	2.130329758E-1
6.525294204E0	2.015795931E-2	-3.771981969E-2	2.194468826E-1
6.533697225E0	1.847812906E-2	-3.542914242E-2	2.325800955E-1
6.542100246E0	7.635590620E-3	-5.085303262E-2	2.579302490E-1
6.550503267E0	1.527118147E-3	-6.306997687E-2	2.782409191E-1
6.558906288E0	3.970507067E-3	-3.817795217E-2	2.941229641E-1
6.567309308E0	9.773556143E-3	1.374406274E-3	3.168770075E-1
6.575712329E0	1.359135192E-2	3.252761811E-2	3.437542915E-1
6.584115350E0	1.236965694E-2	2.932066843E-2	3.645231128E-1
6.592518371E0	5.803049076E-3	-1.267508045E-2	3.762819171E-1
6.600921392E0	8.857285604E-3	-5.726693198E-2	3.946073353E-1
6.609324413E0	2.137965336E-2	-8.002099395E-2	4.327852726E-1
6.617727433E0	5.253286287E-2	-5.543438718E-2	4.735593498E-1
6.626130454E0	6.658235192E-2	-1.374406368E-2	5.024218559E-1
6.634533475E0	7.849387079E-2	1.404948719E-2	5.164713860E-1
6.642936496E0	9.712471068E-2	4.306473210E-2	5.205945969E-1
6.651339517E0	1.123958975E-1	6.200099736E-2	5.241069198E-1
6.659742538E0	1.264453828E-1	4.947862774E-2	5.354076028E-1
6.668145558E0	1.392731816E-1	1.359135192E-2	5.558710098E-1
6.676548579E0	1.478250325E-1	-2.535016090E-2	5.769452453E-1
6.684951600E0	1.554606259E-1	-5.024218559E-2	5.934380889E-1
6.693354621E0	1.673721522E-1	-6.444438547E-2	6.151232123E-1
6.701757642E0	1.832541823E-1	-8.979454637E-2	6.450546980E-1
6.710160663E0	1.901262105E-1	-1.429382563E-1	6.876612902E-1
6.718563683E0	1.983726472E-1	-2.057028115E-1	7.479824424E-1
6.726966704E0	2.226538211E-1	-2.322746664E-1	8.177717924E-1
6.735369725E0	2.803788781E-1	-1.606528312E-1	8.955020905E-1
6.743772746E0	3.263451457E-1	-1.204896197E-1	9.417737722E-1
6.752175767E0	3.626905680E-1	-1.236965731E-1	9.338327646E-1
6.760578788E0	3.918585181E-1	-1.102579311E-1	8.900044560E-1
6.768981808E0	3.984251320E-1	-5.558710173E-2	8.567132950E-1
6.777384829E0	3.949127495E-1	-3.573456407E-2	8.506048322E-1
6.785787850E0	3.883461356E-1	-6.917845458E-2	8.567132950E-1
6.794190871E0	3.904841244E-1	-1.278197914E-1	8.443436027E-1
6.802593892E0	4.083513916E-1	-1.491994411E-1	8.050966859E-1
6.810996913E0	4.239279926E-1	-1.310267299E-1	7.345438004E-1
6.819399933E0	4.271349311E-1	-1.259872466E-1	7.062921524E-1
6.827802954E0	3.978142738E-1	-6.688777357E-2	7.661551833E-1
6.836205975E0	3.750602305E-1	-1.068982761E-3	8.599202037E-1
6.844608996E0	3.585673273E-1	9.177979827E-2	9.266552925E-1
6.853012017E0	3.480302393E-1	1.798945218E-1	9.654440880E-1
6.861415038E0	3.307738006E-1	2.600682080E-1	9.972081780E-1
6.869818058E0	3.232909143E-1	3.752129376E-1	1.026834249E0
6.878221079E0	3.063398898E-1	5.181511641E-1	1.053711534E0
6.886624100E0	2.754921019E-1	6.754443645E-1	1.054627776E0
6.895027121E0	2.341072112E-1	8.512156606E-1	1.028972149E0
6.903430142E0	1.959292591E-1	1.027139664E0	9.768974781E-1
6.911833163E0	1.461452097E-1	1.204896212E0	9.126058221E-1
6.920236183E0	1.038440317E-1	1.324469566E0	8.568660021E-1
6.928639204E0	7.024743408E-2	1.369977713E0	7.589777112E-1
6.937042225E0	5.207473040E-2	1.400061965E0	5.526640415E-1
6.945445246E0	5.818320066E-2	1.437018156E0	2.403683960E-1
6.953848267E0	5.909947306E-2	1.251473308E0	5.573981255E-2
6.962251288E0	4.550812021E-2	9.588775039E-1	-3.573456407E-2
6.970654308E0	5.467082933E-2	6.348230243E-1	-1.727170646E-1
6.979057329E0	7.773031294E-2	2.593046725E-1	-3.781144619E-1
6.987460350E0	1.258345395E-1	-2.428117767E-2	-5.670189857E-1
6.995863371E0	2.034121305E-1	-2.586938143E-1	-6.494833231E-1
7.004266392E0	2.188360244E-1	-4.118637741E-1	-7.154548764E-1
7.012669413E0	1.481304616E-1	-4.344651103E-1	-9.335273504E-1
7.021072433E0	1.136175916E-1	-4.063661397E-1	-1.189014196E0
7.029475454E0	1.204896197E-1	-3.611634374E-1	-1.345391035E0
7.037878475E0	1.081199646E-1	-3.000787199E-1	-1.424495816E0
7.046281496E0	7.482878864E-2	-2.761029601E-1	-1.523758531E0
7.054684517E0	5.696150661E-2	-3.115321100E-1	-1.645469785E0
7.063087538E0	5.039490014E-2	-3.471139669E-1	-1.741678238E0
7.071490558E0	5.100574717E-2	-3.648285270E-1	-1.784590244E0
7.079893579E0	5.283828825E-2	-3.947600424E-1	-1.807955146E0
7.088296600E0	4.153761268E-2	-4.318690002E-1	-1.828724027E0
7.096699621E0	2.061609551E-2	-4.540122151E-1	-1.841704488E0
7.105102642E0	9.620844387E-3	-4.433223903E-1	-1.837581277E0
7.113505663E0	8.399149403E-3	-4.285093546E-1	-1.827044129E0
7.121908683E0	2.748812549E-3	-4.340069890E-1	-1.816506982E0
7.130311704E0	-1.053711493E-2	-4.602734149E-1	-1.808413267E0
7.138714725E0	-3.084778599E-2	-4.898995161E-1	-1.793142080E0
7.147117746E0	-3.634541109E-2	-5.189147592E-1	-1.752826214E0
7.155520767E0	-5.497625098E-3	-5.534276366E-1	-1.681662560E0
7.163923788E0	3.344388679E-2	-5.676298141E-1	-1.618745208E0
7.172326808E0	5.329642445E-2	-5.225798488E-1	-1.586828470E0
7.180729829E0	5.573981255E-2	-4.590517282E-1	-1.559340358E0
7.189132850E0	4.825693369E-2	-3.994941115E-1	-1.515206575E0
7.197535871E0	4.428642616E-2	-2.786990702E-1	-1.475501537E0
7.205938892E0	5.787777901E-2	-1.241547018E-1	-1.449845910E0
7.214341913E0	7.635590434E-2	-1.924168877E-2	-1.416707516E0
7.222744933E0	7.314895838E-2	-2.015795931E-2	-1.348903418E0
7.231147954E0	4.352286831E-2	-5.421269313E-2	-1.246281147E0
7.239550975E0	2.901524538E-3	-4.474456236E-2	-1.131441832E0
7.247953996E0	-3.008422814E-2	2.092151903E-2	-1.028972149E0
7.256357017E0	-4.260659590E-2	9.880454093E-2	-9.462023973E-1
7.264760038E0	-3.710897267E-2	1.595838517E-1	-8.524373770E-1
7.273163058E0	-2.870982140E-2	1.754658818E-1	-7.331694365E-1
7.281566079E0	-2.901524492E-2	1.345391124E-1	-6.152759194E-1
7.289969100E0	-3.084778599E-2	4.703523964E-2	-4.957025647E-1
7.298372121E0	-3.985778242E-2	-6.154286116E-2	-3.629959822E-1
7.306775142E0	-5.619794875E-2	-1.614163816E-1	-2.121167034E-1
7.315178163E0	-8.307522535E-2	-2.226538211E-1	-9.193251282E-2
7.323581183E0	-9.544488788E-2	-2.640387416E-1	2.825168520E-2
7.331984204E0	-1.006370857E-1	-2.554868758E-1	1.537808031E-1
7.340387225E0	-1.094943732E-1	-2.770192325E-1	3.953709006E-1
7.348790246E0	-1.624853760E-1	-2.199050188E-1	6.358919740E-1
7.357193267E0	-2.473931462E-1	2.383831441E-1	5.444176197E-1
7.365596288E0	-2.932066917E-1	8.287670016E-1	2.524326444E-1
7.373999308E0	-2.603736520E-1	1.206881523E0	6.413896382E-2
7.382402329E0	-1.924168915E-1	1.208103180E0	1.230857223E-1
7.390805350E0	-1.444653720E-1	7.997517586E-1	3.779617548E-1
7.399208371E0	-1.356080920E-1	8.185353130E-2	6.349757314E-1
7.407611392E0	-1.287360638E-1	-5.053234100E-1	7.456917763E-1
7.416014413E0	-1.084253863E-1	-7.288935184E-1	7.571451664E-1
7.424417433E0	-1.012479365E-1	-5.575508475E-1	6.983511448E-1
7.432820454E0	-1.229330078E-1	-1.159082651E-1	5.651864409E-1
7.441223475E0	-1.485885978E-1	2.985515893E-1	4.182776511E-1
7.449626496E0	-1.484358907E-1	4.908157587E-1	3.278722763E-1
7.458029517E0	-1.284306347E-1	3.851391971E-1	3.077143133E-1
7.466432538E0	-1.389677525E-1	1.154501289E-1	3.516952991E-1
7.474835558E0	-1.826433241E-1	-7.543963939E-2	4.311054647E-1
7.483238579E0	-2.101314515E-1	-6.184828654E-2	4.793623984E-1
7.491641600E0	-2.075353563E-1	1.174353883E-1	4.384356141E-1
7.500044621E0	-1.953184158E-1	3.000787199E-1	3.542914093E-1
7.508447642E0	-1.931804419E-1	3.837648034E-1	3.006895781E-1
7.516850663E0	-1.962346882E-1	3.135173619E-1	2.930539846E-1
7.525253683E0	-1.953184158E-1	1.218640283E-1	3.042019308E-1
7.533656704E0	-1.893626451E-1	-8.063183725E-2	3.315373361E-1
7.542059725E0	-1.890572309E-1	-2.009687424E-1	3.643703759E-1
7.550462746E0	-2.046338320E-1	-1.966928244E-1	3.487937748E-1
7.558865767E0	-2.328855246E-1	-1.246128380E-1	2.979407609E-1
7.567268788E0	-2.547233105E-1	1.221694518E-3	2.632751763E-1
7.575671808E0	-2.687727809E-1	1.467560530E-1	2.389939874E-1
7.584074829E0	-2.669402659E-1	2.176143378E-1	2.160872221E-1
7.592477850E0	-2.449497581E-1	2.064663768E-1	2.162399292E-1
7.600880871E0	-2.226538211E-1	1.356080920E-1	2.483094037E-1
7.609283892E0	-2.179197669E-1	3.344388679E-2	2.794626355E-1
7.617686913E0	-2.186833173E-1	-5.008947477E-2	2.916795611E-1
7.626089933E0	-2.290677279E-1	-8.612946421E-2	2.909159958E-1
7.634492954E0	-2.313583940E-1	-6.398624927E-2	2.816005945E-1
7.642895975E0	-2.173089087E-1	-3.665083554E-3	2.724378705E-1
7.651298996E0	-1.924168915E-1	4.382828996E-2	2.608317733E-1
7.659702017E0	-1.574458778E-1	6.566607952E-2	2.530434728E-1
7.668105038E0	-1.320957243E-1	5.558710173E-2	2.472404242E-1
7.676508058E0	-1.030804738E-1	4.657710344E-2	2.309002578E-1
7.684911079E0	-7.207997888E-2	6.704048812E-2	2.101314515E-1
7.693314100E0	-4.352286831E-2	7.513421029E-2	1.977618039E-1
7.701717121E0	-3.069507517E-2	6.704048812E-2	1.873773932E-1
7.710120142E0	-1.924168877E-2	7.269082218E-2	1.688992679E-1
7.718523163E0	-1.175880991E-2	9.315420687E-2	1.514901221E-1
7.726926183E0	-4.886778072E-3	1.093416587E-1	1.392731816E-1
7.735329204E0	-7.635590620E-3	1.044548824E-1	1.270562261E-1
7.743732225E0	-9.620844387E-3	1.185043678E-1	1.133121699E-1
7.752135246E0	-8.704573847E-3	1.429382563E-1	1.061347127E-1
7.760538267E0	-5.344913341E-3	1.365243644E-1	1.082726792E-1
7.768941288E0	-7.482878864E-3	1.000262350E-1	1.198787764E-1
7.777344308E0	-6.872031838E-3	5.940489471E-2	1.411057115E-1
7.785747329E0	-1.527118147E-3	1.847812906E-2	1.626380831E-1
7.794150350E0	1.007897966E-2	2.137965523E-3	1.867665499E-1
7.802553371E0	1.511846948E-2	-9.009997360E-3	2.072299272E-1
7.810956392E0	1.023169141E-2	-1.679829881E-2	2.237228155E-1
7.819359413E0	1.252236869E-2	-2.000524849E-2	2.258607745E-1
7.827762433E0	1.084253844E-2	-3.176405653E-2	2.377723008E-1
7.836165454E0	-4.581354442E-4	-5.207473040E-2	2.565558553E-1
7.844568475E0	-1.114796288E-2	-6.917845458E-2	2.869454920E-1
7.852971496E0	-1.908897609E-2	-4.825693369E-2	3.228327632E-1
7.861374517E0	-8.857285604E-3	-2.489202656E-2	3.510844707E-1
7.869777538E0	8.857285604E-3	-2.275406010E-2	3.778090179E-1
7.878180558E0	2.443389036E-2	-3.970507160E-2	4.085040987E-1
7.886583579E0	3.695625812E-2	-6.047387794E-2	4.451549351E-1
7.894986600E0	5.253286287E-2	-8.765657991E-2	4.837910235E-1
7.903389621E0	6.642963737E-2	-1.186570823E-1	5.250232220E-1
7.911792642E0	7.375980914E-2	-1.459924877E-1	5.619794726E-1
7.920195663E0	9.239064902E-2	-1.620272398E-1	5.894675851E-1
7.928598683E0	1.178935245E-1	-1.673721522E-1	6.180247068E-1
7.937001704E0	1.389677525E-1	-1.722589284E-1	6.491779089E-1
7.945404725E0	1.580567211E-1	-1.805053651E-1	6.737645268E-1
7.953807746E0	1.612636745E-1	-1.844758689E-1	7.004891038E-1
7.962210767E0	1.629435122E-1	-1.751604527E-1	7.273663878E-1
7.970613788E0	1.772984117E-1	-1.495048702E-1	7.510367036E-1
7.979016808E0	1.919587553E-1	-1.021642014E-1	7.844805717E-1
7.987419829E0	2.206685692E-1	-5.207473040E-2	8.252546191E-1
7.995822850E0	2.696890533E-1	-4.107947648E-2	8.596147895E-1
8.004225871E0	3.223746419E-1	-8.887827396E-2	8.745805621E-1
8.012628892E0	3.339807391E-1	-1.815743446E-1	8.603783846E-1
8.021031913E0	3.046600819E-1	-2.270824611E-1	8.391514421E-1
8.029434933E0	2.658712566E-1	-2.040229887E-1	8.367080092E-1
8.037837954E0	2.489202619E-1	-1.325538605E-1	8.020424247E-1
8.046240975E0	2.327328026E-1	-7.559234649E-2	7.285880446E-1
8.054643996E0	2.118112892E-1	-6.688777357E-2	6.762079000E-1
8.063047017E0	1.873773932E-1	-8.903098851E-2	7.201889157E-1
8.071450038E0	1.426328421E-1	-7.910472155E-2	8.130376935E-1
8.079853058E0	9.452861547E-2	-6.093201414E-2	9.011524320E-1
8.088256079E0	4.489727318E-2	1.262926757E-1	9.133693576E-1
8.096659100E0	2.382304333E-2	1.850867122E-1	1.003163934E0
8.105062121E0	7.177455351E-3	2.081461996E-1	1.128082156E0
8.113465142E0	1.068982761E-3	2.635805905E-1	1.214211583E0
8.121868163E0	1.832541777E-3	3.584146202E-1	1.263537526E0
8.130271183E0	-6.108472589E-3	4.842491746E-1	1.293774486E0
8.138674204E0	-1.023169141E-2	5.662553906E-1	1.305838704E0
8.147077225E0	-3.191677108E-2	6.061131954E-1	1.280030489E0
8.155480246E0	-6.276455522E-2	6.044333577E-1	1.230399132E0
8.163883267E0	-1.067455560E-1	6.212316751E-1	1.148698330E0
8.172286288E0	-1.400367320E-1	6.914790869E-1	9.530744553E-1
8.180689308E0	-1.122431830E-1	8.107470274E-1	5.705313683E-1
8.189092329E0	-6.322269142E-2	8.076927662E-1	2.444916219E-1
8.197495350E0	-4.688252881E-2	6.823163629E-1	1.194206402E-1
8.205898371E0	-1.206423342E-2	4.859289825E-1	3.420744836E-2
8.214301392E0	4.749337584E-2	2.486148328E-1	-1.557660550E-1
8.222704413E0	8.903098851E-2	1.342336833E-1	-4.172086716E-1
8.231107433E0	1.087308154E-1	1.470614821E-1	-6.755970716E-1
8.239510454E0	1.750077456E-1	1.716480851E-1	-8.857285380E-1
8.247913475E0	2.525853515E-1	2.422009408E-1	-1.105328083E0
8.256316496E0	2.823641598E-1	2.805316150E-1	-1.313321590E0
8.264719517E0	3.025220931E-1	1.921114624E-1	-1.429993391E0
8.273122538E0	3.284831047E-1	7.681404054E-2	-1.495048642E0
8.281525558E0	3.477247953E-1	-6.719320081E-3	-1.579650998E0
8.289928579E0	3.571929336E-1	-8.857285231E-2	-1.670056462E0
8.298331600E0	3.651339412E-1	-1.572931707E-1	-1.742747188E0
8.306734621E0	3.550549746E-1	-2.099787444E-1	-1.779092669E0
8.315137642E0	3.307738006E-1	-2.817533016E-1	-1.780619740E0
8.323540663E0	2.924431264E-1	-3.526115716E-1	-1.769166350E0
8.331943683E0	2.533488870E-1	-3.518480062E-1	-1.769777179E0
8.340346704E0	2.183778882E-1	-2.892361879E-1	-1.771762490E0
8.348749725E0	1.853921413E-1	-2.215848416E-1	-1.759698272E0
8.357152746E0	1.531699449E-1	-1.701209545E-1	-1.727934241E0
8.365555767E0	1.357607991E-1	-1.652341783E-1	-1.674637794E0
8.373958788E0	1.220167428E-1	-1.942494214E-1	-1.629282355E0
8.382361808E0	1.110214889E-1	-2.299840003E-1	-1.612331390E0
8.390764829E0	1.072036922E-1	-2.579302490E-1	-1.597976446E0
8.399167850E0	1.165191159E-1	-2.974826097E-1	-1.548803210E0
8.407570871E0	1.226275861E-1	-3.888042867E-1	-1.472905397E0
8.415973892E0	1.287360638E-1	-4.993676245E-1	-1.405406833E0
8.424376913E0	1.542389393E-1	-5.532749295E-1	-1.368145108E0
8.432779933E0	1.682884246E-1	-5.906893015E-1	-1.325996637E0
8.441182954E0	1.469087601E-1	-6.337540150E-1	-1.253916740E0
8.449585975E0	1.044548824E-1	-5.909947157E-1	-1.182905674E0
8.457988996E0	7.162184268E-2	-4.178195298E-1	-1.144116879E0
8.466392017E0	6.230641901E-2	-2.379250079E-1	-1.107160687E0
8.474795038E0	6.734590977E-2	-9.758284688E-2	-1.052337170E0
8.483198058E0	7.437065244E-2	-3.206948051E-3	-9.772028923E-1
8.491601079E0	8.215895295E-2	4.703523964E-2	-8.958075047E-1
8.500004100E0	8.170082420E-2	6.459710002E-2	-8.122741580E-1
8.508407121E0	6.734590977E-2	4.947862774E-2	-7.363763452E-1
8.516810142E0	5.268557742E-2	7.177455351E-3	-6.623111367E-1
8.525213163E0	3.894151375E-2	-7.085828483E-2	-5.821374655E-1
8.533616183E0	2.855710872E-2	-1.823379099E-1	-4.680617154E-1
8.542019204E0	1.313321572E-2	-2.654131353E-1	-3.382566571E-1
8.550422225E0	-1.786728203E-2	-2.993151546E-1	-2.176143378E-1
8.558825246E0	-5.115845799E-2	-2.803788781E-1	-1.262926757E-1
8.567228267E0	-9.147437662E-2	-1.878355294E-1	-5.803048983E-2
8.575631288E0	-1.230857223E-1	-6.734590977E-2	2.825168520E-2
8.584034308E0	-1.647760421E-1	2.031067200E-2	1.605001241E-1
8.592437329E0	-2.322746664E-1	1.305686086E-1	2.757975459E-1
8.600840350E0	-3.884988427E-1	5.938962698E-1	1.562241912E-1
8.609243371E0	-5.541911721E-1	1.322789788E0	-1.078145429E-1
8.617646392E0	-5.262449384E-1	1.712357521E0	-1.863084137E-1
8.626049413E0	-2.438807636E-1	1.422510505E0	9.132166207E-2
8.634452433E0	-7.635590737E-4	4.138490260E-1	5.731274486E-1
8.642855454E0	2.840439789E-2	-6.803311110E-1	8.933641315E-1
8.651258475E0	-5.115845799E-2	-1.201841950E0	9.720106721E-1
8.659661496E0	-1.614163816E-1	-9.185615778E-1	8.396095634E-1
8.668064517E0	-2.669402659E-1	-1.522536725E-1	5.960342288E-1
8.676467538E0	-3.474193811E-1	4.590517282E-1	4.121691883E-1
8.684870558E0	-3.576510847E-1	7.348492742E-1	3.614688516E-1
8.693273579E0	-2.718270421E-1	6.574243903E-1	4.172086716E-1
8.701676600E0	-1.768402755E-1	3.258870244E-1	4.808894992E-1
8.710079621E0	-1.586675793E-1	-3.329117596E-2	5.060869455E-1
8.718482642E0	-2.244863659E-1	-2.371614426E-1	5.060869455E-1
8.726885663E0	-2.967190444E-1	-2.502946556E-1	4.787515402E-1
8.735288683E0	-3.126010895E-1	-1.343863904E-1	4.030064642E-1
8.743691704E0	-2.968717813E-1	-1.374406368E-2	3.161134422E-1
8.752094725E0	-2.910687327E-1	3.710897267E-2	2.519744933E-1
8.760497746E0	-2.927485406E-1	-1.634016447E-2	2.124221325E-1
8.768900767E0	-2.849602401E-1	-1.249182671E-1	1.959292591E-1
8.777303788E0	-2.761029601E-1	-2.173089087E-1	1.916533262E-1
8.785706808E0	-2.791571915E-1	-2.431172132E-1	1.834068894E-1
8.794109829E0	-2.742704153E-1	-2.046338320E-1	1.392731816E-1
8.802512850E0	-2.724378705E-1	-1.340809762E-1	7.360709459E-2
8.810915871E0	-2.808370292E-1	-6.032116711E-2	1.710372418E-2
8.819318892E0	-2.994678617E-1	-2.611372061E-2	-1.969982497E-2
8.827721913E0	-3.216110766E-1	-1.710372418E-2	-5.283828825E-2
8.836124933E0	-3.243598938E-1	-1.939439960E-2	-6.016845629E-2
8.844527954E0	-3.086305857E-1	-3.512371704E-2	-3.054236248E-2
8.852930975E0	-2.999260128E-1	-6.566607952E-2	-2.748812549E-3
8.861333996E0	-2.887780368E-1	-1.131594554E-1	6.872031838E-3
8.869737017E0	-2.730487287E-1	-1.375933439E-1	1.740914769E-2
8.878140038E0	-2.409792393E-1	-9.910997003E-2	2.244863659E-2
8.886543058E0	-2.124221325E-1	-7.666133344E-2	2.382304333E-2
8.894946079E0	-1.829487532E-1	-5.940489471E-2	1.404948719E-2
8.903349100E0	-1.504211426E-1	-1.710372418E-2	-9.162709117E-3
8.911752121E0	-1.259872466E-1	-4.184303805E-2	1.420219894E-2
8.920155142E0	-8.796200156E-2	-7.971556485E-2	7.345438004E-2
8.928558163E0	-6.474980712E-2	-1.012479365E-1	1.233911440E-1
8.936961183E0	-5.818320066E-2	-1.368297935E-1	1.426328421E-1
8.945364204E0	-4.367557913E-2	-1.394258887E-1	1.510319859E-1
8.953767225E0	-3.206948191E-2	-9.895725548E-2	1.627907902E-1
8.962170246E0	-2.443389036E-2	-4.657710344E-2	1.629435122E-1
8.970573267E0	-2.031067200E-2	-2.015795931E-2	1.488940120E-1
8.978976288E0	-1.847812906E-2	-2.702999115E-2	1.508792788E-1
8.987379308E0	-2.092151903E-2	-4.367557913E-2	1.708845198E-1
8.995782329E0	-2.092151903E-2	-5.100574717E-2	1.898207814E-1
9.004185350E0	-1.786728203E-2	-3.100049868E-2	1.976090819E-1
9.012588371E0	-1.389677543E-2	2.092151903E-2	1.934858710E-1
9.020991392E0	-9.620844387E-3	7.330167294E-2	1.916533262E-1
9.029394413E0	3.206948051E-3	1.097997949E-1	2.031067163E-1
9.037797433E0	1.801999472E-2	1.253764033E-1	2.205158621E-1
9.046200454E0	2.229592577E-2	1.058292910E-1	2.498365343E-1
9.054603475E0	2.137965336E-2	5.925218388E-2	2.843494117E-1
9.063006496E0	2.489202656E-2	2.015795931E-2	3.133646548E-1
9.071409517E0	2.825168520E-2	-6.108472589E-4	3.403946459E-1
9.079812538E0	3.252761811E-2	-2.764083818E-2	3.756710589E-1
9.088215558E0	4.169032723E-2	-4.596625641E-2	4.114056230E-1
9.096618579E0	5.192201585E-2	-2.840439789E-2	4.450022280E-1
9.105021600E0	6.093201414E-2	-1.649287529E-2	4.721849263E-1
9.113424621E0	6.994201243E-2	-9.162708884E-4	4.952444136E-1
9.121827642E0	7.299624383E-2	4.550812021E-2	5.234960914E-1
9.130230663E0	7.849387079E-2	8.872556686E-2	5.483881235E-1
9.138633683E0	8.338065445E-2	8.735115826E-2	5.628957748E-1
9.147036704E0	7.941014320E-2	5.039490014E-2	5.754181147E-1
9.155439725E0	7.513421029E-2	1.527118124E-2	5.850389600E-1
9.163842746E0	7.498150319E-2	8.857285604E-3	6.085565686E-1
9.172245767E0	8.582404256E-2	2.015795931E-2	6.500942111E-1
9.180648788E0	9.422318637E-2	3.191677108E-2	6.792621613E-1
9.189051808E0	1.024696305E-1	5.161659420E-2	6.897992492E-1
9.197454829E0	1.183516532E-1	6.948387623E-2	7.006418109E-1
9.205857850E0	1.328592747E-1	7.559234649E-2	7.113316059E-1
9.214260871E0	1.447708011E-1	5.787777901E-2	7.182036638E-1
9.222663892E0	1.534753740E-1	1.603474095E-2	7.307260633E-1
9.231066913E0	1.618745178E-1	-4.489727318E-2	7.482879162E-1
9.239469933E0	1.737860441E-1	-1.021642014E-1	7.715001106E-1
9.247872954E0	1.855448484E-1	-1.342336833E-1	7.953231335E-1
9.256275975E0	2.040229887E-1	-1.472141892E-1	8.145648241E-1
9.264678996E0	2.327328026E-1	-1.553079188E-1	8.331956863E-1
9.273082017E0	2.635805905E-1	-1.788255423E-1	8.493831158E-1
9.281485038E0	2.887780368E-1	-2.359397560E-1	8.599202037E-1
9.289888058E0	2.930539846E-1	-3.133646548E-1	8.640434742E-1
9.298291079E0	2.832804024E-1	-3.768927455E-1	8.658760190E-1
9.306694100E0	2.721324563E-1	-4.085040987E-1	8.616000414E-1
9.315097121E0	2.765611112E-1	-3.965925872E-1	8.322793841E-1
9.323500142E0	2.896943092E-1	-3.393256664E-1	7.635591030E-1
9.331903163E0	2.791571915E-1	-3.472666740E-1	6.972821355E-1
9.340306183E0	2.600682080E-1	-4.410317242E-1	6.653653979E-1
9.348709204E0	2.195995897E-1	-5.210527182E-1	6.853706241E-1
9.357112225E0	1.685938388E-1	-5.134171247E-1	7.603521347E-1
9.365515246E0	1.345391124E-1	-3.535278440E-1	8.591566682E-1
9.373918267E0	1.030804738E-1	-1.980672181E-1	9.837695360E-1
9.382321288E0	8.490777016E-2	-2.886253223E-2	1.052337170E0
9.390724308E0	7.879929990E-2	2.319692522E-1	1.033095479E0
9.399127329E0	8.108997345E-2	3.901786804E-1	1.078298092E0
9.407530350E0	7.834116369E-2	5.146388412E-1	1.136481285E0
9.415933371E0	7.528692484E-2	5.780141950E-1	1.149309158E0
9.424336392E0	6.429167092E-2	6.326850653E-1	1.131747246E0
9.432739413E0	5.146388337E-2	7.340856791E-1	1.098456025E0
9.441142433E0	4.398100078E-2	8.194515705E-1	1.046992183E0
9.449545454E0	3.390202299E-2	8.959602118E-1	9.400939345E-1
9.457948475E0	4.688252881E-2	1.111436605E0	6.558972597E-1
9.466351496E0	8.628217876E-2	1.375933409E0	2.553341687E-1
9.474754517E0	1.050657257E-1	1.365549088E0	1.740914769E-2
9.483157538E0	1.139230132E-1	1.106702566E0	-3.283303976E-2
9.491560558E0	1.452289373E-1	7.461498976E-1	-1.223221645E-1
9.499963579E0	1.969982386E-1	3.752129376E-1	-3.072561622E-1
9.508366600E0	2.422009408E-1	1.339282542E-1	-5.329642296E-1
9.516769621E0	2.684673667E-1	5.589252338E-2	-7.365291119E-1
9.525172642E0	2.935121059E-1	8.399149776E-2	-9.206995368E-1
9.533575663E0	3.019112647E-1	1.713426560E-1	-1.094180107E0
9.541978683E0	3.297048211E-1	1.856975704E-1	-1.185807228E0
9.550381704E0	3.518480062E-1	1.572931707E-1	-1.235438585E0
9.558784725E0	3.388675153E-1	1.976090819E-1	-1.348598003E0
9.567187746E0	3.174878657E-1	2.599155009E-1	-1.505891204E0
9.575590767E0	3.206948042E-1	2.823641598E-1	-1.585148692E0
9.583993788E0	3.344388604E-1	3.147390485E-1	-1.607902646E0
9.592396808E0	3.290939629E-1	3.561239541E-1	-1.622257590E0
9.600799829E0	3.087832928E-1	3.888042867E-1	-1.659061193E0
9.609202850E0	3.008422852E-1	4.133908749E-1	-1.704569221E0
9.617605871E0	3.069507480E-1	4.457657933E-1	-1.743663549E0
9.626008892E0	3.129065037E-1	4.750864506E-1	-1.755269647E0
9.634411913E0	2.964136302E-1	4.882196784E-1	-1.752978921E0
9.642814933E0	2.586938143E-1	4.865398407E-1	-1.761988878E0
9.651217954E0	2.170034945E-1	4.691306949E-1	-1.773594975E0
9.659620975E0	1.907370538E-1	4.424061179E-1	-1.758476496E0
9.668023996E0	1.658450365E-1	3.932329118E-1	-1.710677743E0
9.676427017E0	1.592784226E-1	3.492519259E-1	-1.684258580E0
9.684830038E0	1.762294322E-1	3.023693860E-1	-1.707776189E0
9.693233058E0	1.927223057E-1	1.901262105E-1	-1.722589254E0
9.701636079E0	1.991362125E-1	2.641914412E-2	-1.688076377E0
9.710039100E0	2.199050188E-1	-1.320957243E-1	-1.630504012E0
9.718442121E0	2.594573796E-1	-2.771719396E-1	-1.557507753E0
9.726845142E0	2.761029601E-1	-4.494308829E-1	-1.453052878E0
9.735248163E0	2.696890533E-1	-5.613686442E-1	-1.359745979E0
9.743651183E0	2.460187376E-1	-5.815265775E-1	-1.302631736E0
9.752054204E0	2.044811249E-1	-5.998520255E-1	-1.260483265E0
9.760457225E0	1.423274130E-1	-6.508577466E-1	-1.189777732E0
9.768860246E0	8.475505561E-2	-7.397360206E-1	-1.070662498E0
9.777263267E0	3.283303976E-2	-8.483141065E-1	-9.069554806E-1
9.785666288E0	-3.665083554E-3	-9.040539265E-1	-7.527165413E-1
9.794069308E0	-3.359659761E-2	-9.028322697E-1	-6.195518374E-1
9.802472329E0	-7.452336699E-2	-8.538117409E-1	-4.860817194E-1
9.810875350E0	-1.014006436E-1	-7.446228266E-1	-3.504736125E-1
9.819278371E0	-9.834641218E-2	-6.108472347E-1	-2.258607745E-1
9.827681392E0	-7.803573459E-2	-4.892886579E-1	-8.353336155E-2
9.836084413E0	-9.834641218E-2	-4.627167881E-1	1.525591016E-1
9.844487433E0	-2.063136548E-1	-5.952706337E-1	5.844281316E-1
9.852890454E0	-3.329117596E-1	-3.242071867E-1	8.605310917E-1
9.861293475E0	-3.910949528E-1	5.488462448E-1	7.192726731E-1
9.869696496E0	-4.089622498E-1	1.514443040E0	2.968717813E-1
9.878099517E0	-3.469612300E-1	2.059318781E0	-2.733541466E-2
9.886502538E0	-2.145601064E-1	2.053057671E0	-3.054236248E-2
9.894905558E0	-1.174353883E-1	1.444195628E0	2.840439677E-1
9.903308579E0	-1.145338640E-1	3.180987239E-1	6.326850653E-1
9.911711600E0	-1.363716573E-1	-7.073611021E-1	7.727217674E-1
9.920114621E0	-1.824906170E-1	-1.124569774E0	7.424848676E-1
9.928517642E0	-2.588465214E-1	-8.495358229E-1	6.120689511E-1
9.936920663E0	-3.242071867E-1	-2.907632887E-1	4.210264683E-1
9.945323683E0	-3.594835997E-1	1.378987730E-1	2.425063550E-1
9.953726704E0	-3.752129376E-1	3.187095523E-1	1.612636745E-1
9.962129725E0	-3.862081766E-1	2.461714447E-1	1.849340051E-1
9.970532746E0	-4.025483429E-1	-5.344913341E-3	2.241809368E-1
9.978935767E0	-4.275930822E-1	-2.551814318E-1	2.229592502E-1
9.987338788E0	-4.634803534E-1	-3.226800561E-1	1.869192570E-1
9.995741808E0	-4.865398407E-1	-1.832541823E-1	1.814216375E-1
1.000414483E1	-4.769189954E-1	-8.551862091E-3	2.258607745E-1
1.001254785E1	-4.428642690E-1	1.250709742E-1	2.867927849E-1
1.002095087E1	-3.762819171E-1	1.870719790E-1	2.903051674E-1
1.002935389E1	-3.168770075E-1	1.572931707E-1	2.521272004E-1
1.003775691E1	-3.035911024E-1	5.253286287E-2	2.541124523E-1
1.004615993E1	-3.087832928E-1	-8.368607610E-2	3.303156495E-1
1.005456295E1	-2.950392365E-1	-2.092151791E-1	4.072824121E-1
1.006296598E1	-2.866400778E-1	-2.625116110E-1	4.274403751E-1
1.007136900E1	-2.837385535E-1	-2.017323077E-1	4.194993675E-1
1.007977202E1	-2.762556672E-1	-6.536065787E-2	4.158342779E-1
1.008817504E1	-2.564031482E-1	8.215895295E-2	4.130854607E-1
1.009657806E1	-2.270824611E-1	1.881409585E-1	4.075878263E-1
1.010498108E1	-1.847812980E-1	2.234173864E-1	4.057552814E-1
1.011338410E1	-1.389677525E-1	1.632489264E-1	4.204156399E-1
1.012178712E1	-1.088835225E-1	5.360184610E-2	4.479037523E-1
1.013019014E1	-9.116895497E-2	-3.161134571E-2	4.602734149E-1
1.013859316E1	-6.291726977E-2	-6.978929788E-2	4.474456310E-1
1.014699618E1	-2.779355086E-2	-4.153761268E-2	4.275930822E-1
1.015539920E1	-9.162708884E-4	3.588727489E-2	4.049917459E-1
1.016380223E1	3.817795310E-3	1.220167428E-1	3.762819171E-1
1.017220525E1	7.635590620E-3	1.823379099E-1	3.367295563E-1
1.018060827E1	1.878355257E-2	2.052446753E-1	3.020639718E-1
1.018901129E1	2.168507688E-2	1.924168915E-1	2.831276953E-1
1.019741431E1	1.664558798E-2	1.766875684E-1	2.702999115E-1
1.020581733E1	1.466033421E-2	1.795890927E-1	2.522799075E-1
1.021422035E1	1.175880991E-2	1.953184158E-1	2.353289127E-1
1.022262337E1	8.704573847E-3	2.179197669E-1	2.241809368E-1
1.023102639E1	5.650337320E-3	2.186833173E-1	2.157817930E-1
1.023942941E1	1.695101149E-2	2.096733153E-1	2.179197669E-1
1.024783243E1	3.313846514E-2	2.136438340E-1	2.327328026E-1
1.025623545E1	4.230117425E-2	1.928750277E-1	2.490729690E-1
1.026463848E1	4.581354558E-2	1.365243644E-1	2.567085624E-1
1.027304150E1	4.932591692E-2	8.276980370E-2	2.588465214E-1
1.028144452E1	4.535540938E-2	5.268557742E-2	2.753393948E-1
1.028984754E1	4.199574888E-2	5.421269313E-2	2.918322682E-1
1.029825056E1	4.153761268E-2	4.703523964E-2	3.017585576E-1
1.030665358E1	4.260659590E-2	2.535016090E-2	3.122956753E-1
1.031505660E1	4.718795046E-2	6.872031838E-3	3.249707520E-1
1.032345962E1	5.024218559E-2	-1.924168877E-2	3.436015844E-1
1.033186264E1	6.200099736E-2	-4.657710344E-2	3.720059693E-1
1.034026566E1	6.719319522E-2	-6.444438547E-2	4.019374847E-1
1.034866868E1	6.322269142E-2	-1.024696305E-1	4.204156399E-1
1.035707170E1	4.703523964E-2	-1.316375881E-1	4.341596961E-1
1.036547472E1	2.672456764E-2	-1.276670843E-1	4.414898455E-1
1.037387775E1	1.771457121E-2	-1.466033459E-1	4.448495209E-1
1.038228077E1	1.740914769E-2	-2.160872221E-1	4.552339315E-1
1.039068379E1	2.321219631E-2	-2.954973578E-1	4.923428893E-1
1.039908681E1	3.665083647E-2	-3.669664860E-1	5.428904891E-1
1.040748983E1	5.635065958E-2	-3.904841244E-1	5.781669021E-1
1.041589285E1	8.292251825E-2	-3.567348123E-1	6.048914790E-1
1.042429587E1	9.452861547E-2	-3.327590525E-1	6.168029904E-1
1.043269889E1	1.116323397E-1	-2.947337925E-1	6.059604883E-1
1.044110191E1	1.291942000E-1	-2.422009408E-1	5.929799676E-1
1.044950493E1	1.493521482E-1	-2.170034945E-1	5.932853818E-1
1.045790795E1	1.670667231E-1	-2.266243398E-1	6.032116413E-1
1.046631098E1	1.916533262E-1	-2.753393948E-1	6.236750484E-1
1.047471400E1	2.310529798E-1	-3.257342875E-1	6.442911625E-1
1.048311702E1	2.583884001E-1	-3.490992188E-1	6.572716236E-1
1.049152004E1	2.690782249E-1	-3.538332880E-1	6.539120078E-1
1.049992306E1	2.677038014E-1	-3.408527672E-1	6.305471063E-1
1.050832608E1	2.655658424E-1	-3.246653080E-1	6.119162440E-1
1.051672910E1	2.632751763E-1	-3.107685447E-1	6.001574397E-1
1.052513212E1	2.631224692E-1	-3.101576865E-1	5.829010010E-1
1.053353514E1	2.696890533E-1	-3.162661791E-1	5.493044257E-1
1.054193816E1	2.759502530E-1	-3.219164908E-1	4.827220440E-1
1.055034118E1	2.585411072E-1	-4.413371384E-1	4.511106908E-1
1.055874420E1	2.385358512E-1	-6.562026739E-1	5.141806602E-1
1.056714723E1	2.035648525E-1	-7.348492742E-1	6.536065936E-1
1.057555025E1	1.632489264E-1	-6.441384554E-1	7.818844914E-1
1.058395327E1	1.246128380E-1	-5.775560737E-1	8.791618943E-1
1.059235629E1	9.666658193E-2	-5.263976455E-1	9.478822351E-1
1.060075931E1	8.017370105E-2	-3.800997138E-1	1.026986957E0
1.060916233E1	7.589777559E-2	-1.922641695E-1	1.100441337E0
1.061756535E1	6.139015034E-2	1.162136942E-1	1.105022669E0
1.062596837E1	4.993676394E-2	3.576510847E-1	1.098150611E0
1.063437139E1	2.076880634E-2	5.109737515E-1	1.097081661E0
1.064277441E1	-8.857285604E-3	6.200099587E-1	1.057987452E0
1.065117743E1	-9.773556143E-3	6.418477297E-1	9.846857786E-1
1.065958045E1	-1.878355257E-2	5.942016840E-1	9.246700406E-1
1.066798348E1	-3.023693897E-2	7.146912813E-1	7.403468490E-1
1.067638650E1	3.970507067E-3	1.050657272E0	3.332171738E-1
1.068478952E1	3.634541109E-2	1.189472318E0	-1.863084175E-2
1.069319254E1	6.536065787E-2	1.016449809E0	-1.363716573E-1
1.070159556E1	1.102579311E-1	6.981984377E-1	-2.014268786E-1
1.070999858E1	1.713426560E-1	3.474193811E-1	-3.652866483E-1
1.071840160E1	2.182251811E-1	8.444963396E-2	-6.227588058E-1
1.072680462E1	2.429644912E-1	-7.941014133E-3	-8.886300325E-1
1.073520764E1	2.573194206E-1	7.788302377E-3	-1.113421798E0
1.074361066E1	2.672456801E-1	-3.420744836E-2	-1.237118363E0
1.075201368E1	2.730487287E-1	-1.055238619E-1	-1.304769754E0
1.076041670E1	2.706053257E-1	-1.090362370E-1	-1.436560035E0
1.076881972E1	2.608317733E-1	-1.122431830E-1	-1.611720443E0
1.077722275E1	2.542651594E-1	-1.895153672E-1	-1.700293303E0
1.078562577E1	2.560977042E-1	-2.709107697E-1	-1.725032687E0
1.079402879E1	2.415900975E-1	-3.578037918E-1	-1.752826214E0
1.080243181E1	2.070772201E-1	-4.906630516E-1	-1.796043634E0
1.081083483E1	1.659977436E-1	-6.065713167E-1	-1.834527016E0
1.081923785E1	1.375933439E-1	-6.215370893E-1	-1.864000440E0
1.082764087E1	1.244601309E-1	-5.616740584E-1	-1.876370072E0
1.083604389E1	1.256818175E-1	-4.743228853E-1	-1.871941447E0
1.084444691E1	1.226275861E-1	-3.912476599E-1	-1.858655453E0
1.085284993E1	1.020114943E-1	-3.316900730E-1	-1.840940952E0
1.086125295E1	7.986827940E-2	-2.527380586E-1	-1.819408536E0
1.086965598E1	7.177454978E-2	-1.763821393E-1	-1.755422354E0
1.087805900E1	5.940489471E-2	-8.307522535E-2	-1.671736240E0
1.088646202E1	5.879404768E-2	8.292251825E-2	-1.633100152E0
1.089486504E1	7.269082218E-2	2.602209449E-1	-1.632489324E0
1.090326806E1	7.910472155E-2	3.497100472E-1	-1.586828470E0
1.091167108E1	6.627693027E-2	3.912476599E-1	-1.500393629E0
1.092007410E1	5.909947306E-2	3.987305462E-1	-1.409224629E0
1.092847712E1	8.231166750E-2	3.182514310E-1	-1.317597508E0
1.093688014E1	1.050657257E-1	2.211267054E-1	-1.224901438E0
1.094528316E1	1.275143623E-1	2.009687424E-1	-1.142437100E0
1.095368618E1	1.369825006E-1	1.971509457E-1	-1.040731072E0
1.096208920E1	1.327065676E-1	1.487413049E-1	-8.900044560E-1
1.097049223E1	1.070509851E-1	8.811471611E-2	-7.139277458E-1
1.097889525E1	7.101099193E-2	9.391776472E-2	-5.734328628E-1
1.098729827E1	4.245388508E-2	1.937913001E-1	-5.308262706E-1
1.099570129E1	4.734066315E-3	2.235700935E-1	-4.926483035E-1
1.100410431E1	-5.436540768E-2	1.485885978E-1	-3.865135908E-1
1.101250733E1	-1.076618284E-1	5.787777901E-2	-2.049392611E-1
1.102091035E1	-1.400367320E-1	-7.528692484E-2	3.939964995E-2
1.102931337E1	-2.072299272E-1	-2.148655206E-1	2.689255178E-1
1.103771639E1	-2.979407609E-1	-2.571666837E-1	4.416425824E-1
1.104611941E1	-3.524588645E-1	-7.391251624E-2	4.760027230E-1
1.105452243E1	-4.013266563E-1	4.136963189E-1	3.074088693E-1
1.106292545E1	-4.361449480E-1	1.049893737E0	7.009471953E-2
1.107132848E1	-4.045335948E-1	1.446639061E0	-4.840964451E-2
1.107973150E1	-3.020639718E-1	1.114796281E0	1.279724985E-1
1.108813452E1	-2.437280566E-1	2.802261710E-1	4.369085133E-1
1.109653754E1	-2.292204350E-1	-5.537330508E-1	6.540647149E-1
1.110494056E1	-2.373141646E-1	-9.923213720E-1	7.110261917E-1
1.111334358E1	-2.672456801E-1	-9.332218766E-1	6.494833231E-1
1.112174660E1	-3.084778786E-1	-5.401417017E-1	4.957025647E-1
1.113014962E1	-3.558185399E-1	-1.101052165E-1	3.304683566E-1
1.113855264E1	-3.785725832E-1	1.252236813E-1	2.790044844E-1
1.114695566E1	-3.578037918E-1	9.483403713E-2	3.086305857E-1
1.115535868E1	-3.242071867E-1	-1.203369126E-1	3.397837877E-1
1.116376170E1	-3.138227761E-1	-3.558185399E-1	3.642176688E-1
1.117216472E1	-3.475720882E-1	-4.462239146E-1	4.135435820E-1
1.118056775E1	-4.002576768E-1	-3.417690396E-1	4.460712075E-1
1.118897077E1	-4.184303582E-1	-1.102579311E-1	4.098785222E-1
1.119737379E1	-3.962871730E-1	1.383569092E-1	3.132119179E-1
1.120577681E1	-3.620797098E-1	3.228327632E-1	2.565558553E-1
1.121417983E1	-3.307738006E-1	3.866663277E-1	2.765611112E-1
1.122258285E1	-3.078670204E-1	2.936648130E-1	3.379512429E-1
1.123098587E1	-2.898470163E-1	1.015533581E-1	3.707842827E-1
1.123938889E1	-2.631224692E-1	-4.810422286E-2	3.779617548E-1
1.124779191E1	-2.394521236E-1	-6.032116711E-2	3.825430870E-1
1.125619493E1	-2.235700935E-1	4.199574888E-2	3.830012381E-1
1.126459795E1	-2.228065431E-1	1.495048702E-1	3.625378609E-1
1.127300098E1	-2.263189107E-1	2.050919682E-1	3.355078697E-1
1.128140400E1	-2.371614426E-1	2.177670449E-1	3.151971996E-1
1.128980702E1	-2.425063550E-1	1.939440072E-1	3.060344756E-1
1.129821004E1	-2.363978922E-1	1.310267299E-1	3.106158376E-1
1.130661306E1	-2.218902707E-1	4.199574888E-2	3.303156495E-1
1.131501608E1	-2.108950168E-1	-4.611896724E-2	3.509317636E-1
1.132341910E1	-1.879882365E-1	-1.004843712E-1	3.567348123E-1
1.133182212E1	-1.485885978E-1	-9.666658193E-2	3.452814221E-1
1.134022514E1	-1.142284349E-1	-4.443913698E-2	3.242071867E-1
1.134862816E1	-9.727742523E-2	-6.872031838E-3	2.971771955E-1
1.135703118E1	-7.040014863E-2	-3.710897267E-2	2.713688910E-1
1.136543420E1	-5.451811850E-2	-8.612946421E-2	2.490729690E-1
1.137383722E1	-4.550812021E-2	-8.872556686E-2	2.336490750E-1
1.138224025E1	-3.374931216E-2	-5.329642445E-2	2.205158621E-1
1.139064327E1	-3.313846514E-2	-3.710897267E-2	1.992889196E-1
1.139904629E1	-4.443913698E-2	-2.290677279E-2	1.702736765E-1
1.140744931E1	-4.474456236E-2	5.497625098E-3	1.470614821E-1
1.141585233E1	-3.894151375E-2	4.031591862E-2	1.395785958E-1
1.142425535E1	-2.870982140E-2	5.604523420E-2	1.426328421E-1
1.143265837E1	-2.031067200E-2	4.184303805E-2	1.449235082E-1
1.144106139E1	-1.236965694E-2	-4.581354442E-4	1.542389393E-1
1.144946441E1	-1.985253533E-3	-5.558710173E-2	1.560714692E-1
1.145786743E1	6.261184346E-3	-1.244601309E-1	1.566823274E-1
1.146627045E1	9.926267900E-3	-2.011214644E-1	1.672194302E-1
1.147467348E1	1.435491070E-2	-2.458660156E-1	1.731752008E-1
1.148307650E1	1.572931744E-2	-2.588465214E-1	1.797417998E-1
1.149147952E1	1.007897966E-2	-2.199050188E-1	1.939440072E-1
1.149988254E1	1.634016447E-2	-1.467560530E-1	2.069245130E-1
1.150828556E1	2.367033064E-2	-7.956285775E-2	2.124221325E-1
1.151668858E1	2.672456764E-2	-5.696150661E-2	2.240282297E-1
1.152509160E1	2.901524492E-2	-9.177979827E-2	2.506000996E-1
1.153349462E1	2.764083818E-2	-1.385096163E-1	2.819060087E-1
1.154189764E1	2.855710872E-2	-1.782146841E-1	3.142809272E-1
1.155030066E1	3.038965166E-2	-1.933331639E-1	3.542914093E-1
1.155870368E1	3.405473381E-2	-1.777565479E-1	3.943018913E-1
1.156710670E1	3.130592033E-2	-1.739387512E-1	4.193466306E-1
1.157550972E1	2.672456764E-2	-1.701209545E-1	4.333961308E-1
1.158391275E1	2.657185495E-2	-1.418692768E-1	4.527905285E-1
1.159231577E1	3.665083647E-2	-1.206423342E-1	4.691306949E-1
1.160071879E1	4.382828996E-2	-1.443126649E-1	4.879142344E-1
1.160912181E1	5.131116882E-2	-2.006633282E-1	5.100574493E-1
1.161752483E1	5.803048983E-2	-2.626643181E-1	5.247178078E-1
1.162592785E1	7.223268598E-2	-3.054236174E-1	5.444176197E-1
1.163433087E1	8.903098851E-2	-3.280249834E-1	5.774033666E-1
1.164273389E1	1.015533581E-1	-3.290939629E-1	6.207735538E-1
1.165113691E1	1.123958975E-1	-3.168770075E-1	6.581879258E-1
1.165953993E1	1.409530044E-1	-2.918322682E-1	6.791094542E-1
1.166794295E1	1.782146841E-1	-2.655658424E-1	6.998782754E-1
1.167634598E1	2.188360244E-1	-2.531961799E-1	7.302678823E-1
1.168474900E1	2.594573796E-1	-2.877090573E-1	7.514948249E-1
1.169315202E1	2.825168669E-1	-3.384093940E-1	7.621846795E-1
1.170155504E1	2.858765125E-1	-3.901786804E-1	7.672241330E-1
1.170995806E1	2.695363462E-1	-4.317162931E-1	7.713474035E-1
1.171836108E1	2.531961799E-1	-4.428642690E-1	7.768449783E-1
1.172676410E1	2.417428046E-1	-4.271349311E-1	7.869240046E-1
1.173516712E1	2.425063550E-1	-3.871244490E-1	7.670714259E-1
1.174357014E1	2.460187376E-1	-3.678827584E-1	7.101099491E-1
1.175197316E1	2.357870489E-1	-4.388937652E-1	6.937697530E-1
1.176037618E1	2.156290859E-1	-5.076140761E-1	7.507312894E-1
1.176877920E1	1.785201132E-1	-4.996730685E-1	9.014578462E-1
1.177718222E1	1.464506239E-1	-3.706315756E-1	1.027903199E0
1.178558525E1	1.151447073E-1	-2.321219593E-1	1.131441832E0
1.179398827E1	8.842013776E-2	-1.206423342E-1	1.236507535E0
1.180239129E1	9.086353332E-2	1.159082651E-1	1.270562291E0
1.181079431E1	9.513945878E-2	3.985778391E-1	1.282015681E0
1.181919733E1	8.353336155E-2	5.682406425E-1	1.337450027E0
1.182760035E1	5.879404768E-2	7.131641507E-1	1.369519591E0
1.183600337E1	3.863608837E-2	8.487722874E-1	1.357149839E0
1.184440639E1	1.863084175E-2	9.776610136E-1	1.309656501E0
1.185280941E1	-2.214321308E-2	1.117239594E0	1.205354333E0
1.186121243E1	-4.123219103E-2	1.396854997E0	9.028322697E-1
1.186961545E1	-7.788302377E-3	1.609124422E0	4.946335554E-1
1.187801848E1	1.282779220E-2	1.516275644E0	2.221956849E-1
1.188642150E1	1.817270555E-2	1.163816690E0	1.278197914E-1
1.189482452E1	4.703523964E-2	6.792621613E-1	1.985253580E-2
1.190322754E1	1.072036922E-1	2.035648525E-1	-1.907370538E-1
1.191163056E1	1.659977436E-1	-1.630962193E-1	-4.396573007E-1
1.192003358E1	2.043284029E-1	-3.561239541E-1	-6.442911625E-1
1.192843660E1	2.664821148E-1	-4.657710493E-1	-7.800519466E-1
1.193683962E1	2.851129472E-1	-5.398362875E-1	-9.077190161E-1
1.194524264E1	2.449497581E-1	-5.268557668E-1	-1.118766785E0
1.195364566E1	2.229592502E-1	-4.639385045E-1	-1.361578584E0
1.196204868E1	2.396048307E-1	-4.738647640E-1	-1.479777455E0
1.197045170E1	2.646495700E-1	-5.239542127E-1	-1.515206575E0
1.197885473E1	2.666348219E-1	-5.848862529E-1	-1.576749444E0
1.198725775E1	2.651077211E-1	-7.117897868E-1	-1.669750929E0
1.199566077E1	2.605263591E-1	-8.461761475E-1	-1.739234805E0
1.200406379E1	2.432699203E-1	-8.869501948E-1	-1.766417503E0
1.201246681E1	2.192941606E-1	-8.186880350E-1	-1.763668776E0
1.202086983E1	2.050919682E-1	-7.211052179E-1	-1.769013643E0
1.202927285E1	1.963873953E-1	-6.279509664E-1	-1.786880970E0
1.203767587E1	1.763821393E-1	-5.813738704E-1	-1.787797213E0
1.204607889E1	1.435490996E-1	-5.112791657E-1	-1.797570825E0
1.205448191E1	1.333174109E-1	-3.984251320E-1	-1.830861926E0
1.206288493E1	1.301104724E-1	-3.336753249E-1	-1.841551781E0
1.207128795E1	1.191152185E-1	-3.101576865E-1	-1.810551286E0
1.207969098E1	1.070509851E-1	-2.564031482E-1	-1.770998955E0
1.208809400E1	8.811471611E-2	-1.911951900E-1	-1.741983652E0
1.209649702E1	7.879929990E-2	-1.241547018E-1	-1.715259075E0
1.210490004E1	7.131642103E-2	-6.902574003E-2	-1.675859451E0
1.211330306E1	6.902574003E-2	-2.825168520E-2	-1.622715712E0
1.212170608E1	7.513421029E-2	-1.908897609E-2	-1.545596242E0
1.213010910E1	8.796200156E-2	-3.069507517E-2	-1.437170863E0
1.213851212E1	9.116895497E-2	-5.161659420E-2	-1.322331548E0
1.214691514E1	8.704573661E-2	-5.268557742E-2	-1.221847177E0
1.215531816E1	8.383878320E-2	-1.664558798E-2	-1.127013206E0
1.216372118E1	8.506047726E-2	-1.007897966E-2	-1.033859015E0
1.217212420E1	8.964183182E-2	-2.122694254E-2	-9.596410394E-1
1.218052722E1	8.185353130E-2	-5.421269313E-2	-8.791618943E-1
1.218893025E1	5.757235363E-2	-1.348445266E-1	-7.632536292E-1
1.219733327E1	2.825168520E-2	-3.533751369E-1	-5.714476109E-1
1.220573629E1	-2.351761982E-2	-6.117635369E-1	-3.439069986E-1
1.221413931E1	-6.505523622E-2	-7.522584200E-1	-1.354553849E-1
1.222254233E1	-8.444963396E-2	-7.892146707E-1	2.977880463E-2
1.223094535E1	-1.656923145E-1	-8.151756525E-1	2.192941606E-1
1.223934837E1	-2.615953386E-1	-8.988617659E-1	5.428904891E-1
1.224775139E1	-2.678565085E-1	-8.388460279E-1	9.087880254E-1
1.225615441E1	-2.971771955E-1	-3.466558084E-2	8.040276766E-1
1.226455743E1	-2.903051674E-1	9.378032684E-1	4.422534108E-1
1.227296045E1	-2.654131353E-1	1.536128163E0	2.177670449E-1
1.228136348E1	-1.808107942E-1	1.773900390E0	2.470877171E-1
1.228976650E1	-1.261399537E-1	1.238492846E0	4.914266169E-1
1.229816952E1	-1.904316396E-1	2.579302490E-1	6.804838181E-1
1.230657254E1	-2.715215981E-1	-4.643966258E-1	6.714738607E-1
1.231497556E1	-2.890834510E-1	-6.368082762E-1	6.013791561E-1
1.232337858E1	-2.764083743E-1	-4.312581718E-1	5.262449384E-1
1.233178160E1	-2.449497581E-1	-1.401894391E-1	4.407263100E-1
1.234018462E1	-2.165453583E-1	2.641914412E-2	3.671191931E-1
1.234858764E1	-1.985253543E-1	5.268557742E-2	3.385621011E-1
1.235699066E1	-2.079934925E-1	-5.436540768E-2	3.662029207E-1
1.236539368E1	-2.458660156E-1	-1.942494214E-1	4.045335948E-1
1.237379670E1	-2.739650011E-1	-1.945548505E-1	3.788780272E-1
1.238219973E1	-2.719797492E-1	-3.344388679E-2	3.139754832E-1
1.239060275E1	-2.431172132E-1	1.884463727E-1	2.403683960E-1
1.239900577E1	-1.969982386E-1	2.834331393E-1	1.939440072E-1
1.240740879E1	-1.653869003E-1	2.124221325E-1	2.084516287E-1
1.241581181E1	-1.687465608E-1	4.535540938E-2	2.582356930E-1
1.242421483E1	-1.806580722E-1	-1.609582454E-1	3.069507480E-1
1.243261785E1	-1.928750277E-1	-2.632751763E-1	3.124483824E-1
1.244102087E1	-1.968455315E-1	-2.079934925E-1	2.779355049E-1
1.244942389E1	-2.058555335E-1	-3.878879920E-2	2.249445021E-1
1.245782691E1	-2.133384049E-1	1.533226669E-1	1.901262105E-1
1.246622993E1	-2.061609477E-1	2.619007528E-1	1.968455315E-1
1.247463295E1	-2.107423097E-1	2.767138183E-1	2.093679011E-1
1.248303598E1	-2.110477239E-1	2.191414535E-1	2.139492482E-1
1.249143900E1	-1.829487532E-1	1.345391124E-1	2.267770469E-1
1.249984202E1	-1.569877416E-1	6.933116168E-2	2.490729690E-1
1.250824504E1	-1.316375881E-1	1.603474095E-2	2.628170252E-1
1.251664806E1	-1.120904684E-1	3.970507067E-3	2.580829561E-1
1.252505108E1	-9.727742523E-2	2.672456764E-2	2.506000996E-1
1.253345410E1	-8.750387281E-2	6.551336497E-2	2.562504113E-1
1.254185712E1	-7.635590434E-2	1.186570823E-1	2.690782249E-1
1.255026014E1	-4.062134400E-2	1.661504507E-1	2.811424434E-1
1.255866316E1	-4.581354558E-3	2.168507725E-1	2.855710983E-1
1.256706618E1	2.183778957E-2	2.249445021E-1	2.968717813E-1
1.257546920E1	3.466558084E-2	1.711899489E-1	3.190149665E-1
1.258387222E1	3.726168349E-2	1.166718230E-1	3.309265077E-1
1.259227525E1	4.367557913E-2	1.152974218E-1	3.261924386E-1
1.260067827E1	4.581354558E-2	1.418692768E-1	3.266505599E-1
1.260908129E1	4.184303805E-2	1.736333370E-1	3.341334462E-1
1.261748431E1	3.619270027E-2	1.968455315E-1	3.359659910E-1
1.262588733E1	2.932066843E-2	1.948602796E-1	3.370349705E-1
1.263429035E1	1.893626526E-2	1.869192570E-1	3.359659910E-1
1.264269337E1	1.267508045E-2	1.858502775E-1	3.304683566E-1
1.265109639E1	1.435491070E-2	1.910424829E-1	3.316900730E-1
1.265949941E1	2.199050039E-2	1.736333370E-1	3.390202224E-1
1.266790243E1	2.718270384E-2	1.395785958E-1	3.474193811E-1
1.267630545E1	2.596100792E-2	1.056765765E-1	3.506263196E-1
1.268470848E1	3.191677108E-2	8.399149776E-2	3.547495604E-1
1.269311150E1	3.374931216E-2	7.207997888E-2	3.544441164E-1
1.270151452E1	2.870982140E-2	3.878879920E-2	3.512371778E-1
1.270991754E1	2.428117767E-2	-8.246437646E-3	3.480302393E-1
1.271832056E1	2.672456764E-2	-6.200099736E-2	3.515425920E-1
1.272672358E1	3.252761811E-2	-1.185043678E-1	3.633013964E-1
1.273512660E1	4.474456236E-2	-1.650814712E-1	3.759764731E-1
1.274352962E1	5.192201585E-2	-1.875301152E-1	3.874298632E-1
1.275193264E1	6.337540597E-2	-1.911951900E-1	3.972034156E-1
1.276033566E1	7.696675509E-2	-1.931804419E-1	4.071297050E-1
1.276873868E1	9.391776472E-2	-2.069245130E-1	4.161396921E-1
1.277714170E1	1.068982705E-1	-2.223484069E-1	4.213318825E-1
1.278554473E1	1.160609797E-1	-2.357870489E-1	4.294256270E-1
1.279394775E1	1.243074164E-1	-2.399102598E-1	4.422534108E-1
1.280235077E1	1.284306347E-1	-2.440334857E-1	4.485146105E-1
1.281075379E1	1.304158866E-1	-2.538070381E-1	4.540122151E-1
1.281915681E1	1.411057115E-1	-2.634278834E-1	4.727957845E-1
1.282755983E1	1.479777545E-1	-2.883199155E-1	5.044071078E-1
1.283596285E1	1.690519750E-1	-3.290939629E-1	5.338805318E-1
1.284436587E1	2.040229887E-1	-3.611634374E-1	5.676298141E-1
1.285276889E1	2.502946556E-1	-3.859027624E-1	6.050441861E-1
1.286117191E1	2.866400778E-1	-4.601207078E-1	6.276455522E-1
1.286957493E1	2.953446507E-1	-5.583143830E-1	6.302416325E-1
1.287797795E1	2.773246467E-1	-6.352811456E-1	6.384881139E-1
1.288638098E1	2.660239935E-1	-6.398624778E-1	6.603258848E-1
1.289478400E1	2.738122940E-1	-6.090146899E-1	6.810947061E-1
1.290318702E1	2.819060087E-1	-5.879405141E-1	7.015580535E-1
1.291159004E1	2.785463631E-1	-5.493044257E-1	7.629482150E-1
1.291999306E1	2.710634768E-1	-4.112529159E-1	8.796200752E-1
1.292839608E1	2.648022771E-1	-2.202104330E-1	9.949174523E-1
1.293679910E1	2.466295809E-1	-6.016845629E-2	1.083032131E0
1.294520212E1	2.229592502E-1	2.580829710E-2	1.141062737E0
1.295360514E1	2.221956849E-1	1.056765765E-1	1.208714008E0
1.296200816E1	2.130329758E-1	2.896943092E-1	1.272394896E0
1.297041118E1	1.889045089E-1	5.891621709E-1	1.296370625E0
1.297881420E1	1.673721522E-1	8.677085042E-1	1.295148849E0
1.298721722E1	1.473668963E-1	1.066997409E0	1.287513256E0
1.299562025E1	1.265980899E-1	1.195428133E0	1.275449038E0
1.300402327E1	1.043021679E-1	1.244753957E0	1.249029875E0
1.301242629E1	5.192201585E-2	1.303395391E0	1.174048424E0
1.302082931E1	1.954711229E-2	1.495506763E0	9.619317055E-1
1.302923233E1	5.971032009E-2	1.713579297E0	6.097782850E-1
1.303763535E1	8.078455180E-2	1.687923670E0	3.339807391E-1
1.304603837E1	7.498150319E-2	1.425564766E0	2.165453583E-1
1.305444139E1	1.035386100E-1	9.878927469E-1	1.369825006E-1
1.306284441E1	1.632489264E-1	4.912739098E-1	-2.428117767E-2
1.307124743E1	2.008160353E-1	1.188097894E-1	-2.476985604E-1
1.307965045E1	2.185306102E-1	-5.818320066E-2	-4.553866386E-1
1.308805348E1	2.493783981E-1	-1.424801201E-1	-6.016845703E-1
1.309645650E1	2.437280566E-1	-1.548497826E-1	-7.571451664E-1
1.310485952E1	2.044811249E-1	-4.214845970E-2	-1.013853788E0
1.311326254E1	1.789782494E-1	3.130592033E-2	-1.238340139E0
1.312166556E1	1.831014603E-1	8.093725890E-3	-1.353637576E0
1.313006858E1	1.954711229E-1	-4.535540938E-2	-1.439156175E0
1.313847160E1	2.024958730E-1	-1.641651988E-1	-1.535670042E0
1.314687462E1	1.965401024E-1	-3.332171738E-1	-1.622868419E0
1.315527764E1	1.937913001E-1	-4.601207078E-1	-1.681357026E0
1.316368066E1	1.875301152E-1	-5.239542127E-1	-1.696170092E0
1.317208368E1	1.721062213E-1	-5.410579443E-1	-1.692199588E0
1.318048670E1	1.420219839E-1	-5.097520351E-1	-1.707318068E0
1.318888973E1	1.137702987E-1	-4.492781460E-1	-1.746564984E0
1.319729275E1	9.055810422E-2	-3.727695346E-1	-1.774664044E0
1.320569577E1	8.674030751E-2	-2.753393948E-1	-1.774969459E0
1.321409879E1	9.834641218E-2	-2.023431510E-1	-1.741830945E0
1.322250181E1	1.113269106E-1	-1.837123185E-1	-1.704111099E0
1.323090483E1	1.230857223E-1	-1.843231618E-1	-1.692810416E0
1.323930785E1	1.139230132E-1	-1.798945218E-1	-1.707623482E0
1.324771087E1	8.719844371E-2	-1.711899489E-1	-1.730072141E0
1.325611389E1	6.322269142E-2	-1.429382563E-1	-1.729919434E0
1.326451691E1	5.772506446E-2	-1.230857223E-1	-1.677386522E0
1.327291993E1	7.009471953E-2	-1.615691036E-1	-1.581178188E0
1.328132295E1	8.597674966E-2	-2.435753495E-1	-1.482679009E0
1.328972598E1	9.620844573E-2	-3.429907262E-1	-1.401741743E0
1.329812900E1	9.162709117E-2	-4.422534108E-1	-1.325233102E0
1.330653202E1	6.413896382E-2	-4.715740979E-1	-1.252847672E0
1.331493504E1	3.497100621E-2	-4.164451063E-1	-1.190083146E0
1.332333806E1	1.664558798E-2	-3.202366829E-1	-1.126860499E0
1.333174108E1	6.872031838E-3	-2.209739983E-1	-1.042716265E0
1.334014410E1	4.581354442E-4	-1.479777545E-1	-9.098569751E-1
1.334854712E1	-2.000524849E-2	-1.188097894E-1	-7.351546884E-1
1.335695014E1	-3.726168349E-2	-6.933116168E-2	-5.767925382E-1
1.336535316E1	-3.176405653E-2	4.001049697E-2	-4.798205197E-1
1.337375618E1	-2.214321308E-2	1.349972486E-1	-4.159869850E-1
1.338215920E1	-2.275406010E-2	1.670667231E-1	-3.313846290E-1
1.339056222E1	-4.169032723E-2	1.559187621E-1	-2.298312783E-1
1.339896525E1	-6.001574174E-2	1.206423342E-1	-1.162136942E-1
1.340736827E1	-8.261708915E-2	1.832541823E-2	2.825168520E-2
1.341577129E1	-1.105633527E-1	-8.796200156E-2	1.774511337E-1
1.342417431E1	-1.411057115E-1	-1.643179059E-1	3.199312389E-1
1.343257733E1	-2.024958730E-1	-2.043284029E-1	4.419479966E-1
1.344098035E1	-3.472666740E-1	-5.390727147E-2	4.068242610E-1
1.344938337E1	-5.273138881E-1	3.912476599E-1	1.366770715E-1
1.345778639E1	-6.294780970E-1	9.185615778E-1	-1.403421611E-1
1.346618941E1	-5.854970813E-1	1.234216928E0	-2.034121305E-1
1.347459243E1	-3.758237660E-1	8.768712282E-1	7.269082218E-2
1.348299545E1	-2.012741715E-1	-2.588465214E-1	4.708105326E-1
1.349139848E1	-1.809635013E-1	-1.356233597E0	7.047650218E-1
1.349980150E1	-2.220429778E-1	-1.714190125E0	7.849387527E-1
1.350820452E1	-2.959555089E-1	-1.246281147E0	6.814001203E-1
1.351660754E1	-3.791834414E-1	-2.771719396E-1	3.735330999E-1
1.352501056E1	-4.274403751E-1	4.744756222E-1	1.026223376E-1
1.353341358E1	-4.373666346E-1	7.371399403E-1	6.688777357E-2
1.354181660E1	-4.129327536E-1	6.259657145E-1	1.896680743E-1
1.355021962E1	-3.631486893E-1	3.490992188E-1	2.695363462E-1
1.355862264E1	-3.460449576E-1	1.374406368E-1	2.887780368E-1
1.356702566E1	-3.741439581E-1	1.064401343E-1	3.132119179E-1
1.357542868E1	-3.854446113E-1	2.185306102E-1	3.402419090E-1
1.358383170E1	-3.602471650E-1	3.268032968E-1	3.284831047E-1
1.359223472E1	-3.176405728E-1	3.599417508E-1	3.124483824E-1
1.360063775E1	-2.768665254E-1	3.229855001E-1	3.388675153E-1
1.360904077E1	-2.744231224E-1	2.095206082E-1	4.008685052E-1
1.361744379E1	-2.683146596E-1	7.666133344E-2	4.746283293E-1
1.362584681E1	-2.423536479E-1	1.817270555E-2	5.270084739E-1
1.363424983E1	-2.244863659E-1	5.894676223E-2	5.506787896E-1
1.364265285E1	-2.229592502E-1	1.595838517E-1	5.488462448E-1
1.365105587E1	-2.160872221E-1	2.084516287E-1	5.419742465E-1
1.365945889E1	-1.782146841E-1	1.922641695E-1	5.430431962E-1
1.366786191E1	-1.375933439E-1	1.592784226E-1	5.583143830E-1
1.367626493E1	-1.217113137E-1	9.727742523E-2	5.711421967E-1
1.368466795E1	-1.009425074E-1	3.771981969E-2	5.674771070E-1
1.369307098E1	-7.605048269E-2	2.412846684E-2	5.569399595E-1
1.370147400E1	-6.749862432E-2	7.559234649E-2	5.331169367E-1
1.370987702E1	-6.383354217E-2	1.264453828E-1	5.004366040E-1
1.371828004E1	-5.573981255E-2	1.550024897E-1	4.866925478E-1
1.372668306E1	-5.268557742E-2	1.824906170E-1	4.815003574E-1
1.373508608E1	-4.978405312E-2	2.052446753E-1	4.602734149E-1
1.374348910E1	-4.459185153E-2	2.043284029E-1	4.370612204E-1
1.375189212E1	-3.924693540E-2	1.885990947E-1	4.306473136E-1
1.376029514E1	-1.786728203E-2	1.792836636E-1	4.217900336E-1
1.376869816E1	-7.788302377E-3	1.669140160E-1	4.063661397E-1
1.377710118E1	4.581354442E-4	1.618745178E-1	3.993414044E-1
1.378550420E1	6.872031838E-3	1.672194302E-1	3.984251320E-1
1.379390723E1	1.160609815E-2	1.637070626E-1	3.941491842E-1
1.380231025E1	1.374406368E-2	1.546970755E-1	3.871244490E-1
1.381071327E1	1.603474095E-2	1.569877416E-1	3.863608837E-1
1.381911629E1	2.046338283E-2	1.565296054E-1	3.884988427E-1
1.382751931E1	2.519745007E-2	1.262926757E-1	3.927747905E-1
1.383592233E1	2.932066843E-2	9.101624042E-2	4.109475017E-1
1.384432535E1	3.451287001E-2	6.551336497E-2	4.349232614E-1
1.385272837E1	3.512371704E-2	3.863608837E-2	4.488200247E-1
1.386113139E1	4.520269856E-2	1.588202827E-2	4.537068009E-1
1.386953441E1	5.619794875E-2	1.267508045E-2	4.573718905E-1
1.387793743E1	6.123743951E-2	2.428117767E-2	4.689779878E-1
1.388634045E1	5.940489471E-2	1.908897609E-2	4.741701782E-1
1.389474348E1	4.993676394E-2	-1.313321572E-2	4.691306949E-1
1.390314650E1	4.260659590E-2	-3.634541109E-2	4.608842432E-1
1.391154952E1	3.848337755E-2	-3.634541109E-2	4.605788291E-1
1.391995254E1	3.771981969E-2	-4.153761268E-2	4.627167881E-1
1.392835556E1	3.680354729E-2	-5.344913527E-2	4.576773047E-1
1.393675858E1	3.909422457E-2	-6.276455522E-2	4.524851143E-1
1.394516160E1	4.642439261E-2	-6.245913357E-2	4.491254389E-1
1.395356462E1	5.283828825E-2	-9.849911928E-2	4.491254389E-1
1.396196764E1	5.848862603E-2	-1.579040140E-1	4.498890042E-1
1.397037066E1	6.154286116E-2	-2.046338320E-1	4.489727318E-1
1.397877368E1	6.856760383E-2	-2.353289127E-1	4.443913698E-1
1.398717670E1	7.421794534E-2	-2.675510943E-1	4.367557764E-1
1.399557972E1	8.292251825E-2	-2.941229641E-1	4.283566475E-1
1.400398275E1	8.948912472E-2	-3.002314270E-1	4.185830951E-1
1.401238577E1	9.956810623E-2	-2.944283783E-1	4.153761268E-1
1.402078879E1	1.078145429E-1	-2.982461751E-1	4.155288339E-1
1.402919181E1	1.088835225E-1	-2.962609231E-1	4.259132445E-1
1.403759483E1	1.133121699E-1	-2.835858464E-1	4.457657933E-1
1.404599785E1	1.317902952E-1	-2.727433145E-1	4.714213610E-1
1.405440087E1	1.554606259E-1	-2.487675399E-1	4.989095032E-1
1.406280389E1	1.832541823E-1	-2.235700935E-1	5.092939138E-1
1.407120691E1	2.035648525E-1	-2.200577259E-1	5.037962794E-1
1.407960993E1	2.171562016E-1	-2.176143378E-1	4.743228853E-1
1.408801295E1	2.182251811E-1	-1.794363856E-1	4.060607255E-1
1.409641598E1	1.951656938E-1	-2.397575527E-1	3.765873313E-1
1.410481900E1	1.701209545E-1	-4.115583301E-1	4.002576768E-1
1.411322202E1	1.349972486E-1	-5.445703268E-1	5.231906772E-1
1.412162504E1	9.529217333E-2	-4.891359508E-1	7.163711190E-1
1.413002806E1	3.848337755E-2	-3.952181637E-1	8.980981708E-1
1.413843108E1	-1.191152167E-2	-3.494046330E-1	1.054169655E0
1.414683410E1	-3.741439432E-2	-1.777565479E-1	1.088377118E0
1.415523712E1	-4.657710344E-2	-5.253286287E-2	1.124875188E0
1.416364014E1	-4.504998401E-2	4.275931045E-3	1.222152710E0
1.417204316E1	-5.787777901E-2	4.382828996E-2	1.317292094E0
1.418044618E1	-6.917845458E-2	6.200099736E-2	1.370588541E0
1.418884920E1	-6.826218218E-2	1.655396074E-1	1.373031974E0
1.419725223E1	-6.413896382E-2	3.318427801E-1	1.327523828E0
1.420565525E1	-6.749862432E-2	4.576773047E-1	1.249488115E0
1.421405827E1	-8.154810965E-2	6.377245188E-1	1.045923233E0
1.422246129E1	-6.306997687E-2	1.001636744E0	6.157340407E-1
1.423086431E1	-1.863084175E-2	1.220930934E0	1.924168915E-1
1.423926733E1	4.718795046E-2	1.076007485E0	1.908897609E-2
1.424767035E1	1.215586066E-1	8.377770185E-1	-6.352811307E-2
1.425607337E1	1.762294322E-1	5.676298141E-1	-1.884463727E-1
1.426447639E1	2.556395829E-1	2.809897363E-1	-3.855973184E-1
1.427287941E1	3.287885487E-1	1.076618284E-1	-6.195518374E-1
1.428128243E1	3.603998721E-1	2.825168520E-2	-8.310576677E-1
1.428968545E1	3.668137789E-1	-6.459710002E-2	-9.831586480E-1
1.429808848E1	3.742966652E-1	-8.933641016E-2	-1.122737288E0
1.430649150E1	3.868190348E-1	-1.324011385E-1	-1.238187432E0
1.431489452E1	3.796415627E-1	-1.568350345E-1	-1.359440565E0
1.432329754E1	3.561239541E-1	-1.707318127E-1	-1.494895935E0
1.433170056E1	3.379512429E-1	-2.261662036E-1	-1.564379811E0
1.434010358E1	3.193204105E-1	-2.605263591E-1	-1.573389769E0
1.434850660E1	2.867927849E-1	-1.913478971E-1	-1.585301399E0
1.435690962E1	2.506000996E-1	-8.276980370E-2	-1.620730519E0
1.436531264E1	2.518217862E-1	-1.466033421E-2	-1.669750929E0
1.437371566E1	2.651077211E-1	4.504998401E-2	-1.709456086E0
1.438211868E1	2.629697323E-1	1.003316641E-1	-1.723352790E0
1.439052170E1	2.593046725E-1	1.353026628E-1	-1.711746693E0
1.439892472E1	2.536543310E-1	1.562241912E-1	-1.690214396E0
1.440732775E1	2.229592502E-1	1.997470558E-1	-1.656617761E0
1.441573077E1	1.743968874E-1	2.528907657E-1	-1.601336122E0
1.442413379E1	1.904316396E-1	3.924693763E-1	-1.600114346E0
1.443253681E1	2.298312783E-1	4.760027230E-1	-1.630656719E0
1.444093983E1	2.522799075E-1	4.559974670E-1	-1.630504012E0
1.444934285E1	2.634278834E-1	3.448232710E-1	-1.584995866E0
1.445774587E1	2.733541429E-1	1.669140160E-1	-1.517650008E0
1.446614889E1	2.739650011E-1	-4.123219103E-2	-1.436254621E0
1.447455191E1	2.580829561E-1	-2.516690791E-1	-1.343100429E0
1.448295493E1	2.388412803E-1	-3.997995257E-1	-1.272853017E0
1.449135795E1	2.179197669E-1	-4.700469673E-1	-1.238798261E0
1.449976098E1	2.084516287E-1	-5.267030597E-1	-1.187181592E0
1.450816400E1	1.876828223E-1	-6.151232123E-1	-1.076007485E0
1.451656702E1	1.496575773E-1	-6.699467301E-1	-9.478822351E-1
1.452497004E1	9.468132257E-2	-6.491779089E-1	-8.785510659E-1
1.453337306E1	4.963133857E-2	-5.815265775E-1	-8.557969928E-1
1.454177608E1	2.733541466E-2	-5.238015056E-1	-8.196043372E-1
1.455017910E1	9.009997360E-3	-4.825693369E-1	-7.459971905E-1
1.455858212E1	-2.000524849E-2	-4.732539058E-1	-6.340594292E-1
1.456698514E1	-5.451811850E-2	-5.322006941E-1	-4.895940721E-1
1.457538816E1	-7.681404054E-2	-6.160394549E-1	-3.269560039E-1
1.458379118E1	-8.918370306E-2	-7.000309825E-1	-1.794363856E-1
1.459219420E1	-8.353336155E-2	-7.881456614E-1	-3.542914242E-2
1.460059723E1	-8.933641016E-2	-7.762341499E-1	9.681928903E-2
1.460900025E1	-1.220167428E-1	-6.691831946E-1	2.927485406E-1
1.461740327E1	-2.041756958E-1	-5.862606764E-1	6.006155610E-1
1.462580629E1	-3.113794029E-1	-3.723114133E-1	8.480086923E-1
1.463420931E1	-4.075878263E-1	1.562241912E-1	7.918107510E-1
1.464261233E1	-4.590517282E-1	1.005454540E0	4.017847776E-1
1.465101535E1	-3.947600424E-1	1.800319552E0	-3.894151375E-2
1.465941837E1	-2.470877171E-1	2.023889780E0	-1.762294322E-1
1.466782139E1	-1.722589284E-1	1.435796499E0	1.351499557E-1
1.467622441E1	-2.137965411E-1	3.188622594E-1	5.535803437E-1
1.468462743E1	-2.730487287E-1	-7.601994276E-1	7.313368917E-1
1.469303045E1	-2.790044844E-1	-1.285222650E0	6.623111367E-1
1.470143348E1	-2.867927849E-1	-1.157250166E0	5.320479870E-1
1.470983650E1	-3.321481943E-1	-5.810684562E-1	4.297310412E-1
1.471823952E1	-3.857500553E-1	5.940489471E-2	3.936910629E-1
1.472664254E1	-4.138490260E-1	4.643966258E-1	3.779617548E-1
1.473504556E1	-3.929274976E-1	6.056550741E-1	3.191677034E-1
1.474344858E1	-3.746020794E-1	5.763344169E-1	2.739650011E-1
1.475185160E1	-3.840702176E-1	5.308262706E-1	3.249707520E-1
1.476025462E1	-3.849864900E-1	5.102101564E-1	4.497362971E-1
1.476865764E1	-3.596363366E-1	4.938700199E-1	5.380037427E-1
1.477706066E1	-3.174878657E-1	4.564556181E-1	5.305208564E-1
1.478546368E1	-2.472404242E-1	3.833066523E-1	4.999784827E-1
1.479386670E1	-1.756185889E-1	2.800734639E-1	5.341859460E-1
1.480226972E1	-1.180462316E-1	1.366770715E-1	6.050441861E-1
1.481067275E1	-8.597674966E-2	-5.497625098E-3	6.401679516E-1
1.481907577E1	-9.498675168E-2	-3.191677108E-2	6.146650314E-1
1.482747879E1	-1.140757278E-1	1.168245375E-1	5.664080977E-1
1.483588181E1	-1.140757278E-1	3.613161445E-1	5.196782947E-1
1.484428483E1	-1.177408099E-1	5.236487985E-1	4.595098495E-1
1.485268785E1	-1.366770715E-1	5.590779781E-1	4.042281806E-1
1.486109087E1	-1.464506239E-1	5.005893111E-1	3.788780272E-1
1.486949389E1	-1.275143623E-1	3.713951409E-1	3.843756318E-1
1.487789691E1	-1.041494608E-1	2.267770469E-1	3.854446113E-1
1.488629993E1	-8.643488586E-2	9.544488788E-2	3.723114133E-1
1.489470295E1	-6.704048812E-2	2.122694254E-2	3.585673273E-1
1.490310598E1	-5.436540768E-2	2.397575416E-2	3.471139669E-1
1.491150900E1	-4.443913698E-2	7.559234649E-2	3.235963285E-1
1.491991202E1	-3.985778242E-2	1.360662282E-1	2.872509360E-1
1.492831504E1	-3.466558084E-2	1.684411317E-1	2.597627938E-1
1.493671806E1	-2.855710872E-2	1.623326540E-1	2.409792393E-1
1.494512108E1	-2.550287358E-2	1.235438585E-1	2.299840003E-1
1.495352410E1	-2.397575416E-2	7.009471953E-2	2.344126403E-1
1.496192712E1	-2.122694254E-2	9.162709117E-3	2.512109280E-1
1.497033014E1	-1.527118124E-2	-3.222219273E-2	2.564031482E-1
1.497873316E1	-1.527118124E-2	-1.236965694E-2	2.551814318E-1
1.498713618E1	-1.557660475E-2	2.076880634E-2	2.585411072E-1
1.499553920E1	7.635590620E-3	9.009997360E-3	2.553341687E-1
1.500394223E1	1.863084175E-2	-2.412846684E-2	2.418955117E-1
1.501234525E1	1.435491070E-2	-5.390727147E-2	2.392994165E-1
1.502074827E1	1.878355257E-2	-6.994201243E-2	2.533488870E-1
1.502915129E1	1.985253580E-2	-4.856235534E-2	2.678565085E-1
1.503755431E1	2.412846684E-2	-1.404948719E-2	2.741177082E-1
1.504595733E1	2.672456764E-2	1.068982668E-2	2.736595869E-1
1.505436035E1	2.901524492E-2	6.872031838E-3	2.695363462E-1
1.506276337E1	3.008422814E-2	-1.252236869E-2	2.651077211E-1
1.507116639E1	3.069507517E-2	-2.840439789E-2	2.695363462E-1
1.507956941E1	3.206948191E-2	-5.512896553E-2	2.809897363E-1
1.508797243E1	3.481829539E-2	-9.132166207E-2	2.925958335E-1
1.509637545E1	3.298575059E-2	-1.345391124E-1	2.980934680E-1
1.510477848E1	3.130592033E-2	-1.895153672E-1	2.954973578E-1
1.511318150E1	2.351761982E-2	-2.548760176E-1	2.973299026E-1
1.512158452E1	1.695101149E-2	-2.974826097E-1	3.000787199E-1
1.512998754E1	1.527118124E-2	-3.168770075E-1	3.006895781E-1
1.513839056E1	1.618745178E-2	-3.246653080E-1	2.961082160E-1
1.514679358E1	1.267508045E-2	-3.205420971E-1	2.930539846E-1
1.515519660E1	1.420219894E-2	-3.109212518E-1	2.893888950E-1
1.516359962E1	1.863084175E-2	-2.964136302E-1	2.910687327E-1
1.517200264E1	3.329117596E-2	-2.846548259E-1	3.008422852E-1
1.518040566E1	5.161659420E-2	-3.038965166E-1	3.246653080E-1
1.518880868E1	7.085828483E-2	-3.645231128E-1	3.567348123E-1
1.519721170E1	9.208522737E-2	-4.474456310E-1	3.932329118E-1
1.520561472E1	1.105633527E-1	-5.286883116E-1	4.427115619E-1
1.521401775E1	1.201841980E-1	-5.839699507E-1	4.989095032E-1
1.522242077E1	1.275143623E-1	-6.152759194E-1	5.535803437E-1
1.523082379E1	1.417165697E-1	-6.135960817E-1	6.007682681E-1
1.523922681E1	1.632489264E-1	-5.880932212E-1	6.142069101E-1
1.524762983E1	1.739387512E-1	-5.363239050E-1	5.830537081E-1
1.525603285E1	1.571404636E-1	-5.325061083E-1	5.761816502E-1
1.526443587E1	1.408002973E-1	-5.457920432E-1	6.377245188E-1
1.527283889E1	1.440072358E-1	-4.880669713E-1	7.250757217E-1
1.528124191E1	1.394258887E-1	-4.401154518E-1	8.108997345E-1
1.528964493E1	1.122431830E-1	-4.333961308E-1	9.124531150E-1
1.529804795E1	1.035386100E-1	-3.301629424E-1	1.011104941E0
1.530645098E1	9.407047927E-2	-1.766875684E-1	1.089904189E0
1.531485400E1	8.200624585E-2	-2.870982140E-2	1.141215444E0
1.532325702E1	6.352811307E-2	1.214058921E-1	1.161984205E0
1.533166004E1	2.367033064E-2	2.530434728E-1	1.164427638E0
1.534006306E1	-4.627167806E-2	3.561239541E-1	1.118919492E0
1.534846608E1	-8.521319181E-2	4.416425824E-1	9.856020808E-1
1.535686910E1	-5.299099907E-2	4.034646153E-1	8.257128000E-1
1.536527212E1	-4.718795046E-2	2.339545041E-1	7.504258752E-1
1.537367514E1	-5.344913527E-2	2.069245130E-1	6.021426916E-1
1.538207816E1	6.108472589E-4	3.530697227E-1	2.502946556E-1
1.539048118E1	5.314370990E-2	4.204156399E-1	-1.088835225E-1
1.539888420E1	7.910472155E-2	3.045073450E-1	-2.637332976E-1
1.540728723E1	9.269607067E-2	5.482354015E-2	-2.938175201E-1
1.541569025E1	1.314848661E-1	-1.849340051E-1	-3.985778391E-1
1.542409327E1	1.603474021E-1	-3.023693860E-1	-5.816792846E-1
1.543249629E1	1.556133330E-1	-2.525853515E-1	-7.718055248E-1
1.544089931E1	1.441599578E-1	-9.712471068E-2	-9.283351302E-1
1.544930233E1	1.406475753E-1	3.726168349E-2	-1.036455035E0
1.545770535E1	1.369825006E-1	9.376505762E-2	-1.106397152E0
1.546610837E1	1.388150454E-1	7.910472155E-2	-1.160304427E0
1.547451139E1	1.459924877E-1	7.482878864E-3	-1.198024154E0
1.548291441E1	1.473668963E-1	-7.223268598E-2	-1.217113137E0
1.549131743E1	1.435490996E-1	-1.130067408E-1	-1.230246425E0
1.549972045E1	1.320957243E-1	-1.067455560E-1	-1.254069448E0
1.550812348E1	1.336228400E-1	-5.711421743E-2	-1.291025639E0
1.551652650E1	1.414111406E-1	9.162708884E-4	-1.319888234E0
1.552492952E1	1.493521482E-1	5.787777901E-2	-1.333937645E0
1.553333254E1	1.594311297E-1	1.418692768E-1	-1.352721214E0
1.554173556E1	1.728697717E-1	2.347180545E-1	-1.383874416E0
1.555013858E1	1.818797737E-1	2.999260128E-1	-1.415943980E0
1.555854160E1	1.812689304E-1	3.165715933E-1	-1.431367874E0
1.556694462E1	1.934858710E-1	3.170297146E-1	-1.419150949E0
1.557534764E1	2.073826492E-1	3.054236174E-1	-1.362036705E0
1.558375066E1	2.108950168E-1	2.872509360E-1	-1.288124204E0
1.559215368E1	2.148655206E-1	3.002314270E-1	-1.246739268E0
1.560055670E1	2.104368806E-1	3.720059693E-1	-1.265217423E0
1.560895973E1	2.041756958E-1	4.639385045E-1	-1.302937150E0
1.561736275E1	2.070772201E-1	5.121954083E-1	-1.306296825E0
1.562576577E1	2.174616307E-1	4.701996744E-1	-1.252847672E0
1.563416879E1	2.145601064E-1	3.584146202E-1	-1.179393291E0
1.564257181E1	2.050919682E-1	2.160872221E-1	-1.110062122E0
1.565097483E1	1.921114624E-1	6.780404598E-2	-1.052642584E0
1.565937785E1	1.728697717E-1	-1.847812906E-2	-1.017518878E0
1.566778087E1	1.586675793E-1	-1.756185852E-2	-1.003011227E0
1.567618389E1	1.496575773E-1	1.481304597E-2	-1.000567794E0
1.568458691E1	1.412584335E-1	1.496575773E-2	-9.898779988E-1
1.569298993E1	1.546970755E-1	-5.604523420E-2	-9.536852837E-1
1.570139295E1	1.620272398E-1	-2.211267054E-1	-8.634325862E-1
1.570979598E1	1.374406368E-1	-5.028799772E-1	-7.114843726E-1
1.571819900E1	7.192726433E-2	-7.317950130E-1	-5.761816502E-1
1.572660202E1	7.330167107E-3	-6.702521443E-1	-5.601469278E-1
1.573500504E1	-4.749337584E-2	-4.848600030E-1	-5.987830162E-1
1.574340806E1	-6.826218218E-2	-3.830012381E-1	-5.989357233E-1
1.575181108E1	-7.605048269E-2	-4.637857676E-1	-5.144860744E-1
1.576021410E1	-1.023169160E-1	-7.084301114E-1	-3.710896969E-1
1.576861712E1	-1.366770715E-1	-9.976662993E-1	-2.151709497E-1
1.577702014E1	-1.485885978E-1	-1.170077920E0	-1.130067408E-1
1.578542316E1	-1.421747059E-1	-1.192526579E0	-6.398624927E-2
1.579382618E1	-1.404948682E-1	-1.149156451E0	2.504473738E-2
1.580222920E1	-1.863084137E-1	-1.119683027E0	2.748812735E-1
1.581063222E1	-3.422271907E-1	-1.084712029E0	6.774296165E-1
1.581903525E1	-5.190674663E-1	-6.545228362E-1	8.276980519E-1
1.582743827E1	-6.227588058E-1	4.161396921E-1	4.787515402E-1
1.583584129E1	-5.395308137E-1	1.593700528E0	-4.474456236E-2
1.584424431E1	-3.239017725E-1	2.061304092E0	-2.144073844E-1
1.585264733E1	-1.879882365E-1	1.540098667E0	1.151447073E-1
1.586105035E1	-2.101314515E-1	2.147128135E-1	6.636855602E-1
1.586945337E1	-2.638860047E-1	-9.914051294E-1	9.164236188E-1
1.587785639E1	-2.838912606E-1	-1.337908268E0	8.725953102E-1
1.588625941E1	-3.316900730E-1	-9.481876493E-1	7.429429889E-1
1.589466243E1	-3.978142738E-1	-2.761029601E-1	6.093201637E-1
1.590306545E1	-3.741439581E-1	2.250972092E-1	5.115845799E-1
1.591146848E1	-3.141281903E-1	4.579827189E-1	4.552339315E-1
1.591987150E1	-2.973299026E-1	5.289937258E-1	4.175141156E-1
1.592827452E1	-3.074088693E-1	5.274665952E-1	3.907895386E-1
1.593667754E1	-3.077143133E-1	4.813476503E-1	3.834593594E-1
1.594508056E1	-2.962609231E-1	3.788780272E-1	3.912476599E-1
1.595348358E1	-2.823641598E-1	2.603736520E-1	4.063661397E-1
1.596188660E1	-2.415900975E-1	1.371352077E-1	4.304946065E-1
1.597028962E1	-1.875301152E-1	-4.581354558E-3	4.674508572E-1
1.597869264E1	-1.568350345E-1	-1.278197914E-1	5.190674663E-1
1.598709566E1	-1.568350345E-1	-1.424801201E-1	5.380037427E-1
1.599549868E1	-1.681357026E-1	-7.131642103E-2	5.063923597E-1
1.600390170E1	-1.809635013E-1	4.764608666E-2	4.408790171E-1
1.601230472E1	-1.895153672E-1	1.795890927E-1	3.691044450E-1
1.602070775E1	-1.913478971E-1	2.473931462E-1	3.297048211E-1
1.602911077E1	-1.849340051E-1	2.260134816E-1	3.258870244E-1
1.603751379E1	-1.643179059E-1	1.571404636E-1	3.390202224E-1
1.604591681E1	-1.354553849E-1	1.043021679E-1	3.539859951E-1
1.605431983E1	-1.035386100E-1	6.856760383E-2	3.539859951E-1
1.606272285E1	-7.757759839E-2	3.374931216E-2	3.400892019E-1
1.607112587E1	-5.635065958E-2	1.893626526E-2	3.103103936E-1
1.607952889E1	-4.932591692E-2	1.725643501E-2	2.767138183E-1
1.608793191E1	-4.825693369E-2	1.496575773E-2	2.530434728E-1
1.609633493E1	-4.947862774E-2	2.214321308E-2	2.440334857E-1
1.610473795E1	-5.512896553E-2	3.817795217E-2	2.492256761E-1
1.611314098E1	-6.536065787E-2	6.597150117E-2	2.411319613E-1
1.612154400E1	-6.444438547E-2	8.628217876E-2	2.229592502E-1
1.612994702E1	-5.314370990E-2	8.643488586E-2	2.073826492E-1
1.613835004E1	-4.001049697E-2	5.115845799E-2	1.991362125E-1
1.614675306E1	-2.672456764E-2	-2.596100792E-2	1.979145110E-1
1.615515608E1	-1.236965694E-2	-8.887827396E-2	2.082989216E-1
1.616355910E1	-1.282779220E-2	-1.464506239E-1	2.203631550E-1
1.617196212E1	-1.038440317E-2	-1.363716573E-1	2.266243398E-1
1.618036514E1	-1.679829881E-2	-6.612421572E-2	2.283041626E-1
1.618876816E1	-1.649287529E-2	-1.221694518E-3	2.221956849E-1
1.619717118E1	-1.466033421E-2	3.634541109E-2	2.139492482E-1
1.620557420E1	-1.466033421E-2	4.321744293E-2	2.116585821E-1
1.621397722E1	-1.634016447E-2	8.857285604E-3	2.160872221E-1
1.622238025E1	-1.771457121E-2	-5.925218388E-2	2.218902707E-1
1.623078327E1	-2.443389036E-2	-1.177408099E-1	2.298312783E-1
1.623918629E1	-2.702999115E-2	-1.557660550E-1	2.414373755E-1
1.624758931E1	-2.183778957E-2	-1.801999360E-1	2.535016239E-1
1.625599233E1	-1.557660475E-2	-1.953184158E-1	2.673983872E-1
1.626439535E1	-5.497625098E-3	-1.805053651E-1	2.848075330E-1
1.627279837E1	2.596100792E-3	-1.582094431E-1	2.970244884E-1
1.628120139E1	1.130067464E-2	-1.511846930E-1	3.058817685E-1
1.628960441E1	1.878355257E-2	-1.499630064E-1	3.237490356E-1
1.629800743E1	2.214321308E-2	-1.377460510E-1	3.397837877E-1
1.630641045E1	3.069507517E-2	-1.166718230E-1	3.448232710E-1
1.631481348E1	4.550812021E-2	-1.093416587E-1	3.373403847E-1
1.632321650E1	5.528167635E-2	-1.149920002E-1	3.338280320E-1
1.633161952E1	6.261184067E-2	-1.311794519E-1	3.339807391E-1
1.634002254E1	6.841489673E-2	-1.611109674E-1	3.348970115E-1
1.634842556E1	6.948387623E-2	-1.798945218E-1	3.497100472E-1
1.635682858E1	7.223268598E-2	-1.937913001E-1	3.683409095E-1
1.636523160E1	7.818844914E-2	-1.933331639E-1	3.759764731E-1
1.637363462E1	8.154810965E-2	-1.805053651E-1	3.781144619E-1
1.638203764E1	9.895725548E-2	-1.629435122E-1	3.781144619E-1
1.639044066E1	1.145338640E-1	-1.597365588E-1	3.845283389E-1
1.639884368E1	1.362189353E-1	-1.611109674E-1	3.991886973E-1
1.640724670E1	1.721062213E-1	-1.786728203E-1	4.176668227E-1
1.641564972E1	2.102841735E-1	-2.168507725E-1	4.320217371E-1
1.642405275E1	2.362451702E-1	-2.619007528E-1	4.332434237E-1
1.643245577E1	2.444916219E-1	-3.063398898E-1	4.465293586E-1
1.644085879E1	2.475458533E-1	-3.390202224E-1	4.779879749E-1
1.644926181E1	2.506000996E-1	-3.842229247E-1	5.134171247E-1
1.645766483E1	2.451024652E-1	-4.225535989E-1	5.599942207E-1
1.646606785E1	2.309002578E-1	-4.445441067E-1	6.432221532E-1
1.647447087E1	2.244863659E-1	-4.303418994E-1	7.779139876E-1
1.648287389E1	2.209739983E-1	-3.968980014E-1	9.501729012E-1
1.649127691E1	2.165453583E-1	-3.261924386E-1	1.123348117E0
1.649967993E1	2.046338320E-1	-3.161134422E-1	1.289345860E0
1.650808295E1	1.803526580E-1	-2.944283783E-1	1.442668557E0
1.651648598E1	1.571404636E-1	-2.324273884E-1	1.598587275E0
1.652488900E1	1.386623234E-1	-6.108472496E-2	1.691588759E0
1.653329202E1	1.166718230E-1	2.443388999E-1	1.677386522E0
1.654169504E1	1.047603041E-1	4.680617154E-1	1.665475011E0
1.655009806E1	7.345438004E-2	6.522321701E-1	1.647913218E0
1.655850108E1	2.565558441E-2	7.511894107E-1	1.622104883E0
1.656690410E1	-7.635590737E-4	7.591304183E-1	1.581483603E0
1.657530712E1	-1.511846948E-2	7.296570539E-1	1.493368864E0
1.658371014E1	-7.330167107E-3	7.641699314E-1	1.266591787E0
1.659211316E1	2.611372061E-2	1.125791550E0	7.302678823E-1
1.660051618E1	7.895200700E-2	1.383110881E0	2.536543310E-1
1.660891920E1	1.241547018E-1	1.329203606E0	6.597150117E-2
1.661732223E1	1.815743446E-1	1.108993173E0	6.108472589E-4
1.662572525E1	2.619007528E-1	7.614210844E-1	-1.582094431E-1
1.663412827E1	3.119902313E-1	5.034908652E-1	-4.165978432E-1
1.664253129E1	3.439069986E-1	3.949127495E-1	-6.653653979E-1
1.665093431E1	3.678827584E-1	3.309265077E-1	-8.162446618E-1
1.665933733E1	3.807105422E-1	3.264978528E-1	-9.367342591E-1
1.666774035E1	3.686463237E-1	3.287885487E-1	-1.070051670E0
1.667614337E1	3.407000601E-1	2.903051674E-1	-1.211157441E0
1.668454639E1	3.217637837E-1	2.006633282E-1	-1.290262103E0
1.669294941E1	3.141281903E-1	1.235438585E-1	-1.310725451E0
1.670135243E1	2.976353168E-1	6.276455522E-2	-1.308740258E0
1.670975545E1	2.753393948E-1	-1.863084175E-2	-1.332715988E0
1.671815848E1	2.544178963E-1	-1.067455560E-1	-1.395785928E0
1.672656150E1	2.267770469E-1	-1.782146841E-1	-1.456717968E0
1.673496452E1	1.881409585E-1	-2.434226274E-1	-1.487718463E0
1.674336754E1	1.528645307E-1	-3.126010895E-1	-1.493979692E0
1.675177056E1	1.250709742E-1	-4.129327536E-1	-1.493063450E0
1.676017358E1	9.239064902E-2	-5.201364160E-1	-1.489398360E0
1.676857660E1	6.612421572E-2	-5.954233408E-1	-1.468934894E0
1.677697962E1	4.611896724E-2	-6.404733658E-1	-1.457481503E0
1.678538264E1	2.718270384E-2	-6.794148684E-1	-1.455649018E0
1.679378566E1	1.527118147E-3	-7.304205894E-1	-1.443126678E0
1.680218868E1	-1.740914769E-2	-7.685985565E-1	-1.410140872E0
