"Time (s)"	"Acceleration x (m/s^2)"	"Acceleration y (m/s^2)"	"Acceleration z (m/s^2)"
9.813972000E-3	-2.464607358E-1	9.726225853E0	4.504488707E-1
1.821699300E-2	-3.134597540E-1	9.863214493E0	5.276173949E-1
2.662001400E-2	-1.956132501E-1	9.832108498E0	3.619144261E-1
3.502303500E-2	-1.124626622E-1	9.775876999E0	3.505485058E-1
4.342605600E-2	-9.870393574E-2	9.708877563E0	4.301098585E-1
5.182907600E-2	-1.112662554E-1	9.708877563E0	4.707878530E-1
6.023209700E-2	-1.064806059E-1	9.753145218E0	4.648058116E-1
6.863511800E-2	-1.130608693E-1	9.798608780E0	4.516452849E-1
7.703813900E-2	-1.495514214E-1	9.792626381E0	4.588237405E-1
8.544116000E-2	-1.686939895E-1	9.754940033E0	4.701896608E-1
9.384418100E-2	-1.758724600E-1	9.745368004E0	5.156532526E-1
1.022472010E-1	-1.884347796E-1	9.732208252E0	6.735795736E-1
1.106502220E-1	-2.207378894E-1	9.688538551E0	6.556333899E-1
1.190532430E-1	-1.896311939E-1	9.735198975E0	5.234299302E-1
1.274562640E-1	-1.663011760E-1	9.802198410E0	4.181457460E-1
1.358592850E-1	-1.932204217E-1	9.786644936E0	4.013960063E-1
1.442623060E-1	-2.105683982E-1	9.750154495E0	4.468596280E-1
1.526653260E-1	-2.003988922E-1	9.726225853E0	4.325026870E-1
1.610683470E-1	-1.722832322E-1	9.750752449E0	3.852444589E-1
1.694713680E-1	-1.250249892E-1	9.775279045E0	3.672982752E-1
1.778743890E-1	-5.443671346E-2	9.759127617E0	3.708875179E-1
1.862774100E-1	7.776673418E-3	9.727422714E0	3.619144261E-1
1.946804310E-1	-2.811566554E-2	9.747760773E0	4.701896608E-1
2.030834510E-1	-1.908276081E-1	9.777671814E0	6.412764788E-1
2.114864720E-1	-2.985046208E-1	9.792028427E0	6.400800347E-1
2.198894930E-1	-3.373879790E-1	9.774680138E0	6.311069727E-1
2.282925140E-1	-3.014956415E-1	9.680762291E0	6.951149702E-1
2.366955350E-1	-1.740778536E-1	9.645467758E0	7.902296782E-1
2.450985560E-1	-1.214357466E-1	9.656235695E0	9.158528447E-1
2.535015760E-1	-1.848455518E-1	9.700503349E0	9.296116233E-1
2.619045970E-1	-2.350948304E-1	9.711270332E0	9.206385016E-1
2.703076180E-1	-1.094716340E-1	9.738189697E0	8.386843204E-1
2.787106390E-1	-6.939185411E-2	9.696913719E0	8.464609981E-1
2.871136600E-1	-4.187439568E-3	9.562915802E0	8.877372146E-1
2.955166810E-1	1.704886109E-1	9.585049629E0	8.488538265E-1
3.039197010E-1	5.264209956E-2	9.699904442E0	9.008977413E-1
3.123227220E-1	-2.709871531E-1	9.733404160E0	8.333004713E-1
3.207257430E-1	-4.301098585E-1	9.765109062E0	6.089733839E-1
3.291287640E-1	-2.889333367E-1	9.821340561E0	4.552344978E-1
3.375317850E-1	-1.202393398E-1	9.833304405E0	4.348955154E-1
3.459348060E-1	-7.477571070E-2	9.795618057E0	5.359922647E-1
3.543378260E-1	-8.614161611E-2	9.721440315E0	5.455635786E-1
3.627408470E-1	1.495514158E-2	9.714859962E0	3.487538993E-1
3.711438680E-1	1.621137410E-1	9.818349838E0	2.644068897E-1
3.795468890E-1	2.075773627E-1	9.908080101E0	4.001995921E-1
3.879499100E-1	9.152546525E-2	9.857233047E0	3.990031779E-1
3.963529310E-1	-9.451649338E-2	9.757332802E0	3.008974493E-1
4.047559510E-1	-1.926222295E-1	9.696913719E0	1.345962733E-1
4.131589720E-1	-1.794617027E-1	9.743574142E0	2.572284266E-2
4.215619930E-1	-1.902294010E-1	9.820143700E0	1.597209126E-1
4.299650140E-1	-2.219343036E-1	9.815957069E0	3.493520916E-1
4.383680350E-1	-1.806581169E-1	9.733404160E0	4.959124923E-1
4.467710560E-1	6.460621208E-2	9.660423279E0	4.707878530E-1
4.551740760E-1	2.907279432E-1	9.681958199E0	4.408775866E-1
4.635770970E-1	2.368894368E-1	9.733404160E0	4.624129832E-1
4.719801180E-1	-8.494520187E-2	9.733404160E0	2.572284341E-1
4.803831390E-1	-2.081755698E-1	9.772287369E0	-1.196411345E-2
4.887861600E-1	3.110669367E-2	9.868598938E0	-2.219343036E-1
4.971891810E-1	2.871387303E-1	9.937392235E0	-2.243271172E-1
5.055922010E-1	2.368894368E-1	9.840482712E0	-7.477571070E-2
5.139952220E-1	2.434697002E-1	9.745966911E0	-6.400800496E-2
5.223982430E-1	3.409772217E-1	9.795618057E0	2.691925503E-2
5.308012640E-1	2.889333367E-1	9.818947792E0	1.417747438E-1
5.392042850E-1	2.159522474E-1	9.793823242E0	2.201396823E-1
5.476073060E-1	2.201396823E-1	9.732806206E0	4.241278172E-1
5.560103260E-1	3.643072546E-1	9.624530792E0	4.606183469E-1
5.644133470E-1	4.498506486E-1	9.552147865E0	2.057827413E-1
5.728163680E-1	2.811566591E-1	9.635896683E0	1.597209126E-1
5.812193890E-1	1.310070455E-1	9.761520386E0	1.854437590E-1
5.896224100E-1	2.183450609E-1	9.872786522E0	2.392822653E-1
5.980254310E-1	3.738785386E-1	9.938589096E0	3.774677813E-1
6.064284510E-1	4.061816335E-1	9.833903313E0	6.658028960E-1
6.148314720E-1	4.450650215E-1	9.653244972E0	8.590233326E-1
6.232344930E-1	5.886343718E-1	9.622138023E0	8.805587292E-1
6.316375140E-1	7.501499057E-1	9.751948357E0	7.668996453E-1
6.400405350E-1	6.646065116E-1	9.875777245E0	6.394818425E-1
6.484435560E-1	4.654040039E-1	9.953543663E0	4.109672904E-1
6.568465760E-1	4.043870270E-1	1.002054310E1	3.661018610E-1
6.652495970E-1	5.252245665E-1	9.979865074E0	5.706881881E-1
6.736526180E-1	7.082754970E-1	9.878767967E0	7.549355626E-1
6.820556390E-1	8.488538265E-1	9.842277527E0	1.046261668E0
6.904586600E-1	8.745766878E-1	9.864411354E0	1.094716311E0
6.988616810E-1	8.327022791E-1	9.858428955E0	9.056833982E-1
7.072647010E-1	8.620143533E-1	9.811769485E0	8.841479421E-1
7.156677220E-1	8.913264275E-1	9.787242889E0	8.823533654E-1
7.240707430E-1	8.811569214E-1	9.769296646E0	6.765705943E-1
7.324737640E-1	9.182456732E-1	9.755537987E0	6.245267391E-1
7.408767850E-1	8.560323119E-1	9.719047546E0	6.418746710E-1
7.492798060E-1	6.245267391E-1	9.657432556E0	6.538388133E-1
7.576828260E-1	4.139583111E-1	9.671191216E0	6.640082598E-1
7.660858470E-1	3.708875179E-1	9.701699257E0	5.952146053E-1
7.744888680E-1	4.103690982E-1	9.722038269E0	7.016952634E-1
7.828918890E-1	3.266202807E-1	9.695717812E0	7.944171429E-1
7.912949100E-1	2.745763958E-1	9.623932838E0	9.218349457E-1
7.996979310E-1	3.182454109E-1	9.600603104E0	1.016351461E0
8.081009510E-1	2.488535494E-1	9.562317848E0	8.656035662E-1
8.165039720E-1	2.009970993E-1	9.605986595E0	7.411768436E-1
8.249069930E-1	2.099701911E-1	9.629914284E0	8.213363886E-1
8.333100140E-1	2.434697002E-1	9.560523033E0	9.038887620E-1
8.417130350E-1	4.133601189E-1	9.576076508E0	8.147560954E-1
8.501160560E-1	6.969096065E-1	9.756733894E0	7.202396393E-1
8.585190760E-1	7.770691514E-1	9.903294563E0	6.753742099E-1
8.669220970E-1	5.778666735E-1	9.824930191E0	6.412764788E-1
8.753251180E-1	4.773681164E-1	9.713663101E0	5.066801906E-1
8.837281390E-1	4.450650215E-1	9.723833084E0	3.906283081E-1
8.921311600E-1	5.401797295E-1	9.826126099E0	7.118647546E-2
9.005341810E-1	8.638089895E-1	9.943972588E0	1.322034448E-1
9.089372010E-1	1.063011408E0	9.876974106E0	2.913261652E-1
9.173402220E-1	1.211964726E0	9.716654778E0	5.240281820E-1
9.257432430E-1	1.258624673E0	9.671789169E0	6.885347366E-1
9.341462640E-1	1.139581800E0	9.703494072E0	6.478567123E-1
9.425492850E-1	9.517452121E-1	9.745368004E0	6.005984545E-1
9.509523060E-1	7.543373108E-1	9.750752449E0	6.825526357E-1
9.593553260E-1	7.680960894E-1	9.719047546E0	6.323033571E-1
9.677583470E-1	9.966106415E-1	9.746564865E0	6.801598072E-1
9.761613680E-1	1.076171994E0	9.736993790E0	7.501499057E-1
9.845643890E-1	8.608179688E-1	9.605986595E0	6.921239495E-1
9.929674100E-1	6.514459848E-1	9.588638306E0	6.412764788E-1
1.001370431E0	6.125625968E-1	9.686145782E0	6.705885530E-1
1.009773451E0	6.610172391E-1	9.754940033E0	7.345965505E-1
1.018176472E0	6.634100676E-1	9.699904442E0	8.434699774E-1
1.026579493E0	5.928218365E-1	9.600004196E0	8.093722463E-1
1.034982514E0	5.156532526E-1	9.579665184E0	8.021938205E-1
1.043385535E0	5.312066078E-1	9.641879082E0	7.208378315E-1
1.051788556E0	6.891329288E-1	9.695717812E0	6.448656917E-1
1.060191576E0	8.291130662E-1	9.719047546E0	6.233302951E-1
1.068594597E0	8.943174481E-1	9.734601021E0	6.550351977E-1
1.076997618E0	8.668000102E-1	9.751350403E0	5.521438122E-1
1.085400639E0	7.842476368E-1	9.776474953E0	3.637090325E-1
1.093803660E0	7.112665176E-1	9.783653259E0	4.223332107E-1
1.102206681E0	6.723831892E-1	9.649655342E0	5.443671346E-1
1.110609701E0	6.681957245E-1	9.639486313E0	7.399803996E-1
1.119012722E0	5.575276613E-1	9.677172661E0	1.103091240E0
1.127415743E0	2.542374134E-1	9.708877563E0	1.226321578E0
1.135818764E0	-8.973085135E-2	9.705288887E0	1.214357495E0
1.144221785E0	-3.433700502E-1	9.695717812E0	1.332203984E0
1.152624806E0	-5.491527915E-1	9.649057388E0	1.322632670E0
1.161027826E0	-8.039883971E-1	9.702896118E0	1.232901812E0
1.169430847E0	-1.014556766E0	9.836296082E0	1.517647743E0
1.177833868E0	-1.172483087E0	9.893723488E0	1.972882271E0
1.186236889E0	-1.398006678E0	9.878767967E0	2.199602127E0
1.194639910E0	-1.660020709E0	9.990633011E0	2.079961061E0
1.203042931E0	-1.770688772E0	1.029272652E1	1.663609982E0
1.211445951E0	-1.549352646E0	1.075214863E1	1.232303619E0
1.219848972E0	-1.044467092E0	1.126122189E1	9.272187948E-1
1.228251993E0	-4.929214716E-1	1.179302597E1	8.769695163E-1
1.236655014E0	-2.961117923E-1	1.233918858E1	8.799605370E-1
1.245058035E0	-3.577269912E-1	1.291406345E1	6.131607890E-1
1.253461056E0	-7.160521746E-1	1.297926807E1	1.794616938E0
1.261864076E0	-1.710868239E0	1.140359497E1	2.196012974E0
1.270267097E0	-1.689931035E0	1.008036327E1	5.078766346E-1
1.278670118E0	-1.030708313E0	9.620942116E0	2.937189937E-1
1.287073139E0	-2.566302419E-1	8.845666885E0	1.425524116E0
1.295476160E0	2.135594189E-1	8.479565620E0	1.619940877E0
1.303879181E0	2.530409992E-1	8.642276764E0	9.206385016E-1
1.312282201E0	-2.691925466E-1	8.533403397E0	2.871387079E-2
1.320685222E0	-5.419743061E-1	8.221738815E0	-1.249053478E0
1.329088243E0	-3.906283081E-1	8.522037506E0	-1.158724308E0
1.337491264E0	-7.645068169E-1	8.354539871E0	-7.220342159E-1
1.345894285E0	-6.807580590E-1	8.279764175E0	-1.298106313E0
1.354297306E0	-4.666004330E-2	8.818747520E0	-2.103291035E0
1.362700326E0	3.942175210E-1	9.330811501E0	-1.840080619E0
1.371103347E0	4.683950245E-1	9.564111710E0	-1.756929994E0
1.379506368E0	4.426721856E-2	9.693922997E0	-2.109871387E0
1.387909389E0	-7.118647099E-1	9.549157143E0	-2.529213428E0
1.396312410E0	-1.304088354E0	8.922237396E0	-3.032304525E0
1.404715431E0	-8.943174481E-1	8.590831757E0	-3.512065411E0
1.413118451E0	2.809173822E0	6.014359951E0	-9.248259664E-1
1.421521472E0	1.181695461E1	7.261618614E0	-9.348159790E0
1.429924493E0	1.798565102E1	1.001156998E1	-2.035095692E0
1.438327514E0	2.480160713E1	7.777870178E0	-1.064267731E1
1.446730535E0	3.193461037E1	1.392144203E1	-8.863015175E0
1.455133556E0	2.101137543E1	1.467039585E1	9.643074989E0
1.463536576E0	3.982853174E0	7.545766354E0	1.081316566E1
1.471939597E0	-1.097587776E1	4.855635166E0	3.832105398E0
1.480342618E0	-1.478704548E1	7.989036560E0	1.674975872E0
1.488745639E0	-8.270791054E0	1.133300591E1	-2.442473650E0
1.497148660E0	-2.803789854E0	1.184985638E1	-3.562912941E0
1.505551681E0	7.058826685E-1	1.141735363E1	-3.146561682E-1
1.513954701E0	2.572882652E0	1.030947590E1	1.257428288E0
1.522357722E0	3.643670797E0	9.039485931E0	1.440479279E0
1.530760743E0	4.651647091E0	8.980263710E0	1.564307809E0
1.539163764E0	4.503292084E0	9.806983948E0	1.331605792E0
1.547566785E0	2.806781054E0	1.047757244E1	7.405785918E-1
1.555969806E0	7.555337548E-1	1.029870892E1	2.255235314E-1
1.564372826E0	-5.802594870E-2	9.832706451E0	-4.079762697E-1
1.572775847E0	1.537388563E-1	9.820143700E0	-5.796613097E-1
1.581178868E0	5.401797295E-1	1.005823040E1	-5.120640397E-1
1.589581889E0	9.080761671E-1	1.012582684E1	-8.853443712E-2
1.597984910E0	1.258026481E0	9.935597420E0	6.999006271E-1
1.606387931E0	1.418943882E0	9.659825325E0	1.066002488E0
1.614790951E0	1.428515077E0	9.457033157E0	1.049850941E0
1.623193972E0	1.314257860E0	9.324830055E0	9.248259664E-1
1.631596993E0	1.029511929E0	9.270393372E0	8.303094506E-1
1.640000014E0	7.058826685E-1	9.354142189E0	6.538388133E-1
1.648403035E0	4.606183469E-1	9.557532310E0	4.199403822E-1
1.656806056E0	3.236292601E-1	9.739386559E0	2.458625287E-1
1.665209076E0	3.643072546E-1	9.763913155E0	3.320041299E-1
1.673612097E0	5.874379873E-1	9.635896683E0	5.401797295E-1
1.682015118E0	9.804590940E-1	9.540781975E0	7.692924738E-1
1.690418139E0	1.415952802E0	9.682557106E0	9.128618240E-1
1.698821160E0	1.600200176E0	9.903294563E0	1.001994491E0
1.707224181E0	1.370489120E0	9.976275444E0	9.026923180E-1
1.715627201E0	1.027119160E0	1.008574772E1	8.123632669E-1
1.724030222E0	8.859425783E-1	1.017846966E1	5.862415433E-1
1.732433243E0	9.499505758E-1	1.007797050E1	3.696911037E-1
1.740836264E0	9.672985673E-1	9.834501266E0	9.690931439E-2
1.749239285E0	9.631111026E-1	9.535398483E0	2.518445849E-1
1.757642306E0	1.113858938E0	9.439086914E0	7.686942816E-1
1.766045326E0	1.130010486E0	9.623334885E0	7.274180651E-1
1.774448347E0	8.739784956E-1	9.899106979E0	6.484549642E-1
1.782851368E0	5.048855543E-1	1.000020409E1	4.396811724E-1
1.791254389E0	1.208375469E-1	1.004327488E1	6.981059909E-1
1.799657410E0	-2.237289101E-1	1.011565781E1	1.327418327E0
1.808060431E0	-4.636093974E-1	1.039501953E1	1.347159147E0
1.816463451E0	-5.312066078E-1	1.076471043E1	1.084546804E0
1.824866472E0	-5.036891699E-1	1.103151035E1	9.667003751E-1
1.833269493E0	-4.677968323E-1	1.112004471E1	9.403793216E-1
1.841672514E0	-4.115654826E-1	1.120917797E1	8.967102766E-1
1.850075535E0	-2.141576260E-1	1.151246834E1	1.106082320E0
1.858478556E0	4.426721856E-2	1.118106174E1	1.458425403E0
1.866881576E0	6.957131624E-1	1.087896824E1	-8.913264424E-2
1.875284597E0	1.561316729E0	1.078445148E1	-2.931207791E-2
1.883687618E0	2.435295343E0	1.028794098E1	1.908276081E-1
1.892090639E0	3.139981508E0	9.926026344E0	-1.393819153E-1
1.900493660E0	2.843869686E0	9.755537987E0	6.879365444E-2
1.908896681E0	9.511470199E-1	9.506684303E0	4.887340367E-1
1.917299701E0	-2.124228239E0	8.763712883E0	8.027920127E-1
1.925702722E0	-4.579264164E0	7.237092018E0	5.377869010E-1
1.934105743E0	-4.443471432E0	6.835696220E0	4.289134443E-1
1.942508764E0	-2.650051117E0	7.093522549E0	7.752745152E-1
1.950911785E0	-1.003789067E0	7.934001446E0	7.830511928E-1
1.959314806E0	-4.719842672E-1	8.922835350E0	9.978070259E-1
1.967717826E0	-4.534398913E-1	9.315258980E0	5.264210105E-1
1.976120847E0	-1.136590764E-1	9.630513191E0	-3.200400174E-1
1.984523868E0	3.284149170E-1	9.808179855E0	4.773681164E-1
1.992926889E0	2.225325108E-1	9.373284340E0	4.211367965E-1
2.001329910E0	9.750752151E-2	9.365508080E0	-3.792623878E-1
2.009732931E0	8.015955985E-2	9.811769485E0	-5.629115105E-1
2.018135951E0	-2.213360928E-2	1.001874828E1	-3.463610709E-1
2.026538972E0	5.413761139E-1	9.351150513E0	1.838286042E0
2.034941993E0	4.135993958E0	6.726224422E0	4.851447940E-1
2.043345014E0	1.102493000E1	8.627322197E0	-4.635495663E0
2.051748035E0	1.440419388E1	8.860622406E0	-2.343171597E0
2.060151056E0	1.861017799E1	5.962316036E0	-7.814958572E0
2.068554076E0	2.719921494E1	9.245268822E0	-1.359362507E1
2.076957097E0	2.446720886E1	1.541276932E1	-9.158528447E-1
2.085360118E0	9.381061554E0	1.183310604E1	1.015753174E1
2.093763139E0	-7.693522930E0	6.420541286E0	3.098107100E0
2.102166160E0	-1.637169266E1	7.735995770E0	2.227119684E0
2.110569181E0	-9.264410973E0	1.123131084E1	1.643869162E0
2.118972201E0	-2.477767944E0	1.172363472E1	-3.130410194E0
2.127375222E0	1.218544960E0	1.111765194E1	-2.231307030E0
2.135778243E0	3.010170937E0	1.059063339E1	9.541380405E-1
2.144181264E0	3.839283943E0	9.406186104E0	1.868196249E0
2.152584285E0	4.454837322E0	9.067003250E0	2.342573404E0
2.160987306E0	3.552145243E0	9.630513191E0	1.715653777E0
2.169390326E0	1.337587833E0	1.005105114E1	2.883351147E-1
2.177793347E0	1.639083475E-1	1.019581699E1	-3.786641955E-1
2.186196368E0	5.168496966E-1	1.008754253E1	-4.307080805E-1
2.194599389E0	1.018744230E0	9.962516785E0	-2.285145670E-1
2.203002410E0	1.079162955E0	1.007019424E1	-1.477568001E-1
2.211405431E0	7.369893789E-1	1.015274620E1	2.733799815E-1
2.219808451E0	6.011967063E-1	1.003789139E1	5.814558864E-1
2.228211472E0	8.321040869E-1	9.881160736E0	1.115653515E0
2.236614493E0	1.202991605E0	9.622138023E0	1.570888042E0
2.245017514E0	1.496710539E0	9.351150513E0	1.527817249E0
2.253420535E0	1.543370605E0	9.230313301E0	1.068395257E0
2.261823556E0	1.377667665E0	9.154939651E0	5.078766346E-1
2.270226576E0	1.177268744E0	9.318249702E0	3.343969584E-1
2.278629597E0	1.019342422E0	9.666405678E0	5.413761139E-1
2.287032618E0	9.451649189E-1	9.793225288E0	7.369893789E-1
2.295435639E0	9.655039310E-1	9.625128746E0	6.143572330E-1
2.303838660E0	9.876375198E-1	9.380462646E0	5.527420044E-1
2.312241681E0	8.273184299E-1	9.217152596E0	7.471588850E-1
2.320644701E0	6.574280262E-1	9.105886459E0	9.056833982E-1
2.329047722E0	5.330012441E-1	9.032307625E0	8.829515576E-1
2.337450743E0	5.120640397E-1	9.481559753E0	1.141974568E0
2.345853764E0	6.628118753E-1	1.047577763E1	1.479362607E0
2.354256785E0	9.487541914E-1	1.138026428E1	1.342971683E0
2.362659806E0	1.185045362E0	1.151904774E1	7.375875711E-1
2.371062826E0	9.637092948E-1	1.022034359E1	-6.759724021E-2
2.379465847E0	5.252245665E-1	9.201001167E0	-1.519442350E-1
2.387868868E0	4.438686073E-1	9.464810371E0	1.345962733E-1
2.396271889E0	6.927221417E-1	1.034776115E1	2.626122832E-1
2.404674910E0	9.427721500E-1	1.082991505E1	1.734796353E-2
2.413077931E0	9.080761671E-1	1.071745300E1	-5.850451589E-1
2.421480951E0	7.609176040E-1	1.040279675E1	-5.533402562E-1
2.429883972E0	7.471588850E-1	1.036750221E1	2.111666054E-1
2.438286993E0	1.026520967E0	1.076351452E1	1.342373490E0
2.446690014E0	1.207179070E0	1.090469074E1	2.594418049E0
2.455093035E0	1.249651670E0	1.091904831E1	1.329213023E0
2.463496056E0	1.536790371E0	1.128814125E1	9.583254457E-1
2.471899076E0	1.637887120E0	1.128993511E1	9.487541914E-1
2.480302097E0	1.714457393E0	1.114397335E1	8.757730722E-1
2.488705118E0	1.875972986E0	1.065224838E1	7.052844763E-1
2.497108139E0	1.986641049E0	1.001575756E1	4.677968323E-1
2.505511160E0	1.809572101E0	9.681958199E0	6.490531564E-1
2.513914181E0	8.991031051E-1	9.685547829E0	7.429714203E-1
2.522317201E0	-1.490130305E0	9.549157143E0	1.832303882E0
2.530720222E0	-4.404588223E0	8.447261810E0	2.190030813E0
2.539123243E0	-6.212365627E0	7.483552933E0	1.965703845E0
2.547526264E0	-6.032904148E0	7.037291527E0	1.438684583E0
2.555929285E0	-3.652045488E0	7.542775154E0	9.254241586E-1
2.564332306E0	-1.884347796E0	8.898907661E0	2.207378894E-1
2.572735326E0	-1.853241086E0	1.018086243E1	8.482556343E-1
2.581138347E0	-3.343371391E0	9.579665184E0	1.536192179E0
2.589541368E0	-3.859024763E0	9.015557289E0	1.657029688E-1
2.597944389E0	-3.108874798E0	9.419944763E0	-7.704889178E-1
2.606347410E0	-2.085345030E0	1.003250694E1	-1.252044439E0
2.614750431E0	-1.125224829E0	1.054457092E1	-1.286740422E0
2.623153451E0	-4.719842672E-1	1.086939716E1	-1.254437327E0
2.631556472E0	-1.184447184E-1	1.082453156E1	-1.310668588E0
2.639959493E0	2.009970993E-1	1.039860916E1	-1.042074203E0
2.648362514E0	1.959123492E0	8.525627136E0	4.564309120E-1
2.656765535E0	8.763114929E0	6.078966141E0	-3.372085333E0
2.665168556E0	2.212643051E1	8.708678246E0	-1.103569794E1
2.673571576E0	3.481736374E1	1.002831936E1	-1.053320503E1
2.681974597E0	4.044528198E1	1.201735306E1	-1.357926846E1
2.690377618E0	2.688216591E1	1.445085430E1	4.392025948E0
2.698780639E0	8.087141991E0	8.569295883E0	1.502752399E1
2.707183660E0	-1.087178993E1	2.648854733E0	2.809173822E0
2.715586681E0	-1.782951927E1	5.416153908E0	-1.782652885E-1
2.723989701E0	-9.796216011E0	1.113141060E1	2.931207791E-2
2.732392722E0	-4.471587181E0	1.298046494E1	-4.747360229E0
2.740795743E0	-1.456032634E0	1.270947742E1	-3.233301640E0
2.749198764E0	1.494915962E0	1.187976646E1	2.434697002E-1
2.757601785E0	3.857230186E0	9.845269203E0	1.176670551E0
2.766004806E0	5.468796253E0	8.668000221E0	1.711466432E0
2.774407826E0	5.180460930E0	9.044869423E0	2.600998163E0
2.782810847E0	2.516052961E0	9.743574142E0	2.032104731E0
2.791213868E0	-2.273181528E-1	1.011745262E1	9.960124493E-1
2.799616889E0	-6.939185858E-1	1.008275604E1	6.155536175E-1
2.808019910E0	-6.520441920E-2	9.808777809E0	5.330012441E-1
2.816422931E0	6.735795736E-1	9.701699257E0	6.299105883E-1
2.824825951E0	1.127019525E0	9.686744690E0	6.825526357E-1
2.833228972E0	1.019342422E0	9.572486877E0	1.076770186E0
2.841631993E0	8.494520187E-1	9.615557671E0	1.288534999E0
2.850035014E0	8.721838593E-1	9.855438232E0	1.360319614E0
2.858438035E0	1.239482164E0	1.000080204E1	9.738788009E-1
2.866841056E0	1.457229018E0	9.914062500E0	6.921239495E-1
2.875244076E0	1.306481123E0	9.606584549E0	4.743770957E-1
2.883647097E0	1.118046403E0	9.412766457E0	3.661018610E-1
2.892050118E0	1.073180914E0	9.370293617E0	3.571287692E-1
2.900453139E0	1.162313581E0	9.452247620E0	5.557330847E-1
2.908856160E0	1.229910851E0	9.451649666E0	7.806583643E-1
2.917259181E0	9.804590940E-1	9.355338097E0	8.901300430E-1
2.925662201E0	7.112665176E-1	9.324830055E0	1.066600680E0
2.934065222E0	5.282155871E-1	9.256035805E0	1.034297585E0
2.942468243E0	5.126622319E-1	9.325428009E0	1.000199914E0
2.950871264E0	6.789634228E-1	9.820742607E0	1.177866936E0
2.959274285E0	8.919246197E-1	1.023649502E1	1.195813060E0
2.967677306E0	1.000798106E0	1.035494041E1	1.020538807E0
2.976080326E0	1.262213945E0	1.070728302E1	9.116654396E-1
2.984483347E0	1.390828133E0	1.089212894E1	6.891329288E-1
2.992886368E0	1.131206870E0	1.023290634E1	-1.657029688E-1
3.001289389E0	7.692924738E-1	9.378668785E0	-6.777670383E-1
3.009692410E0	7.166503668E-1	9.590433121E0	-3.792623878E-1
3.018095431E0	6.137589812E-1	1.041296577E1	-2.087737769E-1
3.026498451E0	5.515456200E-1	1.110209846E1	-1.040877849E-1
3.034901472E0	6.035895348E-1	1.125882912E1	-1.609173268E-1
3.043304493E0	5.724828243E-1	1.116251755E1	2.638086975E-1
3.051707514E0	5.114658475E-1	1.109372425E1	1.016351461E0
3.060110535E0	5.270192027E-1	1.128933716E1	1.823330879E0
3.068513556E0	5.670989752E-1	1.150528908E1	2.483749866E0
3.076916576E0	5.132604837E-1	1.123131084E1	1.453639746E0
3.085319597E0	8.925228715E-1	1.119900799E1	3.637090325E-1
3.093722618E0	1.497906923E0	1.087896824E1	3.966103494E-1
3.102125639E0	2.097907305E0	1.028913784E1	1.962114573E-1
3.110528660E0	2.723630428E0	9.655039787E0	-1.806581169E-1
3.118931681E0	3.173480988E0	9.183652878E0	-5.072783828E-1
3.127334701E0	2.851646423E0	9.240483284E0	-3.050848842E-1
3.135737722E0	1.034895778E0	9.339186668E0	9.332008362E-1
3.144140743E0	-1.925025821E0	8.473583221E0	2.050050735E0
3.152543764E0	-4.533800602E0	7.097112179E0	1.643270969E0
3.160946785E0	-5.156532764E0	6.197410583E0	1.127617717E0
3.169349806E0	-3.940979004E0	6.203392506E0	4.187439680E-1
3.177752826E0	-2.758326292E0	7.448856831E0	-4.163511395E-1
3.186155847E0	-3.132204771E0	8.414361000E0	9.170492887E-1
3.194558868E0	-3.501895905E0	8.177471161E0	1.076770186E0
3.202961889E0	-2.743371248E0	8.328219414E0	1.686939895E-1
3.211364910E0	-1.527219057E0	8.977272034E0	-8.255238086E-2
3.219767931E0	-3.816552162E-1	9.662218094E0	8.494520187E-2
3.228170951E0	6.436693072E-1	1.017547798E1	2.285145670E-1
3.236573972E0	1.353141189E0	1.044945621E1	2.063809484E-1
3.244976993E0	1.465603828E0	1.057926750E1	7.597211748E-2
3.253380014E0	1.058824062E0	1.061276627E1	-2.626122832E-1
3.261783035E0	1.107876897E0	9.801599503E0	1.709671736E0
3.270186056E0	4.746761799E0	5.157131195E0	5.230112076E0
3.278589076E0	2.087857437E1	3.092125177E0	-1.454656696E1
3.286992097E0	4.249353790E1	1.269990635E1	-2.271207428E1
3.295395118E0	3.965744781E1	2.271985054E1	7.908278704E-1
3.303798139E0	1.395075417E1	1.300738430E1	2.177767754E1
3.312201160E0	-1.127498055E1	2.367697954E0	5.841478348E0
3.320604181E0	-2.119801521E1	3.647858143E0	-9.882357717E-1
3.329007201E0	-9.253643036E0	1.100877857E1	2.135594189E-1
3.337410222E0	-2.402393818E0	1.319222927E1	-6.610172749E0
3.345813243E0	-3.517449200E-1	1.198445225E1	-6.496513367E0
3.354216264E0	6.263213158E-1	1.064746284E1	-7.603194118E-1
3.362619285E0	1.991426587E0	8.735597610E0	1.394417405E0
3.371022306E0	5.167898655E0	8.514859200E0	2.287538528E0
3.379425326E0	7.199405193E0	9.797411919E0	3.540779352E0
3.387828347E0	5.522634506E0	1.057328510E1	2.566900492E0
3.396231368E0	1.808375716E0	1.034776115E1	9.302098155E-1
3.404634389E0	-1.160518974E-1	9.770493507E0	2.937189937E-1
3.413037410E0	-7.956135273E-2	9.595218658E0	-3.278166950E-1
3.421440431E0	6.005984545E-1	9.883553505E0	-3.840480447E-1
3.429843451E0	1.274178028E0	1.015813065E1	-2.709871531E-1
3.438246472E0	1.955534339E0	1.007139015E1	4.522434771E-1
3.446649493E0	2.483151674E0	9.862018585E0	1.231705427E0
3.455052514E0	2.563909531E0	9.683753014E0	1.602592945E0
3.463455535E0	2.231307030E0	9.486943245E0	1.342373490E0
3.471858556E0	1.776670814E0	9.443274498E0	6.131607890E-1
3.480261576E0	1.393819213E0	9.607182503E0	4.067798331E-2
3.488664597E0	1.212562919E0	9.756135941E0	-3.708875179E-2
3.497067618E0	1.372882009E0	9.704092026E0	3.020938635E-1
3.505470639E0	1.715055585E0	9.525827408E0	6.837490797E-1
3.513873660E0	1.844866276E0	9.430113792E0	7.842476368E-1
3.522276681E0	1.694118381E0	9.443872452E0	7.788637877E-1
3.530679701E0	1.463809252E0	9.415757179E0	5.964110494E-1
3.539082722E0	1.331605792E0	9.311071396E0	4.336991012E-1
3.547485743E0	1.288534999E0	9.236893654E0	2.955136001E-1
3.555888764E0	1.274776220E0	9.358329773E0	3.744767308E-1
3.564291785E0	1.173679471E0	9.520442963E0	5.162515044E-1
3.572694806E0	1.034297585E0	9.558728218E0	7.262216806E-1
3.581097826E0	9.822536707E-1	9.680762291E0	1.041476011E0
3.589500847E0	9.798609018E-1	9.987043381E0	1.405185103E0
3.597903868E0	9.714859724E-1	1.047817039E1	1.557129383E0
3.606306889E0	1.081555843E0	1.129412270E1	1.615155339E0
3.614709910E0	1.024726272E0	1.130848026E1	5.850451589E-1
3.623112931E0	8.117650747E-1	1.007258701E1	-5.084748268E-1
3.631515951E0	7.758727670E-1	9.102895737E0	-8.470591903E-1
3.639918972E0	9.565308690E-1	9.428318977E0	-5.473581553E-1
3.648321993E0	1.091725349E0	1.028913784E1	1.357926875E-1
3.656725014E0	1.100100160E0	1.079521942E1	3.439682424E-1
3.665128035E0	7.758727670E-1	1.057986546E1	1.100698411E-1
3.673531056E0	3.637090325E-1	1.004267693E1	2.542374134E-1
3.681934076E0	1.052841991E-1	9.930213928E0	9.571290612E-1
3.690337097E0	1.010967568E-1	1.018265629E1	2.063211441E0
3.698740118E0	-1.022931710E-1	1.057926750E1	1.953739643E0
3.707143139E0	-6.400800496E-2	1.120379353E1	1.281954765E0
3.715546160E0	2.991028428E-1	1.179960632E1	9.080761671E-1
3.723949181E0	6.424728632E-1	1.225543976E1	6.759724021E-1
3.732352201E0	8.991031051E-1	1.230509090E1	4.971089065E-1
3.740755222E0	1.056431174E0	1.198564816E1	4.540380836E-1
3.749158243E0	1.245464206E0	1.144187927E1	2.566302419E-1
3.757561264E0	1.587039590E0	1.097587776E1	4.187439568E-3
3.765964285E0	1.699502230E0	1.068275642E1	1.818545163E-1
3.774367306E0	1.625324726E0	1.035135078E1	7.782655358E-1
3.782770326E0	1.469193101E0	1.025503922E1	1.528415442E0
3.791173347E0	6.598208547E-1	9.939187050E0	2.921038151E0
3.799576368E0	-7.920243144E-1	9.222537041E0	3.318246841E0
3.807979389E0	-2.527418852E0	8.523832321E0	2.748754978E0
3.816382410E0	-4.627120972E0	7.325626373E0	1.978864312E0
3.824785431E0	-5.876772404E0	5.798407555E0	1.345962733E-1
3.833188451E0	-5.251647472E0	5.125426292E0	-1.552941918E0
3.841591472E0	-3.119642496E0	6.567101955E0	-2.113460541E0
3.849994493E0	-2.045863390E0	6.966702938E0	1.753939033E0
3.858397514E0	-1.237089276E0	6.733402729E0	1.130608678E0
3.866800535E0	-1.818545163E-1	7.663014412E0	3.565305769E-1
3.875203556E0	6.059823632E-1	8.694919586E0	-6.281159520E-1
3.883606576E0	1.137787223E0	9.443274498E0	-3.266202807E-1
3.892009597E0	1.309472203E0	9.491728783E0	2.153540403E-2
3.900412618E0	1.206580877E0	9.798010826E0	-8.021938205E-1
3.908815639E0	5.611169338E-1	1.089452171E1	-7.100701332E-1
3.917218660E0	3.469592929E-1	1.152203941E1	1.729412556E0
3.925621681E0	2.338385820E0	1.071206856E1	3.081357241E0
3.934024701E0	5.711667538E0	1.023470020E1	-7.956135273E-1
3.942427722E0	1.170688438E1	1.153998566E1	-4.725226402E0
3.950830743E0	2.610330200E1	1.095852947E1	-2.079602242E1
3.959233764E0	4.612943268E1	1.798505402E1	-1.869332886E1
3.967636785E0	4.002175522E1	1.706262016E1	-1.816152334E0
3.976039806E0	1.920479393E1	8.559126854E0	7.742575645E0
3.984442826E0	2.069193363E0	1.006181955E0	8.015955925E0
3.992845847E0	-1.183191013E1	-2.140978098E0	5.204389095E-1
4.001248868E0	-1.255274773E1	2.927618504E0	-1.329811215E0
4.009651889E0	-4.765904427E0	1.021316528E1	-4.887340367E-1
4.018054910E0	-1.673779488E0	1.417926884E1	-9.595218897E-1
4.026457931E0	-2.510071039E0	1.474337673E1	-8.380861282E-1
4.034860951E0	-2.293520451E0	1.433121300E1	2.955136001E-1
4.043263972E0	2.327020019E-1	1.249532032E1	5.772684813E-1
4.051666993E0	2.769093990E0	9.358329773E0	1.812563092E-1
4.060070014E0	3.836891174E0	7.280162811E0	2.697907388E-1
4.068473035E0	3.723232031E0	7.579864025E0	1.496710539E0
4.076876056E0	2.666202545E0	9.183054924E0	2.499901533E0
4.085279076E0	1.290329576E0	1.055474091E1	2.591426849E0
4.093682097E0	5.653043389E-1	1.051705360E1	1.606182218E0
4.102085118E0	2.231307179E-1	9.816555023E0	4.785645306E-1
4.110488139E0	-3.469592705E-2	9.351150513E0	-2.799602449E-1
4.118891160E0	-2.662015259E-1	9.247062683E0	-2.841476798E-1
4.127294181E0	-3.188436031E-1	9.206983566E0	5.688936114E-1
4.135697201E0	-2.494517565E-1	9.314062119E0	1.111466169E0
4.144100222E0	2.931207791E-2	9.728020668E0	1.335195065E0
4.152503243E0	1.674975902E-1	1.011326504E1	1.646261930E0
4.160906264E0	8.195417374E-2	1.012642574E1	1.641476393E0
4.169309285E0	-1.130608693E-1	9.849455833E0	1.518844128E0
4.177712306E0	-2.703889608E-1	9.601799011E0	1.351944804E0
4.186115326E0	-3.206382394E-1	9.559326172E0	1.426720500E0
4.194518347E0	-7.896314561E-2	9.573683739E0	1.441077471E0
4.202921368E0	4.438686073E-1	9.674181938E0	1.488335729E0
4.211324389E0	8.805587292E-1	9.756135941E0	1.558923960E0
4.219727410E0	1.207777262E0	9.754341125E0	1.411765337E0
4.228130431E0	1.396211982E0	9.702896118E0	9.696913958E-1
4.236533451E0	1.232303619E0	9.522237778E0	5.796613097E-1
4.244936472E0	7.728816867E-1	9.429515839E0	2.344966233E-1
4.253339493E0	5.880361795E-1	9.552147865E0	1.076770201E-2
4.261742514E0	7.441678643E-1	9.796813965E0	2.093719877E-2
4.270145535E0	9.505487680E-1	9.848259926E0	2.829512656E-1
4.278548556E0	9.577272534E-1	9.642477036E0	5.599204898E-1
4.286951576E0	8.446664214E-1	9.433105469E0	6.927221417E-1
4.295354597E0	7.567301393E-1	9.402596474E0	7.698906660E-1
4.303757618E0	5.431707501E-1	9.376873970E0	9.062815905E-1
4.312160639E0	3.188436031E-1	9.237491608E0	1.041476011E0
4.320563660E0	1.525424421E-1	9.128020287E0	1.177866936E0
4.328966681E0	1.088734269E-1	9.268000603E0	1.500898004E0
4.337369701E0	1.950150430E-1	9.893723488E0	1.890928149E0
4.345772722E0	4.432703853E-1	1.106381416E1	2.282752752E0
4.354175743E0	7.232306600E-1	1.218185997E1	1.988435626E0
4.362578764E0	6.305087805E-1	1.157348537E1	3.308077157E-1
4.370981785E0	3.750749528E-1	9.952347755E0	-6.939185858E-1
4.379384806E0	3.098705411E-1	9.299106598E0	-5.653043389E-1
4.387787826E0	9.870393574E-2	9.891928673E0	-2.201396823E-1
4.396190847E0	-1.333998591E-1	1.041296577E1	-4.534398913E-1
4.404593868E0	-1.435693540E-2	1.051585770E1	-5.964110494E-1
4.412996889E0	1.698904037E-1	1.034118080E1	-3.852444589E-1
4.421399910E0	3.176472187E-1	1.050329494E1	6.669993401E-1
4.429802931E0	4.444667995E-1	1.128694439E1	1.694716692E0
4.438205951E0	5.060819983E-1	1.212263775E1	2.365903378E0
4.446608972E0	3.990031779E-1	1.280399418E1	1.235892892E0
4.455011993E0	7.106683254E-1	1.352363491E1	4.133601189E-1
4.463415014E0	1.147956610E0	1.336211967E1	5.371887088E-1
4.471818035E0	1.494317770E0	1.244447231E1	6.191428304E-1
4.480221056E0	1.807777524E0	1.123609734E1	6.550351977E-1
4.488624076E0	2.088335991E0	1.021974564E1	9.200403094E-1
4.497027097E0	2.619542599E0	9.559925079E0	8.117650747E-1
4.505430118E0	3.061018467E0	9.503693581E0	1.346560955E0
4.513833139E0	1.832303882E0	9.686744690E0	2.712862730E0
4.522236160E0	-1.555334687E0	8.633303642E0	4.036093712E0
4.530639181E0	-5.029713154E0	6.984051228E0	3.229114056E0
4.539042201E0	-7.232904434E0	5.566901684E0	2.066800594E0
4.547445222E0	-6.944569588E0	4.457230568E0	-1.375873014E-2
4.555848243E0	-4.715056896E0	5.363512039E0	-2.133799553E0
4.564251264E0	-3.481556892E0	6.853642464E0	3.996013701E-1
4.572654285E0	-2.782852650E0	6.576673031E0	1.933400750E0
4.581057306E0	-1.001994491E0	7.336394310E0	4.636093974E-1
4.589460326E0	6.562315822E-1	8.413763046E0	-1.465603858E-1
4.597863347E0	1.770688772E0	8.875576973E0	-6.239284873E-1
4.606266368E0	2.306680918E0	8.980861664E0	-1.510469317E0
4.614669389E0	1.932204247E0	9.368498802E0	-2.120639086E0
4.623072410E0	8.255237937E-1	1.016710377E1	-2.449054003E0
4.631475431E0	2.117647976E-1	1.151725388E1	-2.009970903E0
4.639878451E0	2.379063845E0	1.127318573E1	2.785245657E0
4.648281472E0	8.669196129E0	8.192426682E0	-7.836493850E-2
4.656684493E0	1.997947121E1	1.022812080E1	-7.385447025E0
4.665087514E0	3.688296890E1	7.911868095E0	-1.841276932E1
4.673490535E0	5.476034546E1	1.911326981E1	-2.434278297E1
4.681893556E0	3.269373322E1	2.259243393E1	2.033001900E1
4.690296576E0	2.861815929E0	7.021139622E0	2.045624161E1
4.698699597E0	-2.172623062E1	-8.153542876E-1	1.217348576E0
4.707102618E0	-2.406940269E1	2.938386202E0	-3.832703590E0
4.715505639E0	-1.246600819E1	1.092084217E1	-8.281558990E0
4.723908660E0	-5.097310543E0	1.428515148E1	-8.626724243E0
4.732311681E0	-1.043868899E0	1.304507065E1	-2.296511650E0
4.740714701E0	1.654038668E0	1.060618591E1	1.977667928E0
4.749117722E0	3.648456335E0	7.908278942E0	3.136392355E0
4.757520743E0	6.994818687E0	7.342376232E0	3.568894863E0
4.765923764E0	9.197412491E0	9.181859016E0	4.508676052E0
4.774326785E0	6.961319447E0	1.070070267E1	3.241676569E0
4.782729806E0	2.134995937E0	1.077488041E1	1.242473125E0
4.791132826E0	-6.807580590E-1	1.028195858E1	4.420739710E-1
4.799535847E0	-5.802595019E-1	9.841081619E0	-2.781656384E-1
4.807938868E0	5.724828243E-1	9.888937950E0	-8.668000102E-1
4.816341889E0	1.164706469E0	1.008993530E1	-2.147558331E-1
4.824744910E0	1.185045362E0	9.958928108E0	6.759724021E-1
4.833147931E0	1.045663476E0	9.717850685E0	1.229312658E0
4.841550951E0	9.284151793E-1	9.761520386E0	1.170090318E0
4.849953972E0	9.882357717E-1	9.888339996E0	7.776673436E-1
4.858356993E0	1.190429211E0	9.804591179E0	5.856433511E-1
4.866760014E0	1.302293777E0	9.528220177E0	6.466603279E-1
4.875163035E0	1.264008522E0	9.442676544E0	6.448656917E-1
4.883566056E0	1.115653515E0	9.583852768E0	5.778666735E-1
4.891969076E0	8.213363886E-1	9.658628464E0	5.820540786E-1
4.900372097E0	5.413761139E-1	9.521040916E0	5.874379873E-1
4.908775118E0	5.670989752E-1	9.315856934E0	5.790630579E-1
4.917178139E0	7.393822074E-1	9.211769104E0	7.184450030E-1
4.925581160E0	7.489534616E-1	9.099306107E0	6.640082598E-1
4.933984181E0	6.370890141E-1	9.050253868E0	5.234299302E-1
4.942387201E0	4.953143001E-1	9.358329773E0	8.297112584E-1
4.950790222E0	2.931207716E-1	9.864411354E0	1.418345571E0
4.959193243E0	1.310070455E-1	1.035673428E1	1.846660852E0
4.967596264E0	5.198407173E-1	1.104287624E1	1.986641049E0
4.975999285E0	1.185045362E0	1.122891808E1	1.566700578E0
4.984402306E0	1.377667665E0	1.022572803E1	6.855437160E-1
4.992805326E0	1.041476011E0	9.069993973E0	3.391826153E-1
5.001208347E0	7.064808607E-1	9.016754150E0	4.295116663E-1
5.009611368E0	6.305087805E-1	9.542576790E0	1.339980662E-1
5.018014389E0	7.836494446E-1	9.883553505E0	-4.612165689E-1
5.026417410E0	9.032905698E-1	9.812367439E0	-6.837490797E-1
5.034820431E0	7.369893789E-1	9.751350403E0	-4.965106845E-1
5.043223451E0	3.415754437E-1	9.919445992E0	-2.033899166E-2
5.051626472E0	-1.657029688E-1	1.035613632E1	4.833501875E-1
5.060029493E0	-6.675975323E-1	1.093340492E1	6.598208547E-1
5.068432514E0	-1.066600680E0	1.133061314E1	6.376872063E-1
5.076835535E0	-1.171286702E0	1.150170040E1	7.094719410E-1
5.085238556E0	-9.068797827E-1	1.137846947E1	1.406979680E0
5.093641576E0	-5.234299302E-1	1.160279655E1	2.400599241E0
5.102044597E0	-4.402793646E-1	1.184327602E1	3.725624800E0
5.110447618E0	-7.274180651E-1	1.160399342E1	2.666800737E0
5.118850639E0	-2.159522474E-1	1.171406364E1	1.094118118E0
5.127253660E0	8.141579032E-1	1.176311588E1	6.263213158E-1
5.135656681E0	1.843669891E0	1.161057377E1	1.854437590E-1
5.144059701E0	2.568096876E0	1.126720333E1	9.391828626E-2
5.152462722E0	2.788236618E0	1.068814087E1	-2.805584669E-1
5.160865743E0	2.723032236E0	1.013898754E1	-8.841479421E-1
5.169268764E0	2.534597397E0	9.731609344E0	-7.363911867E-1
5.177671785E0	1.843071699E0	9.261420250E0	-4.127619043E-2
5.186074806E0	3.912265003E-1	8.691329956E0	9.655039310E-1
5.194477826E0	-1.884347796E0	7.759325504E0	1.996810555E0
5.202880847E0	-4.737190723E0	5.919245243E0	2.266601324E0
5.211283868E0	-6.553342819E0	3.601796389E0	2.913261652E-1
5.219686889E0	-5.255835056E0	3.693919897E0	-1.782652855E0
5.228089910E0	-3.943371773E0	4.100101471E0	9.373882413E-1
5.236492931E0	-2.888735056E0	4.712066174E0	-9.266205430E-1
5.244895951E0	-1.746760488E0	6.351149559E0	-5.916253924E-1
5.253298972E0	-7.417750359E-1	7.357929707E0	2.739782035E-1
5.261701993E0	3.637090325E-1	7.847859859E0	-3.930211067E-1
5.270105014E0	1.423729420E0	9.008378983E0	-1.395613790E0
5.278508035E0	1.740778446E0	1.056730270E1	-1.622931957E0
5.286911056E0	1.698904037E0	1.175414276E1	-1.155733347E0
5.295314076E0	3.223730326E0	1.164826107E1	2.017747641E0
5.303717097E0	8.111668587E0	1.003489971E1	-1.430907965E0
5.312120118E0	1.704228020E1	1.060379314E1	-2.011167526E0
5.320523139E0	3.538745499E1	9.090931892E0	-2.462633324E1
5.328926160E0	5.336832047E1	2.784228516E1	-1.287458229E1
5.337329181E0	2.560140800E1	2.169871330E1	2.704607391E1
5.345732201E0	-4.751547337E0	2.594418049E0	1.453759384E1
5.354135222E0	-2.332822609E1	-2.755933523E0	-3.832703590E0
5.362538243E0	-2.112204361E1	1.608574986E0	-2.205584288E0
5.370941264E0	-8.553742409E0	1.041356373E1	-4.902893543E0
5.379344285E0	-2.635694027E0	1.431625748E1	-6.621538639E0
5.387747306E0	-1.860419661E-1	1.291825104E1	-1.995614052E0
5.396150326E0	1.916052699E0	1.057926750E1	1.500299811E0
5.404553347E0	3.802793503E0	8.352147102E0	2.924029350E0
5.412956368E0	6.549155712E0	7.725826263E0	3.332005501E0
5.421359389E0	7.843074322E0	9.426525116E0	3.513859987E0
5.429762410E0	5.100899696E0	1.074736309E1	2.441277266E0
5.438165431E0	5.982056856E-1	1.058524895E1	1.251446247E0
5.446568451E0	-2.102692842E0	9.626325607E0	4.336991012E-1
5.454971472E0	-1.943570137E0	9.357730865E0	-8.662018180E-1
5.463374493E0	-7.663014531E-1	9.906285286E0	-1.316650629E0
5.471777514E0	2.392822690E-2	1.021196842E1	-3.804588020E-1
5.480180535E0	6.544370055E-1	9.824930191E0	1.004387259E0
5.488583556E0	1.445264935E0	9.457631111E0	1.894517303E0
5.496986576E0	2.090728760E0	9.513862610E0	2.192423820E0
5.505389597E0	2.301895380E0	9.776474953E0	1.818545222E0
5.513792618E0	1.962114573E0	9.860223770E0	1.098305583E0
5.522195639E0	1.262213945E0	9.702896118E0	3.320041299E-1
5.530598660E0	6.275177598E-1	9.605986595E0	-3.002992272E-1
5.539001681E0	6.167500615E-1	9.740582466E0	-1.758724600E-1
5.547404701E0	9.050851464E-1	9.828518867E0	4.085744619E-1
5.555807722E0	1.149751306E0	9.718449593E0	8.021938205E-1
5.564210743E0	1.276570916E0	9.522835732E0	8.793623447E-1
5.572613764E0	1.244866014E0	9.383454323E0	8.548358679E-1
5.581016785E0	1.068993568E0	9.314660072E0	8.249256015E-1
5.589419806E0	6.089733839E-1	9.225527763E0	1.038485050E0
5.597822826E0	2.572284341E-1	9.172286987E0	1.113260746E0
5.606225847E0	3.433700502E-1	9.179466248E0	9.900303483E-1
5.614628868E0	7.908278704E-1	9.322437286E0	9.499505758E-1
5.623031889E0	1.037886858E0	9.436096191E0	1.068993568E0
5.631434910E0	9.224331379E-1	9.426525116E0	1.270588875E0
5.639837931E0	7.172485590E-1	9.720243454E0	1.539781332E0
5.648240951E0	7.788637877E-1	1.094656563E1	2.118246317E0
5.656643972E0	1.098305583E0	1.278604794E1	2.434098721E0
5.665046993E0	1.161117196E0	1.257428265E1	4.941178858E-1
5.673450014E0	5.736792088E-1	1.066720295E1	-1.185643673E0
5.681853035E0	-1.082752272E-1	9.738189697E0	-1.045663476E0
5.690256056E0	-3.164508045E-1	1.063789082E1	-3.571287692E-1
5.698659076E0	-1.615155302E-2	1.154297638E1	-1.477568001E-1
5.707062097E0	7.280163169E-1	1.178824043E1	2.841476798E-1
5.715465118E0	1.296909928E0	1.187557888E1	1.585245013E0
5.723868139E0	8.428717852E-1	1.121157074E1	2.343769789E0
5.732271160E0	5.324030295E-2	1.127318573E1	-1.854437590E-2
5.740674181E0	1.884347796E-1	1.195693493E1	8.315058798E-2
5.749077201E0	9.493523836E-1	1.200239849E1	-2.315055877E-1
5.757480222E0	2.011765718E0	1.177089310E1	-6.059823632E-1
5.765883243E0	2.873780012E0	1.105603695E1	-5.132604837E-1
5.774286264E0	3.311068296E0	1.015633583E1	8.554340899E-2
5.782689285E0	3.598805189E0	9.491130829E0	2.261217386E-1
5.791092306E0	3.849453449E0	9.253643036E0	8.422735929E-1
5.799495326E0	3.673580885E0	9.279964447E0	1.859821439E0
5.807898347E0	2.467598438E0	9.018548965E0	2.734398127E0
5.816301368E0	2.231307179E-1	8.680562019E0	2.875574589E0
5.824704389E0	-2.573480844E0	7.849056244E0	2.484946251E0
5.833107410E0	-4.885545731E0	6.378666878E0	1.557129383E0
5.841510431E0	-5.073382378E0	5.419743061E0	4.606183618E-2
5.849913451E0	-3.210569859E0	6.029314995E0	-6.993024349E-1
5.858316472E0	-1.912463546E0	7.600800991E0	1.692921966E-1
5.866719493E0	-2.446661234E0	7.506882668E0	3.023929596E0
5.875122514E0	-2.131406784E0	6.970890522E0	2.371885538E0
5.883525535E0	-1.219143152E0	7.441678524E0	4.785645306E-1
5.891928556E0	-9.002995491E-1	8.224729538E0	-1.674975902E-1
5.900331576E0	-1.109073281E0	8.858827591E0	3.493520916E-1
5.908734597E0	-1.133001566E0	9.119047165E0	4.935196638E-1
5.917137618E0	-6.747759581E-1	9.471389771E0	-1.202393398E-1
5.925540639E0	1.190429255E-1	1.023230743E1	-7.351947427E-1
5.933943660E0	7.842476368E-1	1.132104206E1	-6.143572330E-1
5.942346681E0	1.179063320E0	1.229312611E1	-2.632105052E-1
5.950749701E0	1.597807288E0	1.285185051E1	5.437689424E-1
5.959152722E0	2.278565407E0	1.317009544E1	6.658028960E-1
5.967555743E0	3.147758245E0	1.169671535E1	2.670390129E0
5.975958764E0	6.959524632E0	9.670592308E0	-1.835294962E0
5.984361785E0	1.770269966E1	1.059781170E1	-1.412483215E1
5.992764806E0	3.325365448E1	1.413141251E1	-1.558445358E1
6.001167826E0	3.881756592E1	1.385204983E1	-8.283951759E0
6.009570847E0	2.529632187E1	8.807381630E0	-2.257030010E0
6.017973868E0	1.225244808E1	7.770093441E0	4.971687317E0
6.026376889E0	-8.991031051E-1	5.318048477E0	7.289135933E0
6.034779910E0	-1.245224857E1	3.821337700E0	3.312264681E0
6.043182931E0	-1.561556053E1	6.224329948E0	-1.220937729E0
6.051585951E0	-8.969495773E0	1.165902805E1	-3.583251953E0
6.059988972E0	-4.491328239E0	1.455015659E1	-4.306482315E0
6.068391993E0	-1.971087694E0	1.369532013E1	-3.442673683E0
6.076795014E0	7.686942816E-1	1.119960594E1	-9.433703423E-1
6.085198035E0	3.138785124E0	8.874979019E0	1.618146300E0
6.093601056E0	4.476971149E0	7.600800991E0	3.200400352E0
6.102004076E0	4.884349346E0	7.893921852E0	3.613760471E0
6.110407097E0	4.487140656E0	9.421739578E0	3.573082447E0
6.118810118E0	2.959323406E0	1.064507008E1	2.819941521E0
6.127213139E0	8.015955687E-1	1.058704376E1	1.766501307E0
6.135616160E0	-1.101296663E0	9.621540070E0	1.204187989E0
6.144019181E0	-1.925624013E0	9.214161873E0	3.948157430E-1
6.152422201E0	-1.640279889E0	9.616155624E0	-1.597209126E-1
6.160825222E0	-7.854440212E-1	1.003250694E1	-5.024927482E-2
6.169228243E0	4.127619043E-2	9.993025780E0	9.804590940E-1
6.177631264E0	5.090730190E-1	9.856635094E0	1.816152334E0
6.186034285E0	4.947160780E-1	9.737591743E0	1.923829436E0
6.194437306E0	4.061816335E-1	9.607182503E0	1.469791293E0
6.202840326E0	6.747759581E-1	9.588040352E0	1.133001566E0
6.211243347E0	1.086939692E0	9.607182503E0	9.990034699E-1
6.219646368E0	1.404586911E0	9.662218094E0	1.169492126E0
6.228049389E0	1.451246977E0	9.694520950E0	1.326820135E0
6.236452410E0	1.301097274E0	9.625727654E0	1.324427366E0
6.244855431E0	1.201196909E0	9.516854286E0	8.901300430E-1
6.253258451E0	1.192223907E0	9.510871887E0	3.427718580E-1
6.261661472E0	1.204187989E0	9.643074989E0	3.529413417E-2
6.270064493E0	1.159920812E0	9.655637741E0	-2.781656384E-1
6.278467514E0	1.145563841E0	9.535398483E0	-2.925225794E-1
6.286870535E0	1.200000525E0	9.388239861E0	-7.776673418E-3
6.295273556E0	1.129412293E0	9.288339615E0	3.828516304E-1
6.303676576E0	9.631111026E-1	9.282955170E0	1.045065284E0
6.312079597E0	7.064808607E-1	9.320044518E0	1.164108157E0
6.320482618E0	4.600201547E-1	9.501300812E0	1.298106313E0
6.328885639E0	2.548356056E-1	9.824331284E0	1.363908887E0
6.337288660E0	3.206382394E-1	1.076471043E1	1.627119422E0
6.345691681E0	7.334001660E-1	1.220638657E1	2.307877541E0
6.354094701E0	1.038485050E0	1.126660538E1	6.155536175E-1
6.362497722E0	7.633104324E-1	9.757332802E0	-8.656035662E-1
6.370900743E0	5.982056609E-4	9.743574142E0	-1.585244983E-1
6.379303764E0	-8.578268886E-1	1.042911720E1	-5.982056633E-2
6.387706785E0	-9.655039310E-1	1.081854916E1	-1.008574724E0
6.396109806E0	-4.133601189E-1	1.104826069E1	-1.497906923E0
6.404512826E0	2.673979402E-1	1.128574753E1	-7.142575383E-1
6.412915847E0	6.723831892E-1	1.180259800E1	6.364908218E-1
6.421318868E0	8.422735929E-1	1.255932808E1	1.439880967E0
6.429721889E0	1.067198873E0	1.369890976E1	2.551347256E0
6.438124910E0	7.094719410E-1	1.341715431E1	3.146561861E0
6.446527931E0	3.553341627E-1	1.275434303E1	7.621139884E-1
6.454930951E0	6.580262184E-1	1.218963718E1	7.477571070E-2
6.463333972E0	8.596215248E-1	1.114457130E1	8.315058947E-1
6.471736993E0	1.475773335E0	1.034417248E1	5.066801906E-1
6.480140014E0	2.400001049E0	9.975079536E0	4.552344978E-1
6.488543035E0	3.265006542E0	9.918250084E0	6.442674994E-1
6.496946056E0	3.119642496E0	1.003729248E1	1.750349760E0
6.505349076E0	1.539781332E0	9.441479683E0	2.833700180E0
6.513752097E0	-3.326023519E-1	8.678768158E0	2.589632273E0
6.522155118E0	-1.868794441E0	7.944769382E0	2.021337032E0
6.530558139E0	-2.531606436E0	7.152146816E0	1.056431174E0
6.538961160E0	-2.711068153E0	6.604190350E0	-4.480560422E-1
6.547364181E0	-2.866601467E0	6.669992924E0	-1.593021631E0
6.555767201E0	-3.084348440E0	6.501298904E0	-4.893322289E-1
6.564170222E0	-2.895913601E0	5.821737289E0	1.818545163E-1
6.572573243E0	-1.713859200E0	5.949155331E0	-4.725824669E-2
6.580976264E0	-1.471585929E-1	6.753741741E0	-3.487538993E-1
6.589379285E0	8.315058947E-1	7.362715244E0	-1.926222295E-1
6.597782306E0	1.193420291E0	7.485945702E0	1.615155302E-2
6.606185326E0	1.095314622E0	7.567899704E0	-4.588237405E-1
6.614588347E0	8.727820516E-1	7.837690353E0	-1.109671474E0
6.622991368E0	8.703892231E-1	8.276773453E0	-1.296311617E0
6.631394389E0	1.503290772E0	8.657830238E0	-9.134600163E-1
6.639797410E0	3.155534744E0	9.410373688E0	-1.023529887E0
6.648200431E0	4.782055855E0	1.001396275E1	5.455635786E-1
6.656603451E0	6.643074036E0	1.012223816E1	-1.523629785E0
6.665006472E0	7.633104324E0	1.127557850E1	-2.637488842E0
6.673409493E0	7.374081135E0	1.249890900E1	-1.289731383E0
6.681812514E0	9.877572060E0	9.443872452E0	-2.805584431E0
6.690215535E0	2.824368286E1	1.033460140E1	-1.938664818E1
6.698618556E0	4.906423187E1	2.289392853E1	-1.674198151E1
6.707021576E0	2.935993385E1	2.132304001E1	1.840080643E1
6.715424597E0	4.257429600E0	5.401198864E0	1.421037579E1
6.723827618E0	-1.479003716E1	-2.891726255E0	2.809173822E0
6.732230639E0	-1.941177368E1	-3.284149170E-1	-1.039681435E0
6.740633660E0	-1.086520958E1	8.063214302E0	-2.189432621E0
6.749036681E0	-3.845864296E0	1.416610813E1	-5.161916733E0
6.757439701E0	-1.275972724E0	1.544985771E1	-6.239284992E0
6.765842722E0	1.196411322E-3	1.343928814E1	-2.898306370E0
6.774245743E0	1.450648785E0	1.027777100E1	7.890332937E-1
6.782648764E0	2.814557552E0	7.931010723E0	2.524427891E0
6.791051785E0	3.833301783E0	7.341778278E0	3.579662561E0
6.799454806E0	4.071985722E0	8.528019905E0	3.150151014E0
6.807857826E0	3.219542980E0	1.005703354E1	2.273181438E0
6.816260847E0	2.125424623E0	1.068455124E1	2.088934183E0
6.824663868E0	9.726824164E-1	1.007019424E1	2.731407166E0
6.833066889E0	-2.111666054E-1	9.150752068E0	2.625524759E0
6.841469910E0	-8.907282352E-1	8.822337151E0	1.378265858E0
6.849872931E0	-9.128618240E-1	9.144171715E0	4.025924206E-1
6.858275951E0	-5.126622319E-1	9.581459999E0	5.856433511E-1
6.866678972E0	7.776673418E-3	9.684351921E0	1.366301775E0
6.875081993E0	7.076773047E-1	9.714262009E0	1.305284739E0
6.883485014E0	1.528415442E0	9.933803558E0	1.064207911E0
6.891888035E0	1.838286042E0	1.002712345E1	1.213759303E0
6.900291056E0	1.679761529E0	9.792626381E0	9.218349457E-1
6.908694076E0	1.559522152E0	9.525827408E0	4.785645306E-1
6.917097097E0	1.694716692E0	9.491728783E0	1.639083475E-1
6.925500118E0	1.772483349E0	9.567701340E0	1.728814393E-1
6.933903139E0	1.637288928E0	9.507282257E0	2.997010350E-1
6.942306160E0	1.561316729E0	9.457631111E0	2.871387303E-1
6.950709181E0	1.662413478E0	9.565906525E0	4.007977843E-1
6.959112201E0	1.810768485E0	9.607182503E0	4.588237405E-1
6.967515222E0	1.860419631E0	9.508479118E0	4.163511395E-1
6.975918243E0	1.680359721E0	9.422935486E0	3.708875179E-1
6.984321264E0	1.235892892E0	9.399007797E0	2.727817893E-1
6.992724285E0	7.453642488E-1	9.518648148E0	3.266202807E-1
7.001127306E0	4.001995921E-1	9.753145218E0	5.784648657E-1
7.009530326E0	3.613162339E-1	9.997811317E0	8.733802438E-1
7.017933347E0	7.429714203E-1	1.051525879E1	1.300499082E0
7.026336368E0	1.300499082E0	1.151785183E1	1.727617979E0
7.034739389E0	1.657029629E0	1.129890823E1	1.043270707E0
7.043142410E0	1.609173179E0	9.498309135E0	-2.386840582E-1
7.051545431E0	1.216152072E0	9.042476654E0	2.440679073E-1
7.059948451E0	7.363911867E-1	1.005224800E1	1.042074203E0
7.068351472E0	9.421738982E-1	1.120319557E1	1.037886858E0
7.076754493E0	1.921436548E0	1.137846947E1	2.751746178E-1
7.085157514E0	2.475374937E0	1.093579769E1	-9.750752151E-2
7.093560535E0	2.202593327E0	1.056371403E1	3.218346536E-1
7.101963556E0	1.465005636E0	1.068455124E1	7.674978375E-1
7.110366576E0	1.357926846E0	1.127258778E1	5.629115105E-1
7.118769597E0	2.373081923E0	1.198564816E1	1.417747438E-1
7.127172618E0	1.807777524E0	1.229312611E1	1.289731383E0
7.135575639E0	1.489532143E-1	1.146580791E1	-2.667997181E-1
7.143978660E0	1.118644550E-1	1.082871914E1	-2.763710022E-1
7.152381681E0	1.454836130E0	1.056730270E1	-3.990031779E-1
7.160784701E0	2.891128063E0	1.069053364E1	3.649054468E-2
7.169187722E0	3.330809116E0	1.078026390E1	5.054838061E-1
7.177590743E0	2.494517565E0	1.069053364E1	1.155733347E0
7.185993764E0	6.376872063E-1	1.031366348E1	1.648654819E0
7.194396785E0	-1.550549030E0	9.835099220E0	1.621137381E0
7.202799806E0	-3.781856298E0	8.840881348E0	1.338186026E0
7.211202826E0	-4.762913704E0	7.847261906E0	2.069791555E-1
7.219605847E0	-4.405186653E0	7.652844906E0	-5.820540786E-1
7.228008868E0	-3.249453068E0	8.042277336E0	-1.675574064E0
7.236411889E0	-2.108675003E0	8.877969742E0	1.375873014E-2
7.244814910E0	-1.518844128E0	8.495717049E0	7.052844763E-1
7.253217931E0	-1.582852125E0	8.161319733E0	6.173482537E-1
7.261620951E0	-1.546361685E0	8.483154297E0	1.866401732E-1
7.270023972E0	-1.252044439E0	8.937790871E0	-8.614161611E-2
7.278426993E0	-4.061816335E-1	9.196813583E0	-4.271188378E-1
7.286830014E0	2.985046208E-1	9.338588715E0	-3.595215976E-1
7.295233035E0	6.472585201E-1	9.466604233E0	-4.917250574E-1
7.303636056E0	9.385846853E-1	9.617950439E0	-7.621139884E-1
7.312039076E0	1.555932879E0	9.885348320E0	-1.027717352E0
7.320442097E0	2.280359983E0	1.009232807E1	-8.165507317E-1
7.328845118E0	2.724826813E0	1.001216793E1	-5.659025311E-1
7.337248139E0	2.732603550E0	9.876375198E0	-4.785645306E-1
7.345651160E0	2.648256540E0	9.560523033E0	-4.007977843E-1
7.354054181E0	3.492922783E0	8.452047348E0	-1.691127419E0
7.362457201E0	1.074975586E1	7.840681553E0	-6.812964439E0
7.370860222E0	3.370470047E1	1.242592812E1	-2.049273109E1
7.379263243E0	5.018347168E1	1.796830368E1	-4.920839787E0
7.387666264E0	3.276312637E1	9.220742226E0	4.596014023E0
7.396069285E0	1.447179127E1	2.098505497E0	7.871190071E0
7.404472306E0	-6.586244106E-1	-2.003390789E0	6.534200668E0
7.412875326E0	-1.078504944E1	-9.547362328E-1	4.803591371E-1
7.421278347E0	-1.055414295E1	6.262016773E0	-1.117448211E0
7.429681368E0	-6.483951092E0	1.440598869E1	-1.061815023E0
7.438084389E0	-6.244070530E0	1.793121529E1	-3.887738705E0
7.446487410E0	-5.374877930E0	1.754716682E1	-5.644668579E0
7.454890431E0	-1.036092162E0	1.489472294E1	-2.889333248E0
7.463293451E0	3.434298754E0	1.042193890E1	2.913261652E-1
7.471696472E0	5.612365723E0	6.952944279E0	1.824527264E0
7.480099493E0	5.822933674E0	6.424130440E0	3.669393539E0
7.488502514E0	4.604389191E0	7.999804497E0	4.459024906E0
7.496905535E0	2.632104874E0	9.380462646E0	3.268595695E0
7.505308556E0	1.222732425E0	9.835697174E0	1.753340840E0
7.513711576E0	5.072783828E-1	9.797411919E0	6.460621357E-1
7.522114597E0	3.858426511E-1	9.770493507E0	-1.597209126E-1
7.530517618E0	8.608179688E-1	1.009232807E1	-3.140579760E-1
7.538920639E0	1.699502230E0	1.033340454E1	3.110669367E-2
7.547323660E0	2.332403898E0	1.021735287E1	4.911268353E-1
7.555726681E0	2.461018085E0	9.972088814E0	9.607182741E-1
7.564129701E0	2.403590441E0	9.830313683E0	1.185045362E0
7.572532722E0	2.197807550E0	9.671191216E0	1.164706469E0
7.580935743E0	1.860419631E0	9.541978836E0	1.156331539E0
7.589338764E0	1.781456470E0	9.349954605E0	7.393822074E-1
7.597741785E0	2.090728760E0	9.345767021E0	4.468596280E-1
7.606144806E0	2.426322222E0	9.526425362E0	5.922235847E-1
7.614547826E0	2.432304144E0	9.610174179E0	8.751748800E-1
7.622950847E0	2.547757864E0	9.532406807E0	8.500502706E-1
7.631353868E0	2.684148788E0	9.406186104E0	5.784648657E-1
7.639756889E0	2.459821701E0	9.223134995E0	3.056831062E-1
7.648159910E0	2.043470621E0	9.071190834E0	1.944168359E-1
7.656562931E0	1.855633974E0	9.078369141E0	2.919243574E-1
7.664965951E0	1.839482427E0	9.151947975E0	4.384847581E-1
7.673368972E0	1.766501307E0	9.247661591E0	7.716853023E-1
7.681771993E0	1.471585870E0	9.257232666E0	9.906286001E-1
7.690175014E0	1.092323542E0	9.142974854E0	1.061216831E0
7.698578035E0	7.585247755E-1	9.053842545E0	1.136590719E0
7.706981056E0	6.029912829E-1	9.179466248E0	1.322632670E0
7.715384076E0	5.096712112E-1	9.567701340E0	1.421934843E0
7.723787097E0	5.138586760E-1	1.026281643E1	1.544566989E0
7.732190118E0	8.763712645E-1	1.158066368E1	2.142772675E0
7.740593139E0	1.564307809E0	1.240140152E1	1.984846354E0
7.748996160E0	1.881955028E0	1.081256771E1	4.169493318E-1
7.757399181E0	1.609771490E0	8.633902550E0	-5.216353536E-1
7.765802201E0	1.377667665E0	8.285148621E0	-1.046859920E-1
7.774205222E0	1.414158225E0	9.259625435E0	1.226321608E-1
7.782608243E0	1.560718536E0	1.021196842E1	-5.006981492E-1
7.791011264E0	1.586441398E0	1.024187946E1	-1.167099237E0
7.799414285E0	1.527817249E0	9.887143135E0	-9.361918569E-1
7.807817306E0	1.332203984E0	1.001456070E1	-5.162515044E-1
7.816220326E0	9.852447510E-1	1.063011456E1	1.016949583E-2
7.824623347E0	8.117650747E-1	1.150110245E1	7.776673436E-1
7.833026368E0	8.614161611E-1	1.142512989E1	2.213959217E0
7.841429389E0	8.482556343E-1	1.100459099E1	1.312463164E0
7.849832410E0	1.235294700E0	1.106261730E1	1.238883972E0
7.858235431E0	1.786840320E0	1.108235836E1	1.052842021E0
7.866638451E0	2.471785784E0	1.143171024E1	8.099704385E-1
7.875041472E0	2.937189817E0	1.185464191E1	7.758727670E-1
7.883444493E0	2.870190859E0	1.191984558E1	6.269195080E-1
7.891847514E0	2.422134638E0	1.146760273E1	4.139583111E-1
7.900250535E0	1.895115495E0	1.080359459E1	1.333998591E-1
7.908653556E0	1.481755376E0	1.028973579E1	-5.623133108E-2
7.917056576E0	1.390828133E0	1.010788059E1	2.763710022E-1
7.925459597E0	1.758724689E0	1.024546814E1	9.320043921E-1
7.933862618E0	2.024926186E0	1.033699417E1	1.768295884E0
7.942265639E0	1.757528186E0	1.008574772E1	2.294118643E0
7.950668660E0	7.411768436E-1	9.647262573E0	2.320439816E0
7.959071681E0	-9.505487680E-1	9.021539688E0	2.175075769E0
7.967474701E0	-3.025724173E0	8.009375572E0	1.850848317E0
7.975877722E0	-4.394418716E0	6.964908600E0	7.591229677E-1
7.984280743E0	-4.325624943E0	6.698108673E0	-3.409772366E-2
7.992683764E0	-3.467798233E0	6.985247612E0	-1.034895778E-1
8.001086785E0	-2.654836655E0	7.418348312E0	-2.093719877E-2
8.009489806E0	-2.495713949E0	7.803592682E0	4.211367965E-1
8.017892826E0	-2.679961443E0	7.945965767E0	4.743770957E-1
8.026295847E0	-2.706880569E0	7.799405575E0	3.451646566E-1
8.034698868E0	-2.339582443E0	7.716254711E0	-5.018945336E-1
8.043101889E0	-1.649851203E0	8.171489716E0	-1.139581800E0
8.051504910E0	-1.016949654E0	8.893523216E0	-1.162911773E0
8.059907931E0	-5.264210105E-1	9.652048111E0	-9.541380405E-1
8.068310951E0	2.338984162E-1	1.033878803E1	-2.374876440E-1
8.076713972E0	1.822732687E0	1.096331501E1	8.374879137E-3
8.085116993E0	3.994817495E0	1.168235874E1	5.647061467E-1
8.093520014E0	5.897709846E0	1.238285732E1	-4.055834413E-1
8.101923035E0	6.702296257E0	1.236072350E1	-9.505487680E-1
8.110326056E0	7.444071293E0	1.245763302E1	-2.849851847E0
8.118729076E0	8.862417221E0	1.167517948E1	-1.732403636E0
8.127132097E0	1.523390579E1	9.835697174E0	-8.570492744E0
8.135535118E0	3.241975403E1	1.351226902E1	-1.696212196E1
8.143938139E0	4.007559204E1	1.522732544E1	-8.373085022E0
8.152341160E0	2.648854637E1	7.898109436E0	-2.901297510E-1
8.160744181E0	1.357209015E1	4.749154568E0	1.908874273E0
8.169147201E0	1.158724308E0	1.788634896E0	6.476772785E0
8.177550222E0	-9.503693581E0	-3.547359705E-1	3.622135162E0
8.185953243E0	-1.058166027E1	3.732803345E0	4.576273263E-1
8.194356264E0	-5.075775146E0	1.057507992E1	1.104885817E0
8.202759285E0	-3.007778168E0	1.470210075E1	6.011967063E-1
8.211162306E0	-3.147758245E0	1.527757454E1	-2.356930256E0
8.219565326E0	-1.456630826E0	1.462014675E1	-2.609373093E0
8.227968347E0	1.311864972E0	1.241575813E1	-1.609173268E-1
8.236371368E0	2.886342287E0	9.249456406E0	6.179464459E-1
8.244774389E0	3.567698479E0	7.638488293E0	6.687939167E-1
8.253177410E0	3.901497364E0	8.337192535E0	1.596012712E0
8.261580431E0	3.690330744E0	9.601201057E0	2.001596212E0
8.269983451E0	2.554338217E0	1.000857925E1	1.966302037E0
8.278386472E0	5.294120312E-1	9.425328255E0	1.855035782E0
8.286789493E0	-1.058824062E0	8.876773834E0	7.220342159E-1
8.295192514E0	-8.973084688E-1	9.002396584E0	-2.853440940E-1
8.303595535E0	6.669993401E-1	9.635896683E0	3.589234129E-2
8.311998556E0	1.873580098E0	9.917651176E0	1.129412293E0
8.320401576E0	2.558525562E0	9.953543663E0	1.974078655E0
8.328804597E0	2.787638426E0	1.002951622E1	2.145165443E0
8.337207618E0	2.425125837E0	1.001934624E1	1.611566067E0
8.345610639E0	1.785045743E0	9.770493507E0	9.218349457E-1
8.354013660E0	1.513460279E0	9.413962364E0	5.042873621E-1
8.362416681E0	1.995614052E0	9.257830620E0	2.967100143E-1
8.370819701E0	2.663211584E0	9.435498238E0	4.606183469E-1
8.379222722E0	2.858824968E0	9.622735977E0	8.207381964E-1
8.387625743E0	2.649452925E0	9.665208817E0	1.034297585E0
8.396028764E0	2.382653236E0	9.616754532E0	8.356932998E-1
8.404431785E0	2.432304144E0	9.555138588E0	4.133601189E-1
8.412834806E0	2.635095835E0	9.527023315E0	1.375873089E-1
8.421237826E0	2.586641312E0	9.448657990E0	2.596212626E-1
8.429640847E0	2.285145521E0	9.326624870E0	2.063809484E-1
8.438043868E0	2.126621008E0	9.397212982E0	1.154536903E-1
8.446446889E0	2.063211441E0	9.556933403E0	1.447657645E-1
8.454849910E0	1.772483349E0	9.661021233E0	4.211367965E-1
8.463252931E0	1.473978758E0	9.748957634E0	6.364908218E-1
8.471655951E0	1.369890928E0	9.700503349E0	6.610172391E-1
8.480058972E0	1.427318692E0	9.515657425E0	7.130611539E-1
8.488461993E0	1.482353687E0	9.293723106E0	8.362914920E-1
8.496865014E0	1.403390527E0	9.214759827E0	9.786644578E-1
8.505268035E0	1.163509965E0	9.485149384E0	1.037288666E0
8.513671056E0	9.122636318E-1	9.985248566E0	1.082752228E0
8.522074076E0	8.045865893E-1	1.035434151E1	8.578268886E-1
8.530477097E0	6.562315822E-1	1.082154083E1	4.821537733E-1
8.538880118E0	5.222335458E-1	1.142871952E1	4.725824594E-1
8.547283139E0	4.677968323E-1	1.194138145E1	6.861419082E-1
8.555686160E0	2.847459018E-1	1.158843994E1	3.972085714E-1
8.564089181E0	6.580262445E-3	1.099083233E1	1.764706671E-1
8.572492201E0	-2.745763958E-1	1.120259762E1	5.084748268E-1
8.580895222E0	-8.614161611E-2	1.253420353E1	8.584251404E-1
8.589298243E0	-3.176472187E-1	1.344108295E1	1.242473125E0
8.597701264E0	-1.100698471E0	1.321256828E1	-1.154536963E0
8.606104285E0	-4.271188378E-1	1.277169132E1	-7.663014531E-1
8.614507306E0	7.453642488E-1	1.227817154E1	-8.572286963E-1
8.622910326E0	1.671386600E0	1.213878918E1	-9.026923180E-1
8.631313347E0	2.133201361E0	1.193061352E1	-5.096712112E-1
8.639716368E0	2.592025042E0	1.142512989E1	-5.347958803E-1
8.648119389E0	3.418147087E0	1.074855900E1	2.805584669E-1
8.656522410E0	4.464408875E0	1.004806042E1	9.984052777E-1
8.664925431E0	5.236692429E0	9.661619186E0	1.760519266E0
8.673328451E0	4.973481655E0	9.424132347E0	2.400599241E0
8.681731472E0	3.696312666E0	9.180662155E0	2.499303341E0
8.690134493E0	1.554736495E0	8.797212601E0	2.508874655E0
8.698537514E0	-1.281356573E0	7.720442295E0	2.228914261E0
8.706940535E0	-4.044468403E0	6.010172367E0	1.206580877E0
8.715343556E0	-5.671587944E0	4.536791801E0	-4.935196638E-1
8.723746576E0	-5.366502762E0	4.045066833E0	-8.195417523E-1
8.732149597E0	-4.421936035E0	3.818346739E0	5.814558864E-1
8.740552618E0	-3.211766243E0	4.061218262E0	2.506481707E-1
8.748955639E0	-1.591825247E0	5.229514122E0	5.252245665E-1
8.757358660E0	1.286142170E-1	6.454638958E0	9.445667267E-1
8.765761681E0	1.597209096E0	7.276573658E0	1.296909928E0
8.774164701E0	2.470589399E0	7.862216949E0	1.384846091E0
8.782567722E0	2.998805046E0	8.481958389E0	6.287141442E-1
8.790970743E0	3.020340443E0	9.125029564E0	1.076770201E-1
8.799373764E0	2.734996319E0	9.498309135E0	-6.167500615E-1
8.807776785E0	2.664407969E0	1.017488003E1	-1.320838094E0
8.816179806E0	2.927020311E0	1.117627621E1	-1.150947690E0
8.824582826E0	3.670589924E0	1.206341553E1	-2.321037948E-1
8.832985847E0	5.164309502E0	1.304507065E1	-6.323033571E-1
8.841388868E0	6.879963398E0	1.293380451E1	-1.902294040E0
8.849791889E0	1.228176022E1	9.771689415E0	-6.410371780E0
8.858194910E0	3.867459488E1	1.024367332E1	-3.311247635E1
8.866597931E0	6.082614899E1	2.301536369E1	-2.089173508E1
8.875000951E0	3.378725433E1	1.901994896E1	2.383191490E1
8.883403972E0	4.423730850E0	-3.134597540E-1	1.238764286E1
8.891806993E0	-1.609292793E1	-8.044670105E0	-1.287338614E0
8.900210014E0	-1.660499191E1	-4.689932466E-1	1.462014675E0
8.908613035E0	-5.785845280E0	1.084546852E1	2.076970100E0
8.917016056E0	-3.819543123E0	1.635015678E1	-4.331008911E0
8.925419076E0	-5.536991596E0	1.670489311E1	-6.944569588E0
8.933822097E0	-4.984249592E0	1.489352608E1	-2.379063845E0
8.942225118E0	-1.581057549E0	1.116491032E1	2.201396942E0
8.950628139E0	2.197807550E0	7.462017536E0	2.528017044E0
8.959031160E0	5.596213818E0	6.224927902E0	1.547558069E0
8.967434181E0	7.461419106E0	7.784450054E0	2.165504456E0
8.975837201E0	7.028916359E0	9.784850121E0	3.384647608E0
8.984240222E0	4.939383984E0	1.055174923E1	3.318246841E0
8.992643243E0	2.239681959E0	9.943972588E0	2.304288149E0
9.001046264E0	-3.589234129E-2	9.143573761E0	7.178468108E-1
9.009449285E0	-1.128814101E0	9.329017639E0	-1.060618639E0
9.017852306E0	-1.338186026E0	1.024307537E1	-2.070987940E0
9.026255326E0	-1.264606714E0	1.082333469E1	-1.132403374E0
9.034658347E0	-7.794619799E-1	1.032024384E1	2.925225794E-1
9.043061368E0	3.206382394E-1	9.632905960E0	1.296909928E0
9.051464389E0	1.545763373E0	9.260223389E0	1.594218135E0
9.059867410E0	2.123630047E0	9.221938133E0	1.733001828E0
9.068270431E0	1.965105653E0	9.366703987E0	1.941177368E0
9.076673451E0	1.567298889E0	9.498309135E0	1.541576028E0
9.085076472E0	1.339382529E0	9.606584549E0	8.739784956E-1
9.093479493E0	1.422533035E0	9.690333366E0	5.790630579E-1
9.101882514E0	1.392622828E0	9.585647583E0	8.249256015E-1
9.110285535E0	1.399203062E0	9.358329773E0	9.212366939E-1
9.118688556E0	1.646860242E0	9.366106033E0	7.651050687E-1
9.127091576E0	1.785643935E0	9.549755096E0	3.978067636E-1
9.135494597E0	1.728814363E0	9.628120422E0	6.340979785E-2
9.143897618E0	1.654038668E0	9.568898201E0	4.187439755E-2
9.152300639E0	1.712064624E0	9.469595909E0	2.805584669E-1
9.160703660E0	1.792224169E0	9.451649666E0	5.784648657E-1
9.169106681E0	1.647458434E0	9.425926208E0	7.387840152E-1
9.177509701E0	1.294517040E0	9.278767586E0	7.692924738E-1
9.185912722E0	9.936196208E-1	9.106484413E0	7.232306600E-1
9.194315743E0	8.249256015E-1	9.101100922E0	7.363911867E-1
9.202718764E0	7.393822074E-1	9.240483284E0	7.040880919E-1
9.211121785E0	7.142575383E-1	9.641280174E0	6.969096065E-1
9.219524806E0	7.082754970E-1	1.014138031E1	6.538388133E-1
9.227927826E0	9.074779749E-1	1.116909790E1	1.054038405E0
9.236330847E0	1.132403374E0	1.255813122E1	1.473978758E0
9.244733868E0	6.580262184E-1	1.214058399E1	2.769692242E-1
9.253136889E0	1.794616925E-3	1.080897808E1	-5.838487148E-1
9.261539910E0	-3.696911037E-1	1.037707329E1	3.888336942E-2
9.269942931E0	-7.298108935E-1	1.077667522E1	6.747759581E-1
9.278345951E0	-6.179464459E-1	1.118824005E1	3.098705411E-1
9.286748972E0	-2.273181453E-2	1.145922756E1	-1.854437590E-2
9.295151993E0	7.268198729E-1	1.192403316E1	2.392822653E-1
9.303555014E0	7.992027402E-1	1.220578861E1	1.510469317E0
9.311958035E0	-2.464607358E-1	1.202572823E1	-3.044866920E-1
9.320361056E0	2.422732860E-1	1.232483101E1	-7.776673436E-1
9.328764076E0	1.501496196E0	1.254616737E1	-1.196411322E-3
9.337167097E0	2.225923300E0	1.254616737E1	-2.177468538E-1
9.345570118E0	2.209173441E0	1.212682533E1	1.477568001E-1
9.353973139E0	2.054238319E0	1.128993511E1	-1.429711580E-1
9.362376160E0	2.411965132E0	1.062353420E1	-2.051845491E-1
9.370779181E0	3.208775282E0	1.033519936E1	2.213360928E-2
9.379182201E0	3.834498405E0	1.026161957E1	5.820540786E-1
9.387585222E0	3.922434568E0	1.023111153E1	1.519442320E0
9.395988243E0	2.966501951E0	1.005703354E1	2.379662037E0
9.404391264E0	1.182054400E0	9.723833084E0	2.593819857E0
9.412794285E0	-1.110867858E0	9.029914856E0	2.207378864E0
9.421197306E0	-3.474378586E0	7.849056244E0	1.322632670E0
9.429600326E0	-4.924428940E0	6.562914371E0	-1.950150430E-1
9.438003347E0	-4.901099205E0	6.411568165E0	-1.506281853E0
9.446406368E0	-4.534399033E0	6.476174355E0	-7.597211748E-2
9.454809389E0	-3.680161238E0	5.860022545E0	4.558327198E-1
9.463212410E0	-2.273181438E0	6.140581131E0	1.465603858E-1
9.471615431E0	-1.283151150E0	6.955337048E0	2.398804724E-1
9.480018451E0	-7.848458290E-1	7.462615490E0	5.736792088E-1
9.488421472E0	-5.533402562E-1	7.541578770E0	5.048855543E-1
9.496824493E0	-4.187439755E-2	7.654639721E0	1.052841991E-1
9.505227514E0	8.398807645E-1	8.102695465E0	-6.340979934E-1
9.513630535E0	1.572084427E0	8.700303078E0	-9.517452121E-1
9.522033556E0	1.995614052E0	9.355937004E0	-9.349954724E-1
9.530436576E0	2.432902336E0	1.014556789E1	-9.864411354E-1
9.538839597E0	3.049054146E0	1.121396351E1	-9.661021233E-1
9.547242618E0	3.744169235E0	1.223988628E1	-1.914258115E-2
9.555645639E0	4.932205677E0	1.286859989E1	1.631905079E0
9.564048660E0	7.185048103E0	1.240439224E1	1.956132531E0
9.572451681E0	9.978668213E0	1.253480148E1	5.443671346E-2
9.580854701E0	1.080239773E1	1.262273788E1	-9.332008362E-1
9.589257722E0	1.188036442E1	1.258146191E1	-3.189034462E0
9.597660743E0	1.477508163E1	1.064985561E1	-3.770490170E0
9.606063764E0	2.091326904E1	8.594420433E0	-7.594819069E0
9.614466785E0	2.750729179E1	7.062416077E0	-1.080359459E1
9.622869806E0	2.885445023E1	8.499904633E0	-1.168893814E1
9.631272826E0	1.904507446E1	1.233739376E1	4.520041943E0
9.639675847E0	3.263810158E0	8.365307808E0	1.098724365E1
9.648078868E0	-1.374975681E1	2.758924484E0	4.326821327E0
9.656481889E0	-1.640758514E1	4.931607246E0	-1.295713425E0
9.664884910E0	-5.225326538E0	1.147956657E1	-2.477169752E0
9.673287931E0	-3.499503136E-1	1.510947895E1	-3.352344513E0
9.681690951E0	-2.745763958E-1	1.399561977E1	-2.672782898E0
9.690093972E0	-3.870390654E-1	1.073898792E1	6.963114142E-1
9.698496993E0	1.328614831E0	8.309076309E0	2.675773859E0
9.706900014E0	3.549154282E0	7.341179848E0	1.968096614E0
9.715303035E0	4.812564373E0	7.990232944E0	1.170090318E0
9.723706056E0	3.617349625E0	9.599406242E0	2.422732830E0
9.732109076E0	6.789634228E-1	1.051825047E1	2.312663078E0
9.740512097E0	-1.182652593E0	1.057866859E1	1.161117196E0
9.748915118E0	-1.036690354E0	1.026580715E1	6.257231236E-1
9.757318139E0	-2.769692242E-1	9.984052658E0	2.769692242E-1
9.765721160E0	2.015953064E-1	9.963713646E0	2.488535494E-1
9.774124181E0	2.961117923E-1	9.866206169E0	8.470591903E-1
9.782527201E0	2.572284341E-1	9.600603104E0	1.466202021E0
9.790930222E0	6.173482537E-1	9.514460564E0	1.628315806E0
9.799333243E0	1.223330617E0	9.684351921E0	1.504487276E0
9.807736264E0	1.668395638E0	9.846465111E0	1.310668588E0
9.816139285E0	1.712064624E0	9.857831001E0	1.206580877E0
9.824542306E0	1.514656782E0	9.812965393E0	8.344969153E-1
9.832945326E0	1.308275819E0	9.739984512E0	3.200400174E-1
9.841348347E0	1.090528965E0	9.758528709E0	2.279163599E-1
9.849751368E0	9.242277741E-1	9.847661972E0	4.414757788E-1
9.858154389E0	1.050449133E0	9.832706451E0	3.553341627E-1
9.866557410E0	1.457229018E0	9.717850685E0	3.194418252E-1
9.874960431E0	1.811964989E0	9.442078590E0	3.397808075E-1
9.883363451E0	1.865205288E0	9.265607834E0	4.049852192E-1
9.891766472E0	1.570289850E0	9.379266739E0	3.822534084E-1
9.900169493E0	1.049252748E0	9.497113228E0	2.859423161E-1
9.908572514E0	7.220342159E-1	9.485149384E0	4.827519655E-1
9.916975535E0	6.675975323E-1	9.424132347E0	9.571290612E-1
9.925378556E0	7.250252366E-1	9.327222824E0	1.247258782E0
9.933781576E0	6.382854581E-1	9.268000603E0	1.369890928E0
9.942184597E0	2.841476798E-1	9.293125153E0	1.312463164E0
9.950587618E0	-1.399801224E-1	9.344570160E0	1.185045362E0
9.958990639E0	-3.834498227E-1	9.409176826E0	9.308080077E-1
9.967393660E0	-3.074777126E-1	9.571290970E0	8.703892231E-1
9.975796681E0	-9.571290761E-2	9.859027863E0	8.338986635E-1
9.984199701E0	1.441675574E-1	1.037946606E1	8.943174481E-1
9.992602722E0	3.062812984E-1	1.123190975E1	1.096511006E0
1.000100574E1	1.609173268E-1	1.183669567E1	1.141974568E0
1.000940876E1	-2.303091735E-1	1.182174015E1	6.819544435E-1
1.001781179E1	-6.059823632E-1	1.149153042E1	5.324030519E-1
1.002621481E1	-7.986045480E-1	1.116431236E1	-9.032905847E-2
1.003461783E1	-6.149554253E-1	1.088195896E1	-5.557330847E-1
1.004302085E1	2.153540403E-2	1.076590729E1	-6.933203340E-1
1.005142387E1	7.393822074E-1	1.096690464E1	-2.165504545E-1
1.005982689E1	1.925624013E0	1.164048386E1	1.625923038E0
1.006822991E1	1.386042476E0	1.184925747E1	2.267797709E0
1.007663293E1	6.580262184E-1	1.207418346E1	-3.846462369E-1
1.008503595E1	1.426720500E0	1.247677517E1	-4.504488707E-1
1.009343897E1	2.441277266E0	1.246062374E1	-4.223332107E-1
1.010184199E1	2.986242771E0	1.191565895E1	-5.479564071E-1
1.011024501E1	3.087339401E0	1.096271706E1	-3.523431420E-1
1.011864804E1	3.340978622E0	9.997811317E0	-4.911268353E-1
1.012705106E1	3.982254982E0	9.672387123E0	-6.640082598E-2
1.013545408E1	4.478167534E0	9.757332802E0	1.027717352E0
1.014385710E1	4.285545349E0	9.671191216E0	1.933998942E0
1.015226012E1	3.267997503E0	9.342776299E0	2.267797709E0
1.016066314E1	1.878963947E0	9.115457535E0	1.917249203E0
1.016906616E1	-1.674975902E-1	9.060422897E0	1.916052699E0
1.017746918E1	-3.168097258E0	8.327022552E0	1.692921996E0
1.018587220E1	-5.700900078E0	7.002595425E0	2.673979402E-1
1.019427522E1	-6.175277233E0	6.605386734E0	-1.482951880E0
1.020267824E1	-5.223531723E0	7.158727169E0	-6.424728632E-1
1.021108126E1	-4.394418716E0	6.831508636E0	5.138586760E-1
1.021948428E1	-3.414557934E0	6.877570629E0	1.938186288E-1
1.022788731E1	-2.548954248E0	7.532605648E0	3.008974493E-1
1.023629033E1	-1.862214208E0	8.044670105E0	6.167500615E-1
1.024469335E1	-1.102493048E0	8.285148621E0	5.389832854E-1
1.025309637E1	-3.080759048E-1	8.453842163E0	2.219343036E-1
1.026149939E1	5.976074338E-1	8.830113411E0	-1.304088384E-1
1.026990241E1	1.548754454E0	9.498908043E0	-2.315055877E-1
1.027830543E1	2.252842426E0	1.023051357E1	1.375873089E-1
1.028670845E1	2.778665304E0	1.075573826E1	1.244267747E-1
1.029511147E1	3.428914785E0	1.124267673E1	-4.839483798E-1
1.030351449E1	3.932005882E0	1.169551849E1	-4.402793646E-1
1.031191751E1	3.946960926E0	1.208854008E1	-5.922235921E-2
1.032032054E1	4.008575916E0	1.169791126E1	2.449652195E0
1.032872356E1	6.108876228E0	1.033340454E1	7.178468257E-2
1.033712658E1	1.512802315E1	1.036810017E1	-7.818548203E0
1.034552960E1	3.633142090E1	1.315214920E1	-2.043769646E1
1.035393262E1	5.076313400E1	1.583689690E1	-1.279322624E1
1.036233564E1	3.323571014E1	1.128215885E1	1.101296663E0
1.037073866E1	1.346201992E1	5.824130535E0	1.158126163E1
1.037914168E1	-6.530013084E0	-1.773081541E0	6.323033810E0
1.038754470E1	-1.697468376E1	-1.122233868E0	-1.211964726E0
1.039594772E1	-8.389236450E0	7.322037220E0	-2.230110645E0
1.040435074E1	-1.217946768E0	1.434856129E1	-2.270788670E0
1.041275376E1	-6.885347366E-1	1.620598984E1	-3.759722471E0
1.042115678E1	-1.351944804E0	1.410568905E1	-2.033899307E0
1.042955981E1	-6.460621208E-2	1.097707367E1	2.709871531E-1
1.043796283E1	2.946761131E0	8.259425163E0	6.340979785E-2
1.044636585E1	5.739185333E0	7.588238716E0	1.784447432E0
1.045476887E1	5.993422508E0	8.663214684E0	3.546163082E0
1.046317189E1	3.459423304E0	9.779465675E0	3.106482029E0
1.047157491E1	7.579265833E-1	1.000618649E1	1.694118381E0
1.047997793E1	8.733802289E-2	9.935597420E0	6.819544435E-1
1.048838095E1	1.860419661E-1	9.887741089E0	4.576273263E-1
1.049678397E1	3.361915946E-1	1.004267693E1	7.776673883E-2
1.050518699E1	7.836494446E-1	1.007497978E1	3.397808075E-1
1.051359001E1	1.291526079E0	9.646664619E0	9.930213690E-1
1.052199304E1	1.603191137E0	9.317052841E0	1.285543919E0
1.053039606E1	1.802393675E0	9.491728783E0	1.240678549E0
1.053879908E1	1.816750646E0	1.001156998E1	8.679963946E-1
1.054720210E1	1.544566989E0	1.025145054E1	3.840480447E-1
1.055560512E1	1.298704505E0	1.012104130E1	2.961117923E-1
1.056400814E1	1.374676585E0	9.769296646E0	3.858426511E-1
1.057241116E1	1.569691658E0	9.456435204E0	6.071787477E-1
1.058081418E1	1.658824325E0	9.391230583E0	7.603194118E-1
1.058921720E1	1.674975872E0	9.525228500E0	7.483552694E-1
1.059762022E1	1.765304923E0	9.594620705E0	7.040880919E-1
1.060602324E1	1.853241086E0	9.464211464E0	7.633104324E-1
1.061442626E1	2.048854351E0	9.283554077E0	1.019342422E0
1.062282928E1	2.195414782E0	9.147761345E0	1.086939692E0
1.063123231E1	2.073380709E0	9.124430656E0	1.133001566E0
1.063963533E1	1.728216171E0	9.178269386E0	1.082752228E0
1.064803835E1	1.374676585E0	9.224330902E0	9.846464992E-1
1.065644137E1	1.116251707E0	9.266803741E0	9.571290612E-1
1.066484439E1	9.421738982E-1	9.257232666E0	9.367900491E-1
1.067324741E1	8.919246197E-1	9.194420815E0	7.878368497E-1
1.068165043E1	9.104689956E-1	9.169894218E0	6.418746710E-1
1.069005345E1	8.859425783E-1	9.166305542E0	4.438686073E-1
1.069845647E1	8.662018180E-1	9.220742226E0	4.163511395E-1
1.070685949E1	8.003991842E-1	9.215956688E0	4.570291340E-1
1.071526251E1	7.465606928E-1	9.255437851E0	4.875376225E-1
1.072366554E1	6.711867452E-1	9.608977318E0	7.932206988E-1
1.073206856E1	5.264210105E-1	1.065464115E1	1.227517962E0
1.074047158E1	3.385843933E-1	1.262034512E1	1.992623091E0
1.074887460E1	-2.279163599E-1	1.370010567E1	1.838286042E0
1.075727762E1	-7.328019142E-1	1.220219898E1	-6.939185411E-2
1.076568064E1	-5.054838061E-1	1.098724365E1	-7.830511928E-1
1.077408366E1	-5.682953820E-2	1.169551849E1	4.396811724E-1
1.078248668E1	3.744767308E-1	1.265803146E1	2.104487419E0
1.079088970E1	-8.793623000E-2	1.256231880E1	3.834498227E-1
1.079929272E1	-1.998006850E-1	1.247498131E1	-2.217548370E0
1.080769574E1	3.672982752E-1	1.254796219E1	-2.453241348E0
1.081609876E1	8.201399446E-1	1.275374508E1	-2.148754835E0
1.082450178E1	1.348355532E0	1.310130215E1	-1.326221943E0
1.083290481E1	1.990828395E0	1.339920902E1	-6.083751321E-1
1.084130783E1	2.398804665E0	1.306660652E1	-7.519445419E-1
1.084971085E1	2.392822742E0	1.229252815E1	-8.871390224E-1
1.085811387E1	2.371885538E0	1.119841003E1	-1.237089276E0
1.086651689E1	2.803191662E0	1.012941647E1	-1.231107235E0
1.087491991E1	3.799802303E0	9.522835732E0	-6.927221417E-1
1.088332293E1	4.747360229E0	9.160323143E0	5.437689424E-1
1.089172595E1	5.614160061E0	8.933005333E0	1.916650891E0
1.090012897E1	6.252445698E0	8.882756233E0	2.910868645E0
1.090853199E1	6.053243160E0	8.641080856E0	3.155534744E0
1.091693501E1	4.811966419E0	8.590831757E0	2.971287489E0
1.092533804E1	1.788036704E0	8.071588516E0	3.668795347E0
1.093374106E1	-2.027318954E0	6.641279221E0	2.550150633E0
1.094214408E1	-4.920839787E0	5.386841774E0	8.081758618E-1
1.095054710E1	-5.967699528E0	4.555335999E0	-3.696911037E-1
1.095895012E1	-4.880161762E0	4.329214573E0	-8.344969153E-1
1.096735314E1	-3.324228764E0	4.531407833E0	-4.468596280E-1
1.097575616E1	-2.385046005E0	4.941178799E0	4.307080805E-1
1.098415918E1	-1.816750646E0	5.555535793E0	9.361918569E-1
1.099256220E1	-1.310070395E0	6.267400742E0	8.817551732E-1
1.100096522E1	-6.496513486E-1	7.071987152E0	6.430711150E-1
1.100936824E1	-1.214357466E-1	7.835896015E0	7.010970116E-1
1.101777126E1	2.123630047E-1	8.347361565E0	7.668996453E-1
1.102617429E1	6.454638839E-1	8.848059654E0	3.864408433E-1
1.103457731E1	1.136590719E0	9.477970123E0	-1.256231815E-1
1.104298033E1	1.660020709E0	1.026281643E1	-5.742774606E-1
1.105138335E1	2.046461582E0	1.107757282E1	-6.275177598E-1
1.105978637E1	2.488535643E0	1.192463207E1	-7.130611539E-1
1.106818939E1	2.852842808E0	1.319402409E1	-3.541377485E-1
1.107659241E1	3.290131092E0	1.431924915E1	1.755135417E0
1.108499543E1	5.024329185E0	1.484028625E1	1.348953724E0
1.109339845E1	7.402794838E0	1.511486244E1	3.403790295E-1
1.110180147E1	1.015813065E1	1.473799324E1	-3.305086374E0
1.111020449E1	1.474995708E1	1.294935799E1	-4.816154003E0
1.111860751E1	2.513660240E1	1.059182930E1	-1.508315754E1
1.112701054E1	3.763730621E1	1.080239773E1	-2.144268227E1
1.113541356E1	3.551726532E1	8.589036942E0	-1.082991505E1
1.114381658E1	2.324567413E1	8.391629219E0	-2.931805849E0
1.115221960E1	8.820542336E0	5.816353798E0	8.023732185E0
1.116062262E1	-6.598806858E0	7.585247755E-1	7.374679565E0
1.116902564E1	-1.330947781E1	2.646461725E0	2.231905222E0
1.117742866E1	-6.371488571E0	9.954740524E0	3.669991732E0
1.118583168E1	-2.777468920E0	1.444427395E1	3.976273060E0
1.119423470E1	-4.433900356E0	1.428515148E1	-1.027119160E0
1.120263772E1	-4.837689400E0	1.296072388E1	-4.183850288E0
1.121104074E1	-1.239482164E0	1.149870968E1	-3.085544825E0
1.121944376E1	2.928216696E0	9.023932457E0	-1.578066587E0
1.122784678E1	6.011368752E0	7.494320393E0	1.400399446E0
1.123624981E1	7.138986588E0	8.236693382E0	4.274777889E0
1.124465283E1	5.424529076E0	9.671789169E0	4.324428558E0
1.125305585E1	2.432304144E0	1.015633583E1	2.324028969E0
1.126145887E1	6.819544435E-1	9.992427826E0	2.093719877E-2
1.126986189E1	-2.991028316E-2	1.003310490E1	-1.199402332E0
1.127826491E1	-1.998006850E-1	1.033400249E1	-1.383051515E0
1.128666793E1	-1.674975827E-2	1.067139053E1	-5.958128572E-1
1.129507095E1	-1.854437590E-2	1.025204849E1	6.263213158E-1
1.130347397E1	1.537388563E-1	9.549157143E0	1.341775298E0
1.131187699E1	6.388836503E-1	9.259027481E0	1.615155339E0
1.132028001E1	1.062413216E0	9.474979401E0	1.537986755E0
1.132868304E1	1.336989641E0	9.753145218E0	1.335793257E0
1.133708606E1	1.418943882E0	9.828518867E0	1.220937729E0
1.134548908E1	1.353739381E0	9.771689415E0	1.064207911E0
1.135389210E1	1.176670551E0	9.768698692E0	8.715856671E-1
1.136229512E1	9.780662656E-1	9.693922997E0	6.813562512E-1
1.137069814E1	8.901300430E-1	9.648459435E0	3.834498227E-1
1.137910116E1	9.110672474E-1	9.619147301E0	4.504488707E-1
1.138750418E1	9.936196208E-1	9.534799576E0	5.820540786E-1
1.139590720E1	1.049252748E0	9.485747337E0	9.206385016E-1
1.140431022E1	1.063609719E0	9.441479683E0	1.066600680E0
1.141271324E1	9.589236975E-1	9.363713264E0	1.142572761E0
1.142111626E1	8.961120844E-1	9.322437286E0	1.042074203E0
1.142951929E1	8.632107973E-1	9.312865257E0	9.678967595E-1
1.143792231E1	7.998009920E-1	9.316454887E0	9.714859724E-1
1.144632533E1	7.238288522E-1	9.276374817E0	9.762716293E-1
1.145472835E1	6.418746710E-1	9.209974289E0	1.026520967E0
1.146313137E1	4.624129832E-1	9.227920532E0	9.732806087E-1
1.147153439E1	1.794617027E-1	9.332606316E0	8.985049129E-1
1.147993741E1	-3.828516230E-2	9.462417603E0	9.517452121E-1
1.148834043E1	-1.914258115E-2	9.662218094E0	1.187438250E0
1.149674345E1	1.758724600E-1	9.896116257E0	1.354935765E0
1.150514647E1	4.462614357E-1	1.037886810E1	1.487139225E0
1.151354949E1	7.818548083E-1	1.146820068E1	1.785045743E0
1.152195251E1	7.537391186E-1	1.222552872E1	1.332802176E0
1.153035554E1	1.232303679E-1	1.093280697E1	-1.130608693E-1
1.153875856E1	-1.621137410E-1	9.397212982E0	-8.781659007E-1
1.154716158E1	-7.298108935E-2	9.317651749E0	-4.528416991E-1
1.155556460E1	-1.058823988E-1	1.046500969E1	5.647061467E-1
1.156396762E1	-9.571290761E-2	1.160100269E1	3.014956415E-1
1.157237064E1	-8.374879137E-3	1.211486149E1	-1.399801224E-1
1.158077366E1	3.708875179E-2	1.210170078E1	-3.385843933E-1
1.158917668E1	2.931207791E-2	1.226620674E1	3.888336942E-2
1.159757970E1	-5.569294691E-1	1.230090332E1	5.246263742E-1
1.160598272E1	-8.745766878E-1	1.228774261E1	-2.973082066E-1
1.161438574E1	7.238288224E-2	1.217587757E1	3.649054468E-2
1.162278876E1	1.546959877E0	1.206760311E1	-1.160518974E-1
1.163119178E1	2.612364054E0	1.216570854E1	-3.337987661E-1
1.163959481E1	2.873780012E0	1.202812099E1	-2.279163599E-1
1.164799783E1	2.774477959E0	1.150947666E1	-4.456632137E-1
1.165640085E1	3.059821844E0	1.074078274E1	-2.548356056E-1
1.166480387E1	3.663411379E0	1.003370380E1	-3.409772366E-2
1.167320689E1	4.398606300E0	9.518648148E0	3.678964674E-1
1.168160991E1	5.033302307E0	9.254839897E0	1.286740422E0
1.169001293E1	5.187639713E0	8.986245155E0	1.909472466E0
1.169841595E1	4.637888432E0	8.717651367E0	1.869990945E0
1.170681897E1	3.113660574E0	8.675776482E0	2.145763636E0
1.171522199E1	2.338984162E-1	7.897511005E0	2.490330219E0
1.172362501E1	-2.721835852E0	6.690331936E0	1.598405480E0
1.173202804E1	-4.907679081E0	5.467599869E0	1.375873089E-1
1.174043106E1	-5.008776188E0	5.323431969E0	-1.882553220E0
1.174883408E1	-4.210769653E0	5.626722336E0	-5.371887088E-1
1.175723710E1	-3.538984776E0	5.422734261E0	3.158525825E-1
1.176564012E1	-2.629113913E0	5.894120216E0	5.383851007E-3
1.177404314E1	-1.760519266E0	6.941578388E0	2.554338276E-1
1.178244616E1	-1.292124271E0	7.710272789E0	9.619147182E-1
1.179084918E1	-1.027717352E0	8.036892891E0	1.102493048E0
1.179925220E1	-7.411768436E-1	8.326424599E0	4.492524564E-1
1.180765522E1	-3.385843933E-1	8.868398666E0	1.028913707E-1
1.181605824E1	3.320041299E-1	9.606584549E0	9.990034252E-2
1.182446126E1	1.224527001E0	1.057268715E1	4.456632137E-1
1.183286429E1	2.012962103E0	1.153161049E1	1.057627559E0
1.184126731E1	2.793022156E0	1.230927753E1	1.353739381E0
1.184967033E1	3.554538012E0	1.293559933E1	1.641476393E0
1.185807335E1	4.397409916E0	1.350209999E1	2.227717876E0
1.186647637E1	5.511268616E0	1.348594856E1	3.322434187E0
1.187487939E1	6.955935478E0	1.354277802E1	2.082952023E0
1.188328241E1	7.581060410E0	1.407697582E1	9.984052777E-1
1.189168543E1	7.152146816E0	1.368634701E1	-9.026923180E-1
1.190008845E1	7.832904816E0	1.193779182E1	-2.955734253E0
1.190849147E1	1.284527016E1	9.748359680E0	-8.730812073E0
1.191689449E1	2.292742920E1	9.168100357E0	-1.694118500E1
1.192529751E1	2.949991417E1	7.828717709E0	-1.495215034E1
1.193370054E1	2.656631279E1	5.518447399E0	-1.133300591E1
1.194210356E1	1.948475456E1	9.506086349E0	-3.946362734E0
1.195050658E1	6.980462074E0	9.873384476E0	1.113081264E1
1.195890960E1	-8.831310272E0	5.159523964E0	8.541778564E0
1.196731262E1	-1.504008675E1	6.017949104E0	1.567298770E-1
1.197571564E1	-6.274579048E0	1.148614693E1	-9.930213690E-1
1.198411866E1	-1.462014675E0	1.417089367E1	-1.019940615E0
1.199252168E1	-1.709671736E0	1.306780243E1	-1.342373490E0
1.200092470E1	-2.224128723E0	1.030827999E1	2.231307179E-1
1.200932772E1	1.878365725E-1	7.913662910E0	1.703091502E0
1.201773074E1	3.681955814E0	6.895516872E0	1.646860242E0
1.202613376E1	6.128018856E0	7.848458290E0	2.519642353E0
1.203453678E1	5.283950806E0	9.693922997E0	3.970889091E0
1.204293981E1	1.944168448E0	1.057208824E1	2.545963287E0
1.205134283E1	2.452643216E-2	1.068036366E1	3.086741269E-1
1.205974585E1	-1.130608693E-1	1.045783138E1	-8.392825127E-1
1.206814887E1	-6.580262445E-3	1.011625576E1	-1.289731383E0
1.207655189E1	-7.058826834E-2	1.005643559E1	-7.022934556E-1
1.208495491E1	-1.830509305E-1	9.945767403E0	6.358926296E-1
1.209335793E1	-1.477568001E-1	9.646066666E0	1.764706731E0
1.210176095E1	1.758724600E-1	9.530612946E0	1.902892232E0
1.211016397E1	7.375875711E-1	9.703494072E0	1.746162295E0
1.211856699E1	1.186241865E0	9.845867157E0	1.631306887E0
1.212697001E1	1.441077471E0	9.841081619E0	1.311864972E0
1.213537304E1	1.583450437E0	9.754341125E0	8.979067206E-1
1.214377606E1	1.670190215E0	9.686744690E0	5.605186820E-1
1.215217908E1	1.632503271E0	9.639486313E0	4.887340367E-1
1.216058210E1	1.526620865E0	9.641879082E0	4.546363056E-1
1.216898512E1	1.553540111E0	9.731609344E0	3.858426511E-1
1.217738814E1	1.555334687E0	9.746564865E0	4.175475538E-1
1.218579116E1	1.455434322E0	9.582656860E0	5.150550604E-1
1.219419418E1	1.351346612E0	9.317651749E0	5.174478889E-1
1.220259720E1	1.345962763E0	9.150154114E0	5.288137794E-1
1.221100022E1	1.410568953E0	9.151350021E0	5.760720372E-1
1.221940324E1	1.432702541E0	9.200403214E0	5.706881881E-1
1.222780626E1	1.293918848E0	9.210572243E0	5.312066078E-1
1.223620929E1	9.762716293E-1	9.183652878E0	4.277170599E-1
1.224461231E1	5.467599630E-1	9.099904060E0	3.014956415E-1
1.225301533E1	7.776673883E-2	9.053244591E0	3.840480447E-1
1.226141835E1	-5.276173949E-1	9.044271469E0	4.863412082E-1
1.226982137E1	-1.173081279E0	9.300901413E0	5.318048596E-1
1.227822439E1	-1.363908887E0	1.100219822E1	1.469791293E0
1.228662741E1	-1.210170031E0	1.388196087E1	2.079961061E0
1.229503043E1	-1.150349498E0	1.383290768E1	3.068794906E-1
1.230343345E1	-1.095314622E0	1.189472103E1	-1.194616675E0
1.231183647E1	-8.476574421E-1	1.167039394E1	-3.690928817E-1
1.232023949E1	-9.714859724E-1	1.252523041E1	5.934200287E-1
1.232864251E1	-7.369893789E-1	1.321615791E1	9.170492887E-1
1.233704554E1	-1.112662554E-1	1.311446285E1	1.936989903E0
1.234544856E1	-6.209374666E-1	1.209930801E1	-7.034898400E-1
1.235385158E1	-9.571290761E-2	1.283809185E1	-2.464607239E0
1.236225460E1	8.177471161E-1	1.324307728E1	-7.501499057E-1
1.237065762E1	2.033899307E0	1.286441231E1	-3.517449200E-1
1.237906064E1	3.321835995E0	1.224467182E1	-3.613162339E-1
1.238746366E1	4.201198578E0	1.142752266E1	-4.091726840E-1
1.239586668E1	4.881358147E0	1.054756260E1	-6.293123364E-1
1.240426970E1	5.410770416E0	9.977472305E0	5.461617708E-1
1.241267272E1	5.641079426E0	9.577272415E0	1.741376638E0
1.242107574E1	5.557928562E0	9.153742790E0	2.303689957E0
1.242947876E1	5.184648514E0	8.679366112E0	2.121835470E0
1.243788178E1	4.505684853E0	8.474779129E0	1.750947952E0
1.244628481E1	3.228515863E0	8.261817932E0	1.479960799E0
1.245468783E1	1.247856975E0	8.036892891E0	1.239482164E0
1.246309085E1	-1.585843205E0	7.058228493E0	9.026923180E-1
1.247149387E1	-3.032304525E0	6.513861656E0	-1.288534999E0
1.247989689E1	-3.699303865E0	6.102295876E0	-9.152546525E-1
1.248829991E1	-3.126821041E0	5.402993679E0	-5.611169338E-1
1.249670293E1	-1.710269928E0	5.625525951E0	4.133601189E-1
1.250510595E1	-6.299105883E-1	5.992824078E0	6.400800347E-1
1.251350897E1	-2.889333367E-1	6.095117569E0	6.496513486E-1
1.252191199E1	-8.003991842E-1	5.781059742E0	9.266205430E-1
1.253031501E1	-1.024128079E0	5.579464436E0	4.187439755E-2
1.253871804E1	-9.361918569E-1	5.863013744E0	-3.062812984E-1
1.254712106E1	-6.652047038E-1	6.181259155E0	-4.677968323E-1
1.255552408E1	1.292124242E-1	6.692724705E0	-4.875376225E-1
1.256392710E1	1.018146038E0	7.411170006E0	-4.510470629E-1
1.257233012E1	1.896311998E0	8.138587952E0	-3.032902777E-1
1.258073314E1	2.852244616E0	8.773283958E0	5.443671346E-2
1.258913616E1	3.863212109E0	9.404391289E0	3.457628787E-1
1.259753918E1	4.597210407E0	1.013121128E1	3.080759048E-1
1.260594220E1	4.698307037E0	1.092024422E1	7.537391037E-2
1.261434522E1	3.866801500E0	1.145025444E1	-3.427718580E-1
1.262274824E1	2.323430777E0	1.209033489E1	-3.678964674E-1
1.263115126E1	1.629512191E0	1.254915810E1	2.550748825E0
1.263955429E1	3.728017569E0	1.066540909E1	3.337987661E0
1.264795731E1	8.638090134E0	9.533603668E0	-3.375076294E0
1.265636033E1	3.004607582E1	9.902098656E0	-3.221636581E1
1.266476335E1	5.580481339E1	2.340419769E1	-4.101477432E1
1.267316637E1	3.950131607E1	2.813600540E1	3.065385246E1
1.268156939E1	6.269793510E0	6.936194420E0	2.504926300E1
1.268997241E1	-1.659661865E1	-5.962913990E0	-9.978070259E-1
1.269837543E1	-1.889731598E1	-4.034897327E0	-5.657829285E0
1.270677845E1	-5.848058701E0	6.955337048E0	-1.382453322E0
1.271518147E1	1.836491376E-1	1.511067486E1	-4.416552544E0
1.272358449E1	-9.840483069E-1	1.648714638E1	-5.419145107E0
1.273198751E1	-3.423531055E0	1.349312687E1	-2.542374134E0
1.274039054E1	-2.067996979E0	1.069950676E1	1.757528186E0
1.274879356E1	1.457229018E0	8.016553879E0	2.757728100E0
1.275719658E1	4.959125042E0	6.455835342E0	-1.710868180E-1
1.276559960E1	6.762714863E0	7.268796921E0	-1.050449133E0
1.277400262E1	6.306283951E0	9.388837814E0	2.058425665E0
1.278240564E1	4.231108665E0	1.076830006E1	4.217350006E0
1.279080866E1	1.743769526E0	1.073240757E1	3.500699520E0
1.279921168E1	-2.703889608E-1	9.768698692E0	1.774876237E0
1.280761470E1	-1.329811215E0	9.166305542E0	-1.058823988E-1
1.281601772E1	-1.569691658E0	9.253643036E0	-1.155135155E0
1.282442074E1	-1.401595831E0	9.574281693E0	-5.838487148E-1
1.283282376E1	-8.141579032E-1	9.648459435E0	9.852447510E-1
1.284122678E1	2.745763958E-1	9.613164902E0	2.324627161E0
1.284962981E1	1.439282775E0	9.643074989E0	2.854039192E0
1.285803283E1	2.023131609E0	9.658628464E0	2.636292458E0
1.286643585E1	1.886142492E0	9.657432556E0	2.267199516E0
1.287483887E1	1.335195065E0	9.555138588E0	1.619342685E0
1.288324189E1	1.050449133E0	9.437292099E0	7.046862841E-1
1.289164491E1	1.342373490E0	9.507282257E0	8.793623000E-2
1.290004793E1	1.724028707E0	9.677172661E0	-9.930214286E-2
1.290845095E1	1.919641972E0	9.799804688E0	1.740778536E-1
1.291685397E1	2.083550215E0	9.760323524E0	5.509474277E-1
1.292525699E1	2.383849621E0	9.638887405E0	6.197410822E-1
1.293366001E1	2.732603550E0	9.558728218E0	5.168496966E-1
1.294206304E1	2.992224693E0	9.559326172E0	3.326023519E-1
1.295046606E1	3.078964472E0	9.608977318E0	1.818545163E-1
1.295886908E1	3.096910715E0	9.539586067E0	-1.555334684E-2
1.296727210E1	3.004188776E0	9.466604233E0	1.010967568E-1
1.297567512E1	2.746960402E0	9.425926208E0	2.506481707E-1
1.298407814E1	2.356930256E0	9.395418167E0	4.576273263E-1
1.299248116E1	1.991426587E0	9.417551994E0	6.939185858E-1
1.300088418E1	1.877767563E0	9.412766457E0	8.021938205E-1
1.300928720E1	1.970489502E0	9.306883812E0	8.410771489E-1
1.301769022E1	1.963310957E0	9.194420815E0	9.930213690E-1
1.302609324E1	1.702493310E0	9.245866776E0	1.015753269E0
1.303449626E1	1.276570916E0	9.511469841E0	8.237292171E-1
1.304289928E1	8.590233326E-1	9.665208817E0	4.863412082E-1
1.305130231E1	6.275177598E-1	9.567103386E0	1.435693651E-1
1.305970533E1	6.681957245E-1	9.407979965E0	1.621137410E-1
1.306810835E1	6.909275651E-1	9.410373688E0	5.060819983E-1
1.307651137E1	6.227321029E-1	9.696913719E0	7.453642488E-1
1.308491439E1	5.419743061E-1	1.044706345E1	9.511470199E-1
1.309331741E1	5.748756528E-1	1.224586773E1	1.779063582E0
1.310172043E1	6.592226624E-1	1.447358608E1	2.258226395E0
1.311012345E1	5.150550604E-1	1.419542027E1	7.806583643E-1
1.311852647E1	-2.560320199E-1	1.230987644E1	-5.174478889E-1
1.312692949E1	-5.922235847E-1	1.243370438E1	2.656033039E-1
1.313533251E1	-9.062815905E-1	1.330708504E1	1.587039590E0
1.314373554E1	-1.766501307E0	1.297867012E1	-7.794619799E-1
1.315213856E1	-6.765705943E-1	1.210528946E1	-2.192423820E0
1.316054158E1	1.305284739E0	1.187557888E1	-2.079362869E0
1.316894460E1	2.365305185E0	1.228774261E1	-1.746760488E0
1.317734762E1	2.361716032E0	1.255992603E1	-1.934597135E0
1.318575064E1	1.779063582E0	1.227338600E1	-2.104487419E0
1.319415366E1	1.695314884E0	1.142333508E1	-2.462214470E0
1.320255668E1	2.343769789E0	1.050449181E1	-2.084148407E0
1.321095970E1	3.369094372E0	9.826126099E0	-1.283749342E0
1.321936272E1	4.611567497E0	9.324830055E0	-3.134597540E-1
1.322776574E1	6.056832314E0	9.030512810E0	9.158528447E-1
1.323616876E1	7.116254330E0	8.621937752E0	2.185245275E0
1.324457179E1	7.359126091E0	8.130212784E0	2.673381090E0
1.325297481E1	6.413960934E0	7.925028801E0	2.440679073E0
1.326137783E1	3.852444410E0	8.036892891E0	3.102892876E0
1.326978085E1	-3.475574851E-1	7.341778278E0	3.667598963E0
1.327818387E1	-4.484149456E0	5.967699528E0	2.020738840E0
1.328658689E1	-6.966104984E0	4.845465660E0	1.250249892E-1
1.329498991E1	-6.954739094E0	4.332205296E0	-5.748756528E-1
1.330339293E1	-4.775475979E0	4.576871395E0	-9.002995491E-1
1.331179595E1	-3.312264681E0	5.260620594E0	4.348955154E-1
1.332019897E1	-2.860619545E0	5.758327484E0	1.499701619E0
1.332860199E1	-2.027318954E0	6.402595043E0	1.596610904E0
1.333700501E1	-8.446664214E-1	7.211967468E0	1.249651670E0
1.334540804E1	5.503492057E-2	7.919644833E0	1.223330617E0
1.335381106E1	6.035895348E-1	8.454441071E0	1.368694544E0
1.336221408E1	1.125224829E0	8.897710800E0	1.090528965E0
1.337061710E1	2.011765718E0	9.529416084E0	6.023930907E-1
1.337902012E1	3.218944550E0	1.049252701E1	-7.776673883E-2
1.338742314E1	4.212564468E0	1.170090294E1	-1.800599098E-1
1.339582616E1	4.810171604E0	1.246182060E1	2.021935135E-1
1.340422918E1	5.764907837E0	1.276271820E1	-8.135596663E-2
1.341263220E1	7.144370079E0	1.331426334E1	-7.878368497E-1
1.342103522E1	8.496315002E0	1.317966747E1	-1.177268744E0
1.342943824E1	1.058345413E1	1.071326542E1	-2.027917147E0
1.343784126E1	1.785225105E1	8.922835350E0	-9.134600639E0
1.344624428E1	3.573321533E1	9.260822296E0	-2.381516647E1
1.345464731E1	5.155097198E1	1.674317741E1	-2.248296165E1
1.346305033E1	3.147040367E1	1.696271896E1	1.152682495E1
1.347145335E1	7.012764931E0	5.841478348E0	1.495274830E1
1.347985637E1	-1.609950829E1	-4.822135925E0	1.381855011E-1
1.348825939E1	-1.776431465E1	-2.285145670E-1	-1.467398524E0
1.349666241E1	-5.062614441E0	1.107218838E1	-1.083350420E0
1.350506543E1	-2.159522533E0	1.773201180E1	-2.266601324E0
1.351346845E1	-4.305884361E0	1.727199173E1	-3.254238844E0
1.352187147E1	-3.587439299E0	1.324606800E1	-9.278169870E-1
1.353027449E1	6.921239495E-1	8.443673134E0	8.793623447E-1
1.353867751E1	5.578866005E0	5.219344616E0	-7.932206988E-1
1.354708054E1	8.995817184E0	5.675775528E0	2.667398930E0
1.355548356E1	8.139784813E0	8.610571861E0	4.594219685E0
1.356388658E1	4.228117466E0	1.034596729E1	4.246063709E0
1.357228960E1	9.254241586E-1	1.057567787E1	1.902294040E0
1.358069262E1	1.734796353E-2	1.050150013E1	-2.153540403E-2
1.358909564E1	-7.339983582E-1	1.031186962E1	-1.028913736E0
1.359749866E1	-1.073779106E0	1.040758228E1	-1.491924882E0
1.360590168E1	-3.822534084E-1	1.028674412E1	-3.523431420E-1
1.361430470E1	8.321040869E-1	9.596415520E0	9.613165259E-1
1.362270772E1	1.470987678E0	9.050253868E0	1.794616938E0
1.363111074E1	1.679163337E0	9.136395454E0	1.998605132E0
1.363951376E1	1.849651933E0	9.754940033E0	1.497906923E0
1.364791679E1	1.590628862E0	1.008933640E1	1.018744230E0
1.365631981E1	1.141376376E0	9.969695091E0	6.849454641E-1
1.366472283E1	8.841479421E-1	9.638289452E0	4.965106845E-1
1.367312585E1	9.786644578E-1	9.611968994E0	2.973082066E-1
1.368152887E1	1.171884894E0	9.804591179E0	2.434697002E-1
1.368993189E1	1.439880967E0	9.818349838E0	9.750752151E-2
1.369833491E1	1.766501307E0	9.663414001E0	8.195417374E-2
1.370673793E1	2.015953064E0	9.391828537E0	3.445664644E-1
1.371514095E1	2.318047047E0	9.043074608E0	6.155536175E-1
1.372354397E1	2.506481647E0	8.824131966E0	9.643075466E-1
1.373194699E1	2.463410854E0	8.811569214E0	1.021137118E0
1.374035001E1	2.331805706E0	8.940781593E0	9.110672474E-1
1.374875304E1	2.055434704E0	9.016754150E0	8.745766878E-1
1.375715606E1	1.788036704E0	9.031110764E0	8.542376757E-1
1.376555908E1	1.694118381E0	9.089137077E0	7.950153351E-1
1.377396210E1	1.663609982E0	9.122636795E0	7.220342159E-1
1.378236512E1	1.529611826E0	9.115457535E0	6.149554253E-1
1.379076814E1	1.320838094E0	9.122037888E0	4.444667995E-1
1.379917116E1	1.248455167E0	9.200403214E0	2.638086975E-1
1.380757418E1	1.348953724E0	9.280562401E0	2.195414752E-1
1.381597720E1	1.467398524E0	9.350552559E0	1.417747438E-1
1.382438022E1	1.585245013E0	9.388239861E0	7.657032460E-2
1.383278324E1	1.648056626E0	9.559925079E0	1.507478207E-1
1.384118626E1	1.444666624E0	9.965508461E0	1.788634956E-1
1.384958928E1	1.069591761E0	1.132164001E1	1.120439172E0
1.385799231E1	8.482556343E-1	1.378505135E1	2.153540373E0
1.386639533E1	2.751746029E-2	1.440658665E1	1.810170293E0
1.387479835E1	-1.558325768E0	1.275015545E1	8.231309652E-1
1.388320137E1	-2.324627161E0	1.176191998E1	4.522434771E-1
1.389160439E1	-2.153540373E0	1.172842026E1	-9.750752151E-2
1.390000741E1	-1.127019525E0	1.186182022E1	-8.691928387E-1
1.390841043E1	1.447657645E-1	1.190070343E1	-1.378265858E0
1.391681345E1	1.130010486E0	1.214536953E1	-1.381855130E0
1.392521647E1	1.787438512E0	1.270768261E1	-9.696913958E-1
1.393361949E1	2.063211441E0	1.313599777E1	-8.925228715E-1
1.394202251E1	1.938186288E0	1.319821167E1	-8.979067206E-1
1.395042554E1	1.599003673E0	1.273699474E1	-7.022934556E-1
1.395882856E1	1.692921996E0	1.187498093E1	-6.083751321E-1
1.396723158E1	2.660818815E0	1.105005455E1	-2.548356056E-1
1.397563460E1	4.152145386E0	1.069651508E1	6.400800347E-1
1.398403762E1	5.481956482E0	1.051047325E1	1.534995675E0
1.399244064E1	6.367899418E0	1.049491978E1	2.127219439E0
1.400084366E1	6.282355785E0	1.023111153E1	2.563909531E0
1.400924668E1	5.209175110E0	9.711270332E0	2.140379906E0
1.401764970E1	3.133401155E0	9.466604233E0	2.282154560E0
1.402605272E1	-2.153540403E-1	8.932407379E0	2.867199659E0
1.403445574E1	-3.939782381E0	6.782455921E0	1.690529227E0
1.404285876E1	-5.639883041E0	6.250650883E0	-6.765705943E-1
1.405126179E1	-6.801000118E0	5.702096462E0	-1.633101404E-1
1.405966481E1	-7.108478069E0	4.131208420E0	1.196411327E-1
1.406806783E1	-5.181657314E0	4.245465755E0	-4.390829504E-1
1.407647085E1	-2.953341246E0	5.553741455E0	4.019941986E-1
1.408487387E1	-1.998605132E0	6.307480335E0	1.511067510E0
1.409327689E1	-1.795813441E0	6.588637352E0	1.068395257E0
1.410167991E1	-1.517049551E0	6.919445038E0	-4.546362907E-2
1.411008293E1	-9.272187948E-1	7.391428947E0	-7.369893789E-1
1.411848595E1	-4.666004330E-2	7.768298626E0	-7.160521746E-1
1.412688897E1	1.187438250E0	8.260024071E0	-7.405785918E-1
1.413529199E1	2.487937450E0	9.002396584E0	-6.717849374E-1
1.414369501E1	3.684946775E0	9.999007225E0	-6.364908218E-1
1.415209804E1	4.301696777E0	1.082034397E1	-4.187439568E-3
1.416050106E1	4.644468784E0	1.155194950E1	-4.348955154E-1
1.416890408E1	4.878366947E0	1.239302635E1	3.451646566E-1
1.417730710E1	5.672185898E0	1.232722378E1	9.990034699E-1
1.418571012E1	7.500302792E0	1.329512119E1	-7.752745152E-1
1.419411314E1	8.868398666E0	1.389871025E1	6.466603279E-1
1.420251616E1	1.262752342E1	1.200299644E1	-1.495514154E0
1.421091918E1	3.185744286E1	1.010010433E1	-2.462752914E1
1.421932220E1	5.923492432E1	1.693101501E1	-2.503191566E1
1.422772522E1	4.845944595E1	1.814836311E1	3.845864296E0
1.423612824E1	1.805444527E1	8.109275818E0	1.767219162E1
1.424453126E1	-7.681559086E0	-4.583451748E0	4.993222713E0
1.425293428E1	-1.974138451E1	-6.015556335E0	-1.028315544E0
1.426133731E1	-1.298465252E1	2.641077995E0	-1.396810174E0
1.426974033E1	-2.282154560E0	1.376650715E1	-3.260818958E0
1.427814335E1	-1.436291814E0	1.786840248E1	-4.391427994E0
1.428654637E1	-2.359323025E0	1.653978920E1	-3.474976778E0
1.429494939E1	-5.138586760E-1	1.394955826E1	8.823533654E-1
1.430335241E1	3.326621771E0	1.053858948E1	2.469393015E0
1.431175543E1	5.542973518E0	7.160521984E0	2.476571500E-1
1.432015845E1	6.632306099E0	6.103492260E0	8.392825127E-1
1.432856147E1	6.500700951E0	7.974679470E0	2.657827854E0
1.433696449E1	3.503092289E0	9.948758125E0	2.918047190E0
1.434536751E1	1.292124242E-1	1.052841949E1	1.599601984E0
1.435377054E1	-1.385444283E0	1.043150997E1	-2.458625287E-1
1.436217356E1	-9.475577474E-1	1.025922680E1	-1.349551916E0
1.437057658E1	-6.340979785E-2	1.026520920E1	-8.775677085E-1
1.437897960E1	7.597211599E-1	1.002532864E1	8.656035662E-1
1.438738262E1	1.327418327E0	9.279964447E0	2.489133835E0
1.439578564E1	1.807179332E0	8.821140289E0	2.913859844E0
1.440418866E1	1.900499344E0	9.189635277E0	2.275574446E0
1.441259168E1	1.313061476E0	9.833903313E0	1.194018483E0
1.442099470E1	5.700899959E-1	1.011924744E1	4.325026870E-1
1.442939772E1	3.302095234E-1	1.007438183E1	9.750752151E-2
1.443780074E1	5.838487148E-1	9.932606697E0	2.267199457E-1
1.444620376E1	9.690931439E-1	9.763314247E0	5.018945336E-1
1.445460679E1	1.225125194E0	9.701699257E0	8.889335990E-1
1.446300981E1	1.369292736E0	9.709476471E0	1.036690354E0
1.447141283E1	1.399801254E0	9.601201057E0	1.046261668E0
1.447981585E1	1.557727575E0	9.388239861E0	1.015154958E0
1.448821887E1	2.011167526E0	9.206983566E0	1.029511929E0
1.449662189E1	2.449652195E0	9.043074608E0	8.650053740E-1
1.450502491E1	2.626122952E0	8.973084450E0	8.105686903E-1
1.451342793E1	2.443071842E0	9.027522087E0	8.075776696E-1
1.452183095E1	1.921436548E0	9.125627518E0	9.170492887E-1
1.453023397E1	1.378864050E0	9.212965012E0	9.080761671E-1
1.453863699E1	1.061815023E0	9.258428574E0	7.244270444E-1
1.454704001E1	9.236295223E-1	9.238688469E0	6.634100676E-1
1.455544304E1	8.452646136E-1	9.177073479E0	5.527420044E-1
1.456384606E1	8.099704385E-1	9.109476089E0	4.199403822E-1
1.457224908E1	7.932206988E-1	8.989834785E0	2.458625287E-1
1.458065210E1	7.597211599E-1	8.790632248E0	2.476571500E-1
1.458905512E1	5.359922647E-1	8.447860718E0	4.408775866E-1
1.459745814E1	1.639083475E-1	8.153543472E0	5.706881881E-1
1.460586116E1	-1.680957973E-1	8.801998138E0	7.495517135E-1
1.461426418E1	-3.278166950E-1	1.224945736E1	2.634497643E0
1.462266720E1	-7.459624410E-1	1.662652779E1	3.247060299E0
1.463107022E1	-1.053440213E0	1.687777519E1	1.409970760E0
1.463947324E1	-2.217548370E0	1.419721508E1	7.178468257E-2
1.464787626E1	-2.675773859E0	1.306959724E1	-1.112662554E-1
1.465627928E1	-1.977069736E0	1.345065403E1	-5.024927258E-1
1.466468231E1	-4.731806815E-1	1.372164154E1	-9.385846853E-1
1.467308533E1	1.069591761E0	1.349851036E1	-2.197807550E0
1.468148835E1	2.176272154E0	1.355833149E1	-2.556132793E0
1.468989137E1	2.491526604E0	1.369651699E1	-1.849053741E0
1.469829439E1	2.169093609E0	1.340818214E1	-1.474576950E0
1.470669741E1	2.042274237E0	1.243848991E1	-9.349954724E-1
1.471510043E1	2.826521635E0	1.130369377E1	-1.256231815E-1
1.472350345E1	4.481756687E0	1.038963604E1	5.491527915E-1
1.473190647E1	6.370890141E0	9.771689415E0	1.546361685E0
1.474030949E1	7.640282631E0	9.410971642E0	2.813959360E0
1.474871251E1	7.564908981E0	9.021539688E0	3.092125177E0
1.475711554E1	5.680561066E0	8.425726891E0	2.069791555E0
1.476551856E1	3.067598581E0	8.227720261E0	1.113858938E0
1.477392158E1	-4.845465720E-2	7.900502205E0	8.231309652E-1
1.478232460E1	-3.062813044E0	6.963712215E0	-1.034895778E-1
1.479072762E1	-4.938786030E0	6.037091732E0	-1.563111424E0
1.479913064E1	-4.968696117E0	5.785246849E0	-2.510669231E0
1.480753366E1	-3.215953588E0	5.750551224E0	-1.907079697E0
1.481593668E1	-1.438684583E0	5.565107346E0	-4.648058116E-1
1.482433970E1	-8.506484628E-1	5.580660820E0	4.552344978E-1
1.483274272E1	-5.216353536E-1	5.956333637E0	-4.043870270E-1
1.484114574E1	-2.512463629E-1	6.443871498E0	-7.621139884E-1
1.484954876E1	1.621137410E-1	6.384648800E0	-4.289134443E-1
1.485795179E1	5.401797295E-1	6.139982700E0	-1.088734269E-1
1.486635481E1	7.286145091E-1	6.147161484E0	-8.973085321E-3
1.487475783E1	8.536394835E-1	6.513263226E0	-1.501496136E-1
1.488316085E1	9.463613629E-1	7.000202656E0	-1.543370634E-1
1.489156387E1	1.087537885E0	7.405188084E0	-2.787638307E-1
1.489996689E1	1.432702541E0	7.879564762E0	-4.666004181E-1
1.490836991E1	1.954337835E0	8.454441071E0	-5.330012441E-1
1.491677293E1	2.554936409E0	9.083752632E0	-6.861419082E-1
1.492517595E1	2.995215654E0	9.964311600E0	-5.748756528E-1
1.493357897E1	3.092723370E0	1.069531918E1	-1.597209126E-1
1.494198199E1	3.186641455E0	1.155015469E1	2.482553422E-1
1.495038501E1	3.611965895E0	1.246002579E1	1.551147223E0
1.495878804E1	5.324030399E0	1.309173107E1	3.890131474E0
1.496719106E1	8.766105652E0	1.305703449E1	1.980658889E0
1.497559408E1	1.059003448E1	1.426959801E1	4.097708762E-1
1.498399710E1	1.037946606E1	1.250489140E1	5.940182209E-1
1.499240012E1	2.193081856E1	8.328219414E0	-1.975813484E1
1.500080314E1	4.788636398E1	9.877572060E0	-5.420281601E1
1.500920616E1	5.843751526E1	2.517548561E1	-5.912066460E0
1.501760918E1	2.651725960E1	1.837867165E1	3.547359467E1
1.502601220E1	-4.939982414E0	1.330409408E0	2.282573318E1
1.503441522E1	-1.826381683E1	-3.742374659E0	3.349353552E0
1.504281824E1	-1.646261978E1	-4.420739710E-1	-2.121835470E0
1.505122126E1	-4.844269276E0	9.321240425E0	-2.810968399E0
1.505962429E1	-4.073780477E-1	1.584587002E1	-5.960521221E0
1.506802731E1	-1.697109461E0	1.547916985E1	-6.337390900E0
1.507643033E1	-3.164507866E0	1.182114220E1	-2.574677229E0
1.508483335E1	-8.225327730E-1	8.877969742E0	2.045265198E0
1.509323637E1	3.091526747E0	6.872784615E0	2.929413080E0
1.510163939E1	6.311069489E0	6.642475605E0	1.196411327E-1
1.511004241E1	7.289135933E0	8.326424599E0	5.359922647E-1
1.511844543E1	5.300102234E0	1.051286602E1	3.403790236E0
1.512684845E1	1.791625977E0	1.145623684E1	3.633501291E0
1.513525147E1	-1.141974568E0	1.094656563E1	1.280160069E0
1.514365449E1	-2.099103689E0	1.013420200E1	-1.637887120E0
1.515205751E1	-1.664208174E0	1.000558758E1	-2.487937450E0
1.516046054E1	-9.900303483E-1	9.990633011E0	-1.055234790E0
1.516886356E1	-3.541377485E-1	9.499505997E0	1.089332461E0
1.517726658E1	6.059823632E-1	9.096913338E0	2.557927370E0
1.518566960E1	1.488933921E0	9.263215065E0	2.553740025E0
1.519407262E1	1.611566067E0	9.744770050E0	1.827518344E0
1.520247564E1	1.071386337E0	1.017188931E1	1.393221021E0
1.521087866E1	4.253242314E-1	1.004566765E1	1.009172916E0
1.521928168E1	2.793620527E-1	9.730413437E0	6.490531564E-1
1.522768470E1	7.639086246E-1	9.612566948E0	4.378865361E-1
1.523608772E1	1.395613790E0	9.595218658E0	6.430711150E-1
1.524449074E1	1.659422517E0	9.454640388E0	6.185446382E-1
1.525289376E1	1.644467354E0	9.435498238E0	8.027920127E-1
1.526129678E1	1.637288928E0	9.582057953E0	7.142575383E-1
1.526969981E1	1.780260086E0	9.783055305E0	4.133601189E-1
1.527810283E1	1.889133453E0	9.823733330E0	2.901297510E-1
1.528650585E1	1.935195327E0	9.612566948E0	3.332005441E-1
1.529490887E1	1.937588096E0	9.488738060E0	2.883351147E-1
1.530331189E1	1.883749604E0	9.549157143E0	2.183450609E-1
1.531171491E1	1.619342685E0	9.611968994E0	2.542374134E-1
1.532011793E1	1.272383451E0	9.636494637E0	5.437689424E-1
1.532852095E1	1.010369420E0	9.537791252E0	7.908278704E-1
1.533692397E1	8.775677085E-1	9.381659508E0	8.685946465E-1
1.534532699E1	8.470591903E-1	9.203393936E0	9.846464992E-1
1.535373001E1	7.800601721E-1	9.084351540E0	1.182054400E0
1.536213304E1	6.317051649E-1	9.084351540E0	1.247856975E0
1.537053606E1	4.947160780E-1	9.109476089E0	9.792626500E-1
1.537893908E1	3.403790295E-1	9.192028046E0	7.519445419E-1
1.538734210E1	1.645065546E-1	9.240483284E0	6.472585201E-1
1.539574512E1	4.546362907E-2	9.164510727E0	5.916253924E-1
1.540414814E1	-1.118644550E-1	9.033503532E0	7.004988194E-1
1.541255116E1	-4.582255483E-1	8.995817184E0	8.859425783E-1
1.542095418E1	-7.764709592E-1	9.707681656E0	1.184447169E0
1.542935720E1	-6.562315822E-1	1.197428226E1	1.911865234E0
1.543776022E1	-5.401797295E-1	1.392323685E1	1.797009826E0
1.544616324E1	6.340979785E-2	1.347936821E1	-5.024927482E-2
1.545456626E1	6.227321029E-1	1.260897923E1	-3.942175210E-1
1.546296929E1	4.241278172E-1	1.233918858E1	1.579262912E-1
1.547137231E1	-6.101697683E-2	1.216929817E1	3.948157281E-2
1.547977533E1	4.235295951E-1	1.240618706E1	-5.288137794E-1
1.548817835E1	9.661021233E-1	1.235653591E1	-5.724828243E-1
1.549658137E1	1.076770201E-1	1.190548897E1	-1.115055323E0
1.550498439E1	2.147558331E-1	1.228176022E1	-1.955534339E0
1.551338741E1	1.532004714E0	1.266281700E1	-1.064207911E0
1.552179043E1	2.922234535E0	1.295115280E1	-8.500502706E-1
1.553019345E1	3.500101328E0	1.282911873E1	-6.239284873E-1
1.553859647E1	3.457030535E0	1.207777214E1	-9.008977413E-1
1.554699949E1	3.301496983E0	1.104227829E1	-9.792626500E-1
1.555540251E1	3.350549936E0	1.018146038E1	-3.834498227E-1
1.556380554E1	3.710071564E0	9.641280174E0	3.720839322E-1
1.557220856E1	4.310071945E0	9.391230583E0	1.398604870E0
1.558061158E1	4.785645485E0	9.099904060E0	2.639283419E0
1.558901460E1	4.604987144E0	8.755337715E0	3.185445070E0
1.559741762E1	3.340380430E0	8.754739761E0	3.589832067E0
1.560582064E1	3.020938635E-1	8.134998322E0	3.813561201E0
1.561422366E1	-2.911466837E0	6.843472958E0	1.793420553E0
1.562262668E1	-4.646263599E0	6.061617851E0	-9.876375198E-1
1.563102970E1	-4.685744762E0	6.107081413E0	-1.722832322E0
1.563943272E1	-3.942175388E0	6.422336102E0	-1.749153376E0
1.564783574E1	-3.393022537E0	6.739385128E0	-5.676971674E-1
1.565623876E1	-2.653042078E0	6.544968128E0	4.145565331E-1
1.566464178E1	-1.415952802E0	6.665207386E0	-8.434699476E-2
1.567304481E1	-3.451646566E-1	7.244868755E0	-4.965107143E-2
1.568144783E1	1.399801224E-1	7.938787460E0	2.416750938E-1
1.568985085E1	2.727817893E-1	8.408378601E0	3.248256743E-1
1.569825387E1	4.354937077E-1	8.599804878E0	-7.357929647E-2
1.570665689E1	8.566305041E-1	8.776275635E0	-5.473581553E-1
1.571505991E1	1.506281853E0	9.072985649E0	-8.614161611E-1
1.572346293E1	2.062613010E0	9.367900848E0	-9.152546525E-1
1.573186595E1	2.516651154E0	9.676574707E0	-7.914260626E-1
1.574026897E1	2.869592667E0	1.008156013E1	-7.124629617E-1
1.574867199E1	3.047259569E0	1.059661484E1	-8.853443861E-1
1.575707501E1	2.973680258E0	1.113320541E1	-9.780662656E-1
1.576547804E1	2.780459881E0	1.162792206E1	-8.793623447E-1
1.577388106E1	2.742174864E0	1.182413292E1	-7.609176040E-1
1.578228408E1	3.214757204E0	1.230449200E1	-7.884350419E-1
1.579068710E1	3.997210264E0	1.290269756E1	-2.333002090E-1
1.579909012E1	5.274977684E0	1.219143105E1	8.985049129E-1
1.580749314E1	1.005284595E1	1.020778179E1	-2.929413080E0
1.581589616E1	2.364108849E1	8.571688652E0	-1.738505363E1
1.582429918E1	4.195754623E1	9.874580383E0	-2.191885376E1
1.583270220E1	4.942255402E1	1.326162148E1	-1.070010471E1
1.584110522E1	2.842015266E1	1.386042500E1	1.040459061E1
1.584950824E1	5.925227165E0	8.440083504E0	2.103291130E1
1.585791126E1	-1.294277763E1	1.602592945E0	1.119362450E1
1.586631429E1	-1.655115509E1	2.596212626E0	-2.783450842E0
1.587471731E1	-9.602995872E0	9.237491608E0	-7.272984505E0
1.588312033E1	-4.176073551E0	1.501077461E1	-8.649456024E0
1.589152335E1	-3.827918053E0	1.517169189E1	-7.728816986E0
1.589992637E1	-3.440878868E0	1.177448177E1	-2.340778828E0
1.590832939E1	-2.362912297E-1	9.130413055E0	2.011765718E0
1.591673241E1	3.436093330E0	7.572685242E0	2.609373093E0
1.592513543E1	6.193223000E0	7.412366390E0	1.805982947E0
1.593353845E1	6.558726788E0	8.679366112E0	2.327618122E0
1.594194147E1	4.805386066E0	1.010249710E1	3.323032379E0
1.595034449E1	2.136790514E0	1.072223854E1	3.141776085E0
1.595874751E1	2.069791555E-1	1.031545830E1	1.752144337E0
1.596715054E1	-6.616154313E-1	9.694520950E0	4.055834413E-1
1.597555356E1	-1.035493970E0	9.600004196E0	-3.672982752E-1
1.598395658E1	-1.154536963E0	9.863214493E0	-2.243271172E-1
1.599235960E1	-1.045663476E0	9.956535339E0	4.522434771E-1
1.600076262E1	-8.033902049E-1	9.808777809E0	1.178465128E0
1.600916564E1	-3.900300860E-1	9.650852203E0	1.490728498E0
1.601756866E1	1.680957973E-1	9.604789734E0	1.540977836E0
1.602597168E1	7.770691514E-1	9.570094109E0	1.473380566E0
1.603437470E1	1.208973646E0	9.510871887E0	1.506880045E0
1.604277772E1	1.389033556E0	9.552147865E0	1.517049551E0
1.605118074E1	1.397408366E0	9.699306488E0	1.304686546E0
1.605958376E1	1.446461320E0	9.741779327E0	9.385846853E-1
1.606798679E1	1.485344648E0	9.640084267E0	6.681957245E-1
1.607638981E1	1.424327731E0	9.564710617E0	6.658028960E-1
1.608479283E1	1.359721422E0	9.568299294E0	5.216353536E-1
1.609319585E1	1.640279889E0	9.616155624E0	2.147558331E-1
1.610159887E1	2.049452543E0	9.599406242E0	1.357926875E-1
1.611000189E1	2.206780672E0	9.567701340E0	3.122633696E-1
1.611840491E1	2.012962103E0	9.585049629E0	6.831508875E-1
1.612680793E1	1.738983870E0	9.645467758E0	7.543373108E-1
1.613521095E1	1.511665702E0	9.655637741E0	6.005984545E-1
1.614361397E1	1.182652593E0	9.568299294E0	5.036891699E-1
1.615201699E1	6.843472719E-1	9.497113228E0	7.238288522E-1
1.616042001E1	3.517449200E-1	9.390632629E0	7.028916478E-1
1.616882304E1	4.151547253E-1	9.355937004E0	6.041877270E-1
1.617722606E1	6.430711150E-1	9.394820213E0	6.945167780E-1
1.618562908E1	7.004988194E-1	9.424132347E0	8.811569214E-1
1.619403210E1	5.814558864E-1	9.427123070E0	9.804590940E-1
1.620243512E1	4.582255483E-1	9.367302895E0	9.367900491E-1
1.621083814E1	1.854437590E-1	9.235696793E0	8.763712645E-1
1.621924116E1	-1.824527234E-1	9.096913338E0	8.925228715E-1
1.622764418E1	-3.487538993E-1	9.877572060E0	1.238883972E0
1.623604720E1	-1.064806059E-1	1.232901859E1	2.483151674E0
1.624445022E1	3.242274821E-1	1.316052437E1	1.350150228E0
1.625285324E1	1.259821177E0	1.179183006E1	-1.029511929E0
1.626125626E1	1.456032634E0	1.113440228E1	-2.440679073E-1
1.626965928E1	7.974081635E-1	1.124148083E1	7.058826685E-1
1.627806231E1	6.317051649E-1	1.112542915E1	7.357929647E-2
1.628646533E1	1.220937729E0	1.086939716E1	-1.301695466E0
1.629486835E1	1.618744493E0	1.087777138E1	-1.663609982E0
1.630327137E1	1.791027784E0	1.144187927E1	4.845465720E-1
1.631167439E1	1.009771109E0	1.145145130E1	5.371887088E-1
1.632007741E1	1.063609719E0	1.230389404E1	-1.877169371E0
1.632848043E1	1.580459356E0	1.241635704E1	-7.190431952E-1
1.633688345E1	2.621337175E0	1.210170078E1	-9.320043921E-1
1.634528647E1	3.585046530E0	1.161236858E1	-1.956132501E-1
1.635368949E1	3.972085476E0	1.079222870E1	3.433700502E-1
1.636209251E1	4.039084435E0	1.020658493E1	3.768695593E-1
1.637049554E1	3.863810301E0	1.003908730E1	9.116654396E-1
1.637889856E1	3.177070379E0	9.770493507E0	1.738983870E0
1.638730158E1	2.271386862E0	9.388239861E0	1.957927108E0
1.639570460E1	1.106082320E0	9.380462646E0	1.625923038E0
1.640410762E1	-8.231309652E-1	9.162715912E0	1.374078393E0
1.641251064E1	-2.904288530E0	8.377870560E0	6.538388133E-1
1.642091366E1	-3.793222189E0	7.515855789E0	-8.392825127E-1
1.642931668E1	-3.324228764E0	7.539783955E0	-1.291526079E0
1.643771970E1	-2.941377163E0	7.553543091E0	9.032905847E-2
1.644612272E1	-2.718246460E0	7.188039303E0	4.456632137E-1
1.645452574E1	-2.038086653E0	7.311269760E0	-2.392822644E-3
1.646292876E1	-1.357328653E0	7.774878979E0	4.666004330E-2
1.647133178E1	-1.119840980E0	7.901100159E0	5.659025311E-1
1.647973481E1	-1.131805062E0	7.843672752E0	4.911268353E-1
1.648813783E1	-1.109073281E0	7.975875854E0	-1.088734269E-1
1.649654085E1	-7.920243144E-1	8.422736168E0	-6.358926296E-1
1.650494387E1	-2.811566591E-1	8.989236832E0	-5.742774606E-1
1.651334689E1	2.727817893E-1	9.436694145E0	-1.609173268E-1
1.652174991E1	1.027717352E0	9.725627899E0	2.153540403E-2
1.653015293E1	2.002792597E0	1.010249710E1	-1.232303679E-1
1.653855595E1	2.657827854E0	1.055832958E1	1.872383654E-1
1.654695897E1	2.861217737E0	1.091665554E1	6.400800347E-1
1.655536199E1	3.116651535E0	1.122473145E1	1.064806104E0
1.656376501E1	3.751945972E0	1.162852001E1	1.293918848E0
1.657216804E1	4.094717979E0	1.221535969E1	1.195214868E0
1.658057106E1	3.726222992E0	1.211246777E1	1.476371527E0
1.658897408E1	3.630510092E0	9.221340179E0	2.446661144E-1
1.659737710E1	1.271007538E1	7.512266636E0	-1.423789310E1
1.660578012E1	4.019104385E1	1.477029610E1	-2.916372299E1
1.661418314E1	5.217789078E1	2.218325996E1	-3.427718401E0
1.662258616E1	2.698326302E1	9.363115311E0	8.934201241E0
1.663098918E1	9.591629982E0	-7.603194118E-1	-3.212364316E-1
1.663939220E1	-2.647658348E0	-2.679363251E0	1.490130305E0
1.664779522E1	-1.000259686E1	-1.127617717E0	3.744767427E0
1.665619824E1	-6.687939167E0	4.811367989E0	-3.083750248E0
1.666460126E1	-1.765304923E0	1.170329571E1	-3.565305710E0
1.667300428E1	-1.441077471E0	1.591167259E1	7.489534616E-1
1.668140731E1	-2.756531715E0	1.635374641E1	2.344367981E0
1.668981033E1	-4.660021961E-1	1.494856167E1	1.372882009E0
1.669821335E1	3.475574970E0	1.244746304E1	-2.775674164E-1
1.670661637E1	4.936991215E0	9.357730865E0	-1.017547846E0
1.671501939E1	3.556930780E0	7.280162811E0	3.625126183E-1
1.672342241E1	2.294716835E0	7.317849636E0	1.823929071E0
1.673182543E1	1.814357758E0	8.494520187E0	2.064407825E0
1.674022845E1	1.682752490E0	9.362516403E0	1.553540111E0
1.674863147E1	1.355534077E0	9.530612946E0	9.098708034E-1
1.675703449E1	1.086939692E0	9.415757179E0	4.606183469E-1
1.676543751E1	1.415354609E0	9.470791817E0	2.033899277E-1
1.677384054E1	1.953739643E0	9.686744690E0	3.128615618E-1
1.678224356E1	2.064407825E0	9.862616539E0	7.920243144E-1
1.679064658E1	1.826920033E0	1.003489971E1	1.108475089E0
1.679904960E1	1.646261930E0	1.021615601E1	1.094716311E0
1.680745262E1	1.446461320E0	1.027896786E1	7.908278704E-1
1.681585564E1	1.102493048E0	9.978668213E0	7.088736892E-1
1.682425866E1	1.028913736E0	9.604789734E0	6.610172391E-1
1.683266168E1	1.409970760E0	9.464211464E0	8.338986635E-1
1.684106470E1	1.930409670E0	9.540184021E0	9.678967595E-1
1.684946772E1	2.355135679E0	9.693324089E0	9.661021233E-1
1.685787074E1	2.447259426E0	9.739984512E0	9.487541914E-1
1.686627376E1	2.281556368E0	9.538389206E0	6.634100676E-1
1.687467679E1	2.298904419E0	9.317052841E0	3.912265003E-1
1.688307981E1	2.418545485E0	9.134002686E0	1.567298770E-1
1.689148283E1	2.578266382E0	9.092725754E0	7.178467698E-3
1.689988585E1	2.541775942E0	9.145368576E0	4.965107143E-2
1.690828887E1	2.271386862E0	9.215357780E0	2.602194548E-1
1.691669189E1	1.914258122E0	9.220144272E0	4.624129832E-1
1.692509491E1	1.665404558E0	9.157332420E0	4.277170599E-1
1.693349793E1	1.412363529E0	9.043074608E0	4.504488707E-1
1.694190095E1	1.025324464E0	8.837890625E0	3.852444589E-1
1.695030397E1	7.130611539E-1	8.602795601E0	3.170489967E-1
1.695870699E1	7.465606928E-1	8.580661774E0	5.084748268E-1
1.696711001E1	9.062815905E-1	8.945567131E0	6.376872063E-1
1.697551304E1	1.158724308E0	1.044287586E1	1.570888042E0
1.698391606E1	1.248455167E0	1.302174091E1	3.054438114E0
1.699231908E1	1.016351461E0	1.269452190E1	1.225723386E0
1.700072210E1	9.493523836E-1	1.038365364E1	-1.448854089E0
1.700912512E1	9.314061999E-1	9.431908607E0	-1.980060786E-1
1.701752814E1	4.863412082E-1	1.013479996E1	1.158724308E0
1.702593116E1	4.642075896E-1	1.070070267E1	5.485545993E-1
1.703433418E1	9.272187948E-1	1.066839981E1	-6.299105883E-1
1.704273720E1	1.509272933E0	1.077308559E1	2.297109663E-1
1.705114022E1	1.549352646E0	1.030229759E1	1.537388563E0
1.705954324E1	1.575075507E0	1.048415279E1	-3.451646566E-1
1.706794626E1	1.730608940E0	1.143350506E1	-5.413761139E-1
1.707634929E1	1.883151412E0	1.221954727E1	-4.881358147E-1
1.708475231E1	2.164906263E0	1.251147175E1	-6.215356588E-1
1.709315533E1	2.225325108E0	1.219920826E1	-3.361915946E-1
1.710155835E1	1.969292998E0	1.158963680E1	-2.853440940E-1
1.710996137E1	1.878963947E0	1.121456146E1	-3.451646566E-1
1.711836439E1	2.166700840E0	1.106919765E1	-8.075776696E-2
1.712676741E1	2.740978241E0	1.091545868E1	4.127619043E-2
1.713517043E1	3.188436270E0	1.066959572E1	1.866401732E-1
1.714357345E1	3.117249727E0	1.045125103E1	8.506484628E-1
1.715197647E1	2.351546526E0	1.019222832E1	1.498505235E0
1.716037949E1	1.341177106E0	1.009053326E1	1.322632670E0
1.716878251E1	-3.272185028E-1	1.025982571E1	1.402194023E0
1.717718554E1	-2.867199659E0	9.638887405E0	1.596012712E0
1.718558856E1	-4.791627407E0	8.492127419E0	-2.554338276E-1
1.719399158E1	-5.543571949E0	8.029116631E0	-8.362914920E-1
1.720239460E1	-5.644070625E0	7.204190731E0	1.668993831E-1
1.721079762E1	-4.637290478E0	7.097710133E0	-1.004985496E-1
1.721920064E1	-3.070589542E0	8.149355888E0	1.375873014E-2
1.722760366E1	-2.478366137E0	8.823533058E0	9.427721500E-1
1.723600668E1	-2.114656925E0	8.887541771E0	1.007976532E0
1.724440970E1	-1.762912035E0	9.001798630E0	4.791627228E-1
1.725281272E1	-1.355534077E0	9.344570160E0	-9.690931439E-2
1.726121574E1	-7.184450030E-1	9.692128181E0	7.597211748E-2
1.726961876E1	1.339980662E-1	9.956535339E0	2.889333367E-1
1.727802178E1	8.715856671E-1	1.027059269E1	3.110669553E-1
1.728642481E1	1.152742267E0	1.058465099E1	2.554338276E-1
1.729482783E1	1.262812138E0	1.079282665E1	2.231307179E-1
1.730323085E1	1.566102386E0	1.102911758E1	1.244267747E-1
1.731163387E1	2.039283037E0	1.144307613E1	4.612165689E-1
1.732003689E1	2.434697151E0	1.167876911E1	9.810572863E-1
1.732843991E1	3.216551781E0	1.152323532E1	1.536192179E0
1.733684293E1	4.728815556E0	1.046979523E1	2.225923300E0
1.734524595E1	6.868597507E0	9.156734467E0	-1.515254974E0
1.735364897E1	9.567701340E0	1.070668507E1	-4.385445595E0
1.736205199E1	1.301994610E1	1.095254707E1	-4.117449760E0
1.737045501E1	2.231965065E1	1.029332447E1	-1.300439262E1
1.737885804E1	3.273800278E1	1.068335533E1	-1.283091354E1
1.738726106E1	3.016152954E1	7.226922512E0	-5.203791142E0
1.739566408E1	2.252902412E1	2.183450699E0	-2.469393015E0
1.740406710E1	1.684427452E1	4.906482697E0	-2.330011129E0
1.741247012E1	6.707680225E0	7.234699249E0	7.709674358E0
1.742087314E1	-5.408975601E0	6.300302029E0	6.561717987E0
1.742927616E1	-1.236491108E1	7.941778183E0	4.031906128E-1
1.743767918E1	-8.503493309E0	1.357268810E1	-7.698906660E-1
1.744608220E1	-5.190630436E0	1.615155220E1	-5.311468124E0
1.745448522E1	-2.854039192E0	1.482353592E1	-8.036294937E0
1.746288824E1	1.495514158E-2	1.143589783E1	-2.550748825E0
1.747129126E1	2.207977057E0	8.275577545E0	1.607378602E0
1.747969428E1	3.584448338E0	6.685546398E0	2.204387903E0
1.748809731E1	4.462016106E0	7.385447025E0	3.253042459E0
