"Time (s)"	"Gyroscope x (rad/s)"	"Gyroscope y (rad/s)"	"Gyroscope z (rad/s)"
5.182907600E-2	-2.932066843E-2	1.130067464E-2	-4.581354442E-4
6.023209700E-2	-2.947338112E-2	2.702999115E-2	1.679830020E-3
6.863511800E-2	-2.779355086E-2	3.176405653E-2	7.635590737E-4
7.703813900E-2	-2.733541466E-2	2.947338112E-2	3.054236295E-4
8.544116000E-2	-2.733541466E-2	2.855710872E-2	1.985253533E-3
9.384418100E-2	-3.268032894E-2	2.519745007E-2	1.527118147E-3
1.022472010E-1	-3.603998944E-2	3.115320951E-2	3.054236295E-3
1.106502220E-1	-2.932066843E-2	4.398100078E-2	3.512371797E-3
1.190532430E-1	-2.199050039E-2	4.810422286E-2	7.941014133E-3
1.274562640E-1	-1.893626526E-2	4.199574888E-2	9.468132630E-3
1.358592850E-1	-2.046338283E-2	3.313846514E-2	9.009997360E-3
1.442623060E-1	-2.229592577E-2	2.489202656E-2	1.053711493E-2
1.526653260E-1	-2.031067200E-2	2.244863659E-2	1.298050396E-2
1.610683470E-1	-2.000524849E-2	2.367033064E-2	1.359135192E-2
1.694713680E-1	-1.863084175E-2	2.764083818E-2	1.847812906E-2
1.778743890E-1	-1.542389300E-2	2.855710872E-2	2.489202656E-2
1.862774100E-1	-1.557660475E-2	2.947338112E-2	2.932066843E-2
1.946804310E-1	-2.244863659E-2	4.337015375E-2	3.252761811E-2
2.030834510E-1	-2.153236605E-2	6.765133142E-2	3.542914242E-2
2.114864720E-1	-1.756185852E-2	8.460234851E-2	4.184303805E-2
2.198894930E-1	-1.527118124E-2	8.658760041E-2	4.810422286E-2
2.282925140E-1	-1.389677543E-2	7.925742865E-2	5.665608495E-2
2.366955350E-1	-1.374406368E-2	8.231166750E-2	6.810946763E-2
2.450985560E-1	-1.099525020E-2	1.117850468E-1	7.284353673E-2
2.535015760E-1	-4.734066315E-3	1.517955512E-1	7.681404054E-2
2.619045970E-1	4.581354442E-4	1.924168915E-1	8.704573661E-2
2.703076180E-1	6.566607859E-3	2.124221325E-1	9.773556143E-2
2.787106390E-1	9.468132630E-3	2.209739983E-1	9.956810623E-2
2.871136600E-1	1.099525020E-2	2.266243398E-1	1.143811494E-1
2.955166810E-1	1.481304597E-2	2.481566966E-1	1.349972486E-1
3.039197010E-1	1.099525020E-2	2.956500649E-1	1.322484314E-1
3.123227220E-1	1.572931744E-2	3.423798978E-1	1.337755471E-1
3.207257430E-1	1.603474095E-2	3.683409095E-1	1.441599578E-1
3.291287640E-1	1.038440317E-2	3.689517379E-1	1.521009654E-1
3.375317850E-1	9.162708884E-4	3.541387022E-1	1.481304616E-1
3.459348060E-1	-2.901524538E-3	3.426853120E-1	1.462979168E-1
3.543378260E-1	4.275931045E-3	3.448232710E-1	1.511846930E-1
3.627408470E-1	7.635590620E-3	3.336753249E-1	1.606528312E-1
3.711438680E-1	-1.985253533E-3	3.138227761E-1	1.653869003E-1
3.795468890E-1	-7.941014133E-3	3.005368412E-1	1.583621502E-1
3.879499100E-1	-5.497625098E-3	3.009949923E-1	1.521009654E-1
3.963529310E-1	-4.123218823E-3	2.999260128E-1	1.502684206E-1
4.047559510E-1	-6.719320081E-3	2.867927849E-1	1.545443535E-1
4.131589720E-1	-1.420219894E-2	2.547233105E-1	1.601946950E-1
4.215619930E-1	-2.351761982E-2	2.218902707E-1	1.589729935E-1
4.299650140E-1	-2.718270384E-2	1.956238300E-1	1.562241912E-1
4.383680350E-1	-2.535016090E-2	1.875301152E-1	1.627907902E-1
4.467710560E-1	-2.535016090E-2	1.919587553E-1	1.757712960E-1
4.551740760E-1	-2.626643144E-2	1.904316396E-1	1.831014603E-1
4.635770970E-1	-1.801999472E-2	1.983726472E-1	1.751604527E-1
4.719801180E-1	-7.788302377E-3	2.063136548E-1	1.684411317E-1
4.803831390E-1	-4.734066315E-3	1.924168915E-1	1.832541823E-1
4.887861600E-1	-1.374406368E-2	1.592784226E-1	2.002051920E-1
4.971891810E-1	-2.886253223E-2	1.259872466E-1	1.918060333E-1
5.055922010E-1	-3.833066672E-2	1.159082651E-1	1.780619770E-1
5.139952220E-1	-4.459185153E-2	1.143811494E-1	1.879882365E-1
5.223982430E-1	-5.833591148E-2	1.229330078E-1	1.916533262E-1
5.308012640E-1	-6.719319522E-2	1.307213157E-1	1.809635013E-1
5.392042850E-1	-7.803573459E-2	1.346918195E-1	1.748550236E-1
5.476073060E-1	-8.383878320E-2	1.353026628E-1	1.743968874E-1
5.560103260E-1	-7.941014320E-2	1.301104724E-1	1.795890927E-1
5.644133470E-1	-7.314895838E-2	1.174353883E-1	1.870719790E-1
5.728163680E-1	-6.856760383E-2	1.068982705E-1	1.852394342E-1
5.812193890E-1	-6.719319522E-2	8.231166750E-2	1.936385781E-1
5.896224100E-1	-6.413896382E-2	4.016320780E-2	2.081461996E-1
5.980254310E-1	-6.520794332E-2	-1.527118147E-4	2.066190839E-1
6.064284510E-1	-7.009471953E-2	-1.466033421E-2	1.973036677E-1
6.148314720E-1	-6.444438547E-2	-5.955760833E-3	1.947075576E-1
6.232344930E-1	-5.787777901E-2	1.023169141E-2	1.968455315E-1
6.316375140E-1	-5.360184610E-2	1.756185852E-2	1.904316396E-1
6.400405350E-1	-3.787253052E-2	1.145338640E-2	1.711899489E-1
6.484435560E-1	-2.611372061E-2	-9.009997360E-3	1.611109674E-1
6.568465760E-1	-3.161134571E-2	-3.206948191E-2	1.554606259E-1
6.652495970E-1	-3.497100621E-2	-5.650337040E-2	1.388150454E-1
6.736526180E-1	-3.771981969E-2	-6.536065787E-2	1.191152185E-1
6.820556390E-1	-3.695625812E-2	-6.062658876E-2	1.035386100E-1
6.904586600E-1	-2.428117767E-2	-4.459185153E-2	8.353336155E-2
6.988616810E-1	-1.634016447E-2	-3.909422457E-2	6.413896382E-2
7.072647010E-1	-1.114796288E-2	-6.856760383E-2	5.176930502E-2
7.156677220E-1	-5.803049076E-3	-8.078455180E-2	3.176405653E-2
7.240707430E-1	-7.635590620E-3	-7.024743408E-2	1.878355257E-2
7.324737640E-1	-1.511846948E-2	-5.299099907E-2	1.160609815E-2
7.408767850E-1	-1.878355257E-2	-2.473931387E-2	1.985253533E-3
7.492798060E-1	-2.336490713E-2	1.664558798E-2	6.108472589E-4
7.576828260E-1	-2.443389036E-2	7.803573459E-2	8.704573847E-3
7.660858470E-1	-2.550287358E-2	1.307213157E-1	2.321219631E-2
7.744888680E-1	-2.214321308E-2	1.502684206E-1	3.848337755E-2
7.828918890E-1	-1.618745178E-2	1.829487532E-1	4.703523964E-2
7.912949100E-1	-8.857285604E-3	2.003578991E-1	6.123743951E-2
7.996979310E-1	5.344913341E-3	1.812689304E-1	7.253811508E-2
8.081009510E-1	1.740914769E-2	1.437018216E-1	7.986827940E-2
8.165039720E-1	1.801999472E-2	9.743013978E-2	9.330692142E-2
8.249069930E-1	1.618745178E-2	5.268557742E-2	1.049130186E-1
8.333100140E-1	2.275406010E-2	2.870982140E-2	1.169772521E-1
8.417130350E-1	3.206948191E-2	3.115320951E-2	1.360662282E-1
8.501160560E-1	4.352286831E-2	4.077405483E-2	1.469087601E-1
8.585190760E-1	5.604523420E-2	4.535540938E-2	1.449235082E-1
8.669220970E-1	6.688777357E-2	4.382828996E-2	1.427855492E-1
8.753251180E-1	6.826218218E-2	2.550287358E-2	1.501157135E-1
8.837281390E-1	6.887302548E-2	9.926267900E-3	1.481304616E-1
8.921311600E-1	5.848862603E-2	-5.650337320E-3	1.537808031E-1
9.005341810E-1	4.932591692E-2	-3.817795217E-2	1.559187621E-1
9.089372010E-1	4.352286831E-2	-3.833066672E-2	1.389677525E-1
9.173402220E-1	4.352286831E-2	-2.092151903E-2	1.253764033E-1
9.257432430E-1	5.207473040E-2	3.817795310E-3	1.094943732E-1
9.341462640E-1	5.741964281E-2	2.214321308E-2	9.284878522E-2
9.425492850E-1	5.589252338E-2	8.857285604E-3	8.032641560E-2
9.509523060E-1	5.482354015E-2	-1.649287529E-2	6.459710002E-2
9.593553260E-1	5.726693198E-2	-4.581354558E-2	5.314370990E-2
9.677583470E-1	5.726693198E-2	-6.765133142E-2	4.382828996E-2
9.761613680E-1	6.306997687E-2	-7.711946964E-2	3.054236248E-2
9.845643890E-1	6.765133142E-2	-7.207997888E-2	2.275406010E-2
9.929674100E-1	6.978929788E-2	-6.474980712E-2	2.275406010E-2
1.001370431E0	7.330167294E-2	-7.085828483E-2	2.580829710E-2
1.009773451E0	8.139539510E-2	-8.139539510E-2	2.733541466E-2
1.018176472E0	9.483403713E-2	-8.444963396E-2	3.176405653E-2
1.026579493E0	1.053711548E-1	-7.788302749E-2	4.352286831E-2
1.034982514E0	1.137702987E-1	-7.834116369E-2	5.436540768E-2
1.043385535E0	1.191152185E-1	-8.490777016E-2	6.200099736E-2
1.051788556E0	1.235438585E-1	-1.006370857E-1	6.841489673E-2
1.060191576E0	1.265980899E-1	-1.102579311E-1	6.795676053E-2
1.068594597E0	1.333174109E-1	-1.101052165E-1	6.337540597E-2
1.076997618E0	1.412584335E-1	-1.105633527E-1	5.253286287E-2
1.085400639E0	1.440072358E-1	-1.360662282E-1	4.306473210E-2
1.093803660E0	1.467560530E-1	-1.780619770E-1	3.649812192E-2
1.102206681E0	1.534753740E-1	-2.023431510E-1	3.771981969E-2
1.110609701E0	1.565296054E-1	-2.072299272E-1	5.161659420E-2
1.119012722E0	1.753131598E-1	-1.954711229E-1	7.284353673E-2
1.127415743E0	2.058555335E-1	-1.824906170E-1	1.023169160E-1
1.135818764E0	2.368560284E-1	-1.824906170E-1	1.452289373E-1
1.144221785E0	2.615953386E-1	-1.864611208E-1	2.075353563E-1
1.152624806E0	2.881672084E-1	-1.534753740E-1	2.916795611E-1
1.161027826E0	3.086305857E-1	-7.696675509E-2	3.894151151E-1
1.169430847E0	3.242071867E-1	1.969982497E-2	5.030327439E-1
1.177833868E0	3.509317636E-1	1.333174109E-1	6.365028620E-1
1.186236889E0	3.817795515E-1	2.626643181E-1	7.777612805E-1
1.194639910E0	3.968980014E-1	3.749074936E-1	9.220739603E-1
1.203042931E0	3.906368315E-1	4.451549351E-1	1.065012217E0
1.211445951E0	3.574983478E-1	4.503471553E-1	1.196191669E0
1.219848972E0	3.122956753E-1	4.211791754E-1	1.303089857E0
1.228251993E0	2.464768738E-1	3.744493723E-1	1.378834963E0
1.236655014E0	1.812689304E-1	3.257342875E-1	1.391204596E0
1.245058035E0	5.726693198E-2	2.327328026E-1	1.335312128E0
1.253461056E0	-1.085781008E-1	-5.971032009E-2	1.198024154E0
1.261864076E0	-1.064401343E-1	-5.306735635E-1	1.034469843E0
1.270267097E0	-8.994726092E-2	-8.825215697E-1	9.312366247E-1
1.278670118E0	-1.869192570E-1	-1.041647315E0	7.751652002E-1
1.287073139E0	-2.632751763E-1	-1.053864241E0	5.822901726E-1
1.295476160E0	-2.874036431E-1	-8.718317747E-1	3.602471650E-1
1.303879181E0	-3.057290614E-1	-6.474980712E-1	1.169772521E-1
1.312282201E0	-3.110739589E-1	-4.547757804E-1	-1.527118087E-1
1.320685222E0	-3.144336343E-1	-2.628170252E-1	-3.796415627E-1
1.329088243E0	-4.019374847E-1	-1.087308154E-1	-6.342121959E-1
1.337491264E0	-4.181249440E-1	1.068982761E-3	-8.890882134E-1
1.345894285E0	-3.901786804E-1	4.871506989E-2	-1.044548869E0
1.354297306E0	-4.034646153E-1	5.696150661E-2	-1.167939901E0
1.362700326E0	-4.456130862E-1	2.993151546E-2	-1.305838704E0
1.371103347E0	-4.561502039E-1	-2.000524849E-2	-1.443737507E0
1.379506368E0	-4.685198367E-1	-1.305686086E-1	-1.585912228E0
1.387909389E0	-4.816530645E-1	-3.358132839E-1	-1.723658204E0
1.396312410E0	-4.555393457E-1	-6.242858768E-1	-1.803373814E0
1.404715431E0	-5.045598149E-1	-9.345963001E-1	-1.674637794E0
1.413118451E0	-4.810422063E-1	-1.396549582E0	-9.506310225E-1
1.421521472E0	-3.552076817E-1	-2.472404242E0	1.185043678E-1
1.429924493E0	-1.988307834E-1	-2.278918505E0	4.115583301E-1
1.438327514E0	2.113531530E-1	-2.133078575E0	1.373337388E0
1.446730535E0	-2.319692522E-1	-1.788560748E0	1.528950691E0
1.455133556E0	-3.243598938E-1	2.951919436E-1	-4.118637741E-1
1.463536576E0	9.620844573E-2	2.169271231E0	-1.532310367E0
1.471939597E0	1.699682474E-1	2.695668936E0	-8.260182142E-1
1.480342618E0	1.707318127E-1	2.593046665E0	3.086305857E-1
1.488745639E0	1.621799469E-1	1.729003191E0	5.645755529E-1
1.497148660E0	-9.773556143E-3	1.313321572E-2	3.486410677E-1
1.505551681E0	-9.254335612E-2	-1.339282632E0	1.740914732E-1
1.513954701E0	-8.246438205E-2	-1.493216157E0	1.041494608E-1
1.522357722E0	-7.192726433E-2	-9.571976662E-1	1.423274130E-1
1.530760743E0	-3.985778242E-2	-2.744231224E-1	1.899735034E-1
1.539163764E0	1.252236869E-2	2.098260373E-1	1.256818175E-1
1.547566785E0	4.504998401E-2	3.964398801E-1	1.878355257E-2
1.555969806E0	6.368082762E-2	4.227063060E-1	-3.298575059E-2
1.564372826E0	5.512896553E-2	3.419217467E-1	3.206948051E-3
1.572775847E0	2.825168520E-2	1.473668963E-1	3.542914242E-2
1.581178868E0	7.941014133E-3	-9.559759498E-2	2.046338283E-2
1.589581889E0	-1.068982668E-2	-3.188622594E-1	-4.123218823E-3
1.597984910E0	-1.114796288E-2	-4.292729199E-1	-2.137965336E-2
1.606387931E0	3.665083554E-3	-4.272876680E-1	-3.100049868E-2
1.614790951E0	1.771457121E-2	-3.640649617E-1	-2.550287358E-2
1.623193972E0	2.458660305E-2	-2.916795611E-1	-1.420219894E-2
1.631596993E0	3.665083647E-2	-2.246390730E-1	3.206948051E-3
1.640000014E0	4.306473210E-2	-1.750077456E-1	3.344388679E-2
1.648403035E0	4.886778072E-2	-1.725643575E-1	7.085828483E-2
1.656806056E0	4.795150831E-2	-2.050919682E-1	1.044548824E-1
1.665209076E0	5.070032179E-2	-2.429644912E-1	1.380514801E-1
1.673612097E0	5.635065958E-2	-2.541124523E-1	1.710372269E-1
1.682015118E0	7.009471953E-2	-2.345653474E-1	1.969982386E-1
1.690418139E0	8.414421231E-2	-2.031067163E-1	2.098260373E-1
1.698821160E0	1.041494608E-1	-1.834068894E-1	2.055501044E-1
1.707224181E0	1.252236813E-1	-1.672194302E-1	1.962346882E-1
1.715627201E0	1.440072358E-1	-1.627907902E-1	1.947075576E-1
1.724030222E0	1.540862173E-1	-1.814216375E-1	2.031067163E-1
1.732433243E0	1.601946950E-1	-2.134911120E-1	2.043284029E-1
1.740836264E0	1.638597846E-1	-2.481566966E-1	1.899735034E-1
1.749239285E0	1.421747059E-1	-2.944283783E-1	2.017323077E-1
1.757642306E0	1.417165697E-1	-2.864873707E-1	2.309002578E-1
1.766045326E0	1.528645307E-1	-2.454078794E-1	2.499892414E-1
1.774448347E0	1.675248593E-1	-2.324273884E-1	2.756448388E-1
1.782851368E0	1.866138428E-1	-2.608317733E-1	3.048127890E-1
1.791254389E0	1.925695986E-1	-2.999260128E-1	3.573456407E-1
1.799657410E0	2.086043358E-1	-2.730487287E-1	4.457657933E-1
1.808060431E0	2.229592502E-1	-1.902789176E-1	5.555655956E-1
1.816463451E0	2.197522968E-1	-1.389677525E-1	6.623111367E-1
1.824866472E0	2.145601064E-1	-1.319430023E-1	7.588250041E-1
1.833269493E0	2.018850148E-1	-1.209477559E-1	8.483141065E-1
1.841672514E0	1.780619770E-1	-8.796200156E-2	9.391776323E-1
1.850075535E0	1.146865711E-1	-5.589252338E-2	1.025612593E0
1.858478556E0	1.123958975E-1	-6.245913357E-2	1.087308168E0
1.866881576E0	1.382041872E-1	-8.017370105E-2	1.145644069E0
1.875284597E0	1.125486046E-1	-7.146912813E-2	1.169772506E0
1.883687618E0	1.267508119E-1	-1.267508045E-2	1.147629261E0
1.892090639E0	1.181989461E-1	7.406523079E-2	1.058750987E0
1.900493660E0	7.360709459E-2	1.233911440E-1	8.434273601E-1
1.908896681E0	3.313846514E-2	1.041494608E-1	4.902049303E-1
1.917299701E0	8.399149403E-3	1.084253844E-2	8.933641016E-2
1.925702722E0	-3.206948191E-2	-9.086353332E-2	-1.601946950E-1
1.934105743E0	-1.224748790E-1	-1.637070626E-1	-3.234436214E-1
1.942508764E0	-1.856975704E-1	-1.191152185E-1	-5.845808387E-1
1.950911785E0	-2.385358512E-1	-3.695625812E-2	-8.874083757E-1
1.959314806E0	-2.428117841E-1	1.116323397E-1	-1.176949978E0
1.967717826E0	-2.269297540E-1	2.579302490E-1	-1.409224629E0
1.976120847E0	-2.403683960E-1	3.700207174E-1	-1.543458343E0
1.984523868E0	-3.071034551E-1	3.979669809E-1	-1.681662560E0
1.992926889E0	-3.298575282E-1	3.771981895E-1	-1.817117929E0
2.001329910E0	-3.849864900E-1	3.417690396E-1	-1.865374804E0
2.009732931E0	-4.647020400E-1	2.651077211E-1	-1.896222591E0
2.018135951E0	-5.213581324E-1	1.453816444E-1	-1.905079842E0
2.026538972E0	-5.829010010E-1	2.687728032E-2	-1.726101637E0
2.034941993E0	-3.730749488E-1	-4.943281412E-1	-1.052184463E0
2.043345014E0	-3.689517379E-1	-1.332410574E0	-4.202629030E-1
2.051748035E0	-2.287622988E-1	-1.447860718E0	-2.347180545E-1
2.060151056E0	1.084253863E-1	-1.884921908E0	7.437065244E-1
2.068554076E0	4.428642616E-2	-2.046643734E0	1.668529272E0
2.076957097E0	-4.115583301E-1	-8.350282311E-1	4.866925478E-1
2.085360118E0	-4.291202128E-2	1.173590302E0	-1.172826767E0
2.093763139E0	9.254335612E-2	2.319234371E0	-1.108229637E0
2.102166160E0	-6.627693027E-2	2.444152594E0	2.389939874E-1
2.110569181E0	7.711946964E-2	2.047254562E0	7.452336550E-1
2.118972201E0	3.833066672E-2	6.934643388E-1	4.720322192E-1
2.127375222E0	-1.430909634E-1	-8.606837988E-1	2.596100867E-1
2.135778243E0	-1.661504507E-1	-1.254374862E0	1.310267299E-1
2.144181264E0	-1.233911440E-1	-7.669187188E-1	1.380514801E-1
2.152584285E0	-5.558710173E-2	-2.183778882E-1	1.844758689E-1
2.160987306E0	1.832541823E-2	2.020377368E-1	1.270562261E-1
2.169390326E0	3.313846514E-2	3.353551328E-1	7.711946964E-2
2.177793347E0	2.015795931E-2	2.786990702E-1	8.551861346E-2
2.186196368E0	1.236965694E-2	1.661504507E-1	9.376505762E-2
2.194599389E0	2.137965523E-3	7.605048269E-2	9.391776472E-2
2.203002410E0	-2.748812549E-3	1.084253844E-2	9.972081333E-2
2.211405431E0	-4.581354442E-4	-5.787777901E-2	9.910997003E-2
2.219808451E0	1.450762246E-2	-1.519482583E-1	1.056765765E-1
2.228211472E0	2.993151546E-2	-2.221956849E-1	1.119377613E-1
2.236614493E0	6.077930331E-2	-2.347180545E-1	1.139230132E-1
2.245017514E0	8.338065445E-2	-2.115058601E-1	1.159082651E-1
2.253420535E0	9.712471068E-2	-1.762294322E-1	1.195733473E-1
2.261823556E0	9.758284688E-2	-1.722589284E-1	1.235438585E-1
2.270226576E0	9.086353332E-2	-1.742441803E-1	1.325538605E-1
2.278629597E0	8.948912472E-2	-1.685938388E-1	1.479777545E-1
2.287032618E0	1.039967462E-1	-1.470614821E-1	1.640124917E-1
2.295435639E0	1.156028435E-1	-1.394258887E-1	1.910424829E-1
2.303838660E0	1.204896197E-1	-1.401894391E-1	2.159345001E-1
2.312241681E0	1.253764033E-1	-1.348445266E-1	2.476985604E-1
2.320644701E0	1.349972486E-1	-1.023169160E-1	2.929012477E-1
2.329047722E0	1.459924877E-1	-5.528167635E-2	3.539859951E-1
2.337450743E0	1.652341783E-1	2.015795931E-2	4.165978432E-1
2.345853764E0	2.017323077E-1	9.758284688E-2	4.688252807E-1
2.354256785E0	2.463241518E-1	1.232384369E-1	4.915793240E-1
2.362659806E0	2.756448388E-1	6.994201243E-2	4.963133931E-1
2.371062826E0	2.870981991E-1	-2.565558441E-2	4.918847680E-1
2.379465847E0	2.677038014E-1	-9.666658193E-2	5.216635466E-1
2.387868868E0	2.316638231E-1	-1.301104724E-1	5.818319917E-1
2.396271889E0	2.018850148E-1	-1.447708011E-1	6.346703172E-1
2.404674910E0	2.028012872E-1	-1.827960461E-1	6.500942111E-1
2.413077931E0	2.024958730E-1	-2.825168669E-1	6.242858768E-1
2.421480951E0	1.765348613E-1	-4.259132445E-1	6.224533319E-1
2.429883972E0	1.583621502E-1	-5.057815313E-1	6.574243903E-1
2.438286993E0	1.240019947E-1	-4.405735731E-1	7.267554998E-1
2.446690014E0	1.791309565E-1	-2.866400778E-1	7.791357040E-1
2.455093035E0	2.716743052E-1	-6.887302548E-2	8.458707333E-1
2.463496056E0	2.799207568E-1	1.200314835E-1	9.132166505E-1
2.471899076E0	2.921377122E-1	2.628170252E-1	9.402466416E-1
2.480302097E0	3.020639718E-1	4.054498672E-1	9.614735842E-1
2.488705118E0	3.014531136E-1	5.227325559E-1	9.594883323E-1
2.497108139E0	2.822114229E-1	5.734328628E-1	9.280297160E-1
2.505511160E0	2.296785712E-1	5.774033666E-1	8.357917666E-1
2.513914181E0	1.647760421E-1	5.099047422E-1	6.261184216E-1
2.522317201E0	8.597674966E-2	4.306473136E-1	2.631224692E-1
2.530720222E0	3.985778242E-2	3.683409095E-1	-7.345438004E-2
2.539123243E0	-9.926267900E-3	3.698680103E-1	-3.187095523E-1
2.547526264E0	-1.073564067E-1	4.308000207E-1	-5.402944088E-1
2.555929285E0	-1.899735034E-1	4.208737612E-1	-7.994463444E-1
2.564332306E0	-2.531961799E-1	5.015056133E-1	-1.142742515E0
2.572735326E0	-3.527642787E-1	6.410841942E-1	-1.531852245E0
2.581138347E0	-3.610107303E-1	6.891884208E-1	-1.870414257E0
2.589541368E0	-3.506263196E-1	6.018372774E-1	-2.040229797E0
2.597944389E0	-4.081986845E-1	3.884988427E-1	-2.157054424E0
2.606347410E0	-4.816530645E-1	1.039967462E-1	-2.267770529E0
2.614750431E0	-5.630484819E-1	-1.918060333E-1	-2.354510784E0
2.623153451E0	-6.310052276E-1	-4.506525695E-1	-2.424605370E0
2.631556472E0	-6.804838181E-1	-6.667397618E-1	-2.458965540E0
2.639959493E0	-7.128587365E-1	-8.666395545E-1	-2.381235361E0
2.648362514E0	-7.203416228E-1	-1.088529825E0	-1.889045119E0
2.656765535E0	-3.610107303E-1	-1.829640269E0	-4.721849263E-1
2.665168556E0	-2.047865391E-1	-2.807148695E0	9.655967951E-1
2.673571576E0	7.803573459E-2	-2.932219505E0	1.641346574E0
2.681974597E0	-3.100049868E-2	-2.532267332E0	1.707776189E0
2.690377618E0	-3.859027624E-1	-3.258870244E-1	4.779879749E-2
2.698780639E0	1.783674061E-1	2.438960314E0	-1.561783671E0
2.707183660E0	3.753656447E-1	3.789696455E0	-1.222305417E0
2.715586681E0	5.329642445E-2	3.645841837E0	3.990359604E-1
2.723989701E0	8.887827396E-2	2.705137014E0	8.820634484E-1
2.732392722E0	2.183778957E-2	8.583931327E-1	4.654656053E-1
2.740795743E0	-2.107423097E-1	-1.173743010E0	2.551814318E-1
2.749198764E0	-2.412846684E-1	-1.780161619E0	1.855448484E-1
2.757601785E0	-1.860029846E-1	-1.354553819E0	1.896680743E-1
2.766004806E0	-1.424801201E-1	-7.308787704E-1	2.449497581E-1
2.774407826E0	-7.666133344E-2	-1.240019947E-1	1.687465608E-1
2.782810847E0	-2.443389036E-2	2.883199155E-1	8.399149776E-2
2.791213868E0	4.123218823E-3	4.297310412E-1	1.043021679E-1
2.799616889E0	2.718270384E-2	3.628432751E-1	1.586675793E-1
2.808019910E0	2.351761982E-2	1.893626451E-1	1.719534993E-1
2.816422931E0	1.679829881E-2	-1.695101149E-2	1.776038408E-1
2.824825951E0	8.704573847E-3	-1.652341783E-1	1.600419879E-1
2.833228972E0	1.527118124E-2	-2.409792393E-1	1.423274130E-1
2.841631993E0	2.901524492E-2	-2.956500649E-1	1.475196183E-1
2.850035014E0	5.390727147E-2	-3.254288733E-1	1.475196183E-1
2.858438035E0	7.482878864E-2	-3.530697227E-1	1.444653720E-1
2.866841056E0	8.490777016E-2	-3.710896969E-1	1.327065676E-1
2.875244076E0	8.826743066E-2	-3.486410677E-1	1.273616552E-1
2.883647097E0	8.719844371E-2	-3.009949923E-1	1.411057115E-1
2.892050118E0	8.842013776E-2	-2.379250079E-1	1.623326540E-1
2.900453139E0	9.147437662E-2	-1.908897758E-1	1.896680743E-1
2.908856160E0	1.023169160E-1	-1.449235082E-1	2.058555335E-1
2.917259181E0	1.101052165E-1	-1.070509851E-1	2.309002578E-1
2.925662201E0	1.262926757E-1	-6.398624927E-2	2.666348219E-1
2.934065222E0	1.400367320E-1	-3.756710514E-2	3.115321100E-1
2.942468243E0	1.553079188E-1	-2.748812735E-2	3.579564989E-1
2.950871264E0	1.757712960E-1	1.527118147E-4	4.014793634E-1
2.959274285E0	2.084516287E-1	1.343864016E-2	4.318690002E-1
2.967677306E0	2.412846684E-1	2.351761982E-2	4.469874799E-1
2.976080326E0	2.625116110E-1	1.084253844E-2	4.558447599E-1
2.984483347E0	2.774773538E-1	-4.169032723E-2	4.424061179E-1
2.992886368E0	2.811424434E-1	-1.247655526E-1	4.144598544E-1
3.001289389E0	2.525853515E-1	-2.289150059E-1	4.355340898E-1
3.009692410E0	2.162399292E-1	-2.866400778E-1	4.798205197E-1
3.018095431E0	1.834068894E-1	-3.020639718E-1	5.066977739E-1
3.026498451E0	1.716480851E-1	-3.298575282E-1	5.464028716E-1
3.034901472E0	1.743968874E-1	-3.562766612E-1	5.877877474E-1
3.043304493E0	1.782146841E-1	-3.634541333E-1	6.296308041E-1
3.051707514E0	1.913478971E-1	-2.875563502E-1	7.046123147E-1
3.060110535E0	2.020377368E-1	-1.188097894E-1	8.107470274E-1
3.068513556E0	2.313583940E-1	7.757759839E-2	9.113841057E-1
3.076916576E0	3.439069986E-1	2.473931462E-1	9.910996556E-1
3.085319597E0	3.691044450E-1	4.228590131E-1	1.069440842E0
3.093722618E0	3.652866483E-1	5.464028716E-1	1.093416572E0
3.102125639E0	3.616215885E-1	6.169557571E-1	1.080894232E0
3.110528660E0	3.584146202E-1	6.502469182E-1	1.055696726E0
3.118931681E0	3.411581814E-1	6.519267559E-1	1.002094984E0
3.127334701E0	2.985515893E-1	6.539120078E-1	8.576295376E-1
3.135737722E0	2.377723008E-1	7.411104441E-1	5.320479870E-1
3.144140743E0	2.240282297E-1	8.971819282E-1	1.478250325E-1
3.152543764E0	2.099787444E-1	1.028514028E0	-1.491994411E-1
3.160946785E0	1.401894391E-1	1.093721986E0	-3.770454824E-1
3.169349806E0	9.407047927E-2	1.002094984E0	-6.733064055E-1
3.177752826E0	1.695101149E-2	8.733588457E-1	-1.061347127E0
3.186155847E0	-8.399149776E-2	8.018897176E-1	-1.459314108E0
3.194558868E0	-8.612946421E-2	7.401941419E-1	-1.740456581E0
3.202961889E0	-1.175880954E-1	6.371136904E-1	-1.926154137E0
3.211364910E0	-2.018850148E-1	5.132644176E-1	-2.083905458E0
3.219767931E0	-2.909159958E-1	3.990359604E-1	-2.198133945E0
3.228170951E0	-3.642176688E-1	2.782409191E-1	-2.252499342E0
3.236573972E0	-4.141544402E-1	1.264453828E-1	-2.274795294E0
3.244976993E0	-4.647020400E-1	-4.886778072E-2	-2.276933193E0
3.253380014E0	-5.607577562E-1	-2.504473627E-1	-2.224094868E0
3.261783035E0	-7.070556879E-1	-5.422796607E-1	-1.902789235E0
3.270186056E0	-3.872771561E-1	-1.220167398E0	-5.376983285E-1
3.278589076E0	2.307475507E-1	-3.194578409E0	2.137965441E0
3.286992097E0	-4.413371533E-2	-4.092829227E0	3.247569561E0
3.295395118E0	-8.145648241E-1	-2.471335411E0	8.709154725E-1
3.303798139E0	-2.565558441E-2	1.002553105E0	-1.934705973E0
3.312201160E0	4.926483035E-1	3.502292871E0	-1.878966212E0
3.320604181E0	1.856975704E-1	3.912629366E0	4.935645759E-1
3.329007201E0	2.312056869E-1	3.411887407E0	1.446639061E0
3.337410222E0	1.973036677E-1	1.689756274E0	8.502993584E-1
3.345813243E0	-1.510319859E-1	-9.801044464E-1	4.179722369E-1
3.354216264E0	-2.990097404E-1	-1.985406280E0	2.724378705E-1
3.362619285E0	-2.608317733E-1	-1.459619522E0	3.590254784E-1
3.371022306E0	-1.994416267E-1	-6.681141853E-1	5.824428797E-1
3.379425326E0	-9.208522737E-2	-4.245388508E-2	5.227325559E-1
3.387828347E0	-7.330167107E-3	3.165715933E-1	2.783936262E-1
3.396231368E0	2.076880634E-2	4.233171642E-1	1.559187621E-1
3.404634389E0	4.413371533E-2	4.013266563E-1	1.930277348E-1
3.413037410E0	2.305948362E-2	2.971771955E-1	2.409792393E-1
3.421440431E0	2.443389036E-3	7.757759839E-2	2.570139766E-1
3.429843451E0	-1.878355257E-2	-1.382041872E-1	2.293731421E-1
3.438246472E0	-2.886253223E-2	-2.673983872E-1	1.911951900E-1
3.446649493E0	-7.788302377E-3	-2.910687327E-1	1.528645307E-1
3.455052514E0	2.260134928E-2	-2.220429778E-1	1.157555580E-1
3.463455535E0	5.253286287E-2	-1.469087601E-1	9.223793447E-2
3.471858556E0	6.032116711E-2	-1.310267299E-1	7.818844914E-2
3.480261576E0	5.711421743E-2	-1.959292591E-1	7.055285573E-2
3.488664597E0	4.947862774E-2	-2.756448388E-1	6.108472496E-2
3.497067618E0	4.413371533E-2	-3.145863414E-1	6.612421572E-2
3.505470639E0	5.436540768E-2	-2.921377122E-1	6.658235192E-2
3.513873660E0	6.383354217E-2	-2.385358512E-1	7.406523079E-2
3.522276681E0	7.269082218E-2	-1.901262105E-1	7.849387079E-2
3.530679701E0	7.482878864E-2	-1.711899489E-1	8.704573661E-2
3.539082722E0	7.528692484E-2	-1.748550236E-1	9.804098308E-2
3.547485743E0	7.635590434E-2	-1.860029846E-1	1.177408099E-1
3.555888764E0	7.818844914E-2	-1.959292591E-1	1.429382563E-1
3.564291785E0	8.643488586E-2	-1.925695986E-1	1.696628332E-1
3.572694806E0	1.021642014E-1	-1.878355294E-1	2.023431510E-1
3.581097826E0	1.249182671E-1	-1.791309565E-1	2.388412803E-1
3.589500847E0	1.550024897E-1	-1.728697717E-1	2.712161839E-1
3.597903868E0	1.936385781E-1	-1.565296054E-1	2.976353168E-1
3.606306889E0	2.287622988E-1	-1.461452097E-1	3.089359999E-1
3.614709910E0	2.411319613E-1	-1.969982386E-1	2.996205688E-1
3.623112931E0	2.284568697E-1	-3.064926267E-1	3.180987239E-1
3.631515951E0	2.078407854E-1	-3.790307343E-1	3.581092060E-1
3.639918972E0	1.688992679E-1	-4.097257853E-1	4.074351192E-1
3.648321993E0	1.459924877E-1	-3.978142738E-1	4.587462842E-1
3.656725014E0	1.531699449E-1	-3.697153032E-1	4.996730685E-1
3.665128035E0	1.670667231E-1	-3.800997138E-1	5.270084739E-1
3.673531056E0	1.702736765E-1	-4.479037523E-1	5.767925382E-1
3.681934076E0	1.403421611E-1	-4.796678126E-1	6.720846891E-1
3.690337097E0	1.357607991E-1	-4.686725736E-1	7.966975570E-1
3.698740118E0	2.049392611E-1	-3.633013964E-1	9.116895199E-1
3.707143139E0	2.470877171E-1	-2.344126403E-1	1.052031636E0
3.715546160E0	2.886253297E-1	-1.298050433E-1	1.188861489E0
3.723949181E0	3.217637837E-1	-9.009997360E-3	1.294996142E0
3.732352201E0	3.492519259E-1	1.091889441E-1	1.373795509E0
3.740755222E0	3.834593594E-1	2.371614426E-1	1.438392639E0
3.749158243E0	4.083513916E-1	3.400892019E-1	1.497033954E0
3.757561264E0	4.263713956E-1	3.776563108E-1	1.536586285E0
3.765964285E0	4.332434237E-1	3.573456407E-1	1.515206575E0
3.774367306E0	4.052971601E-1	3.054236174E-1	1.441141367E0
3.782770326E0	3.182514310E-1	2.467822880E-1	1.299272060E0
3.791173347E0	2.173089087E-1	1.693574041E-1	1.069898963E0
3.799576368E0	1.557660550E-1	3.619270027E-2	7.811209559E-1
3.807979389E0	9.788827598E-2	-1.627907902E-1	4.199574888E-1
3.816382410E0	6.688777357E-2	-3.425326049E-1	-1.023169141E-2
3.824785431E0	1.236965694E-2	-4.894413650E-1	-3.742966652E-1
3.833188451E0	-5.314370990E-2	-5.896202922E-1	-6.690304875E-1
3.841591472E0	-2.918322682E-1	-5.751127005E-1	-1.024696231E0
3.849994493E0	-4.695888162E-1	-5.578562617E-1	-1.499782681E0
3.858397514E0	-4.804313779E-1	-2.793098986E-1	-1.865680218E0
3.866800535E0	-5.361711979E-1	1.508792788E-1	-2.166980743E0
3.875203556E0	-5.977140665E-1	5.683933496E-1	-2.469655514E0
3.883606576E0	-7.018635273E-1	8.351809382E-1	-2.763778448E0
3.892009597E0	-7.401941419E-1	1.008661509E0	-3.021403313E0
3.900412618E0	-7.676823139E-1	1.122889996E0	-3.221761227E0
3.908815639E0	-8.649597168E-1	1.199704051E0	-3.402571917E0
3.917218660E0	-1.072036982E0	1.254374862E0	-3.391271353E0
3.925621681E0	-9.935430884E-1	7.893673778E-1	-2.942604065E0
3.934024701E0	-5.192201734E-1	-1.383569092E-1	-2.154763699E0
3.942427722E0	-2.707580328E-1	-9.194778204E-1	-7.394306064E-1
3.950830743E0	6.306997687E-2	-2.780729532E0	1.826586008E0
3.959233764E0	-3.776563108E-1	-3.909575224E0	2.578691721E0
3.967636785E0	-3.368822634E-1	-2.715216160E0	4.005630910E-1
3.976039806E0	-5.100574717E-2	-3.095468581E-1	-1.375169873E0
3.984442826E0	3.561239541E-1	2.011825562E0	-1.966164589E0
3.992845847E0	2.609844804E-1	3.396005392E0	-1.099372387E0
4.001248868E0	-1.354553849E-1	3.538027287E0	3.623851240E-1
4.009651889E0	-2.698417902E-1	2.656727552E0	5.894675851E-1
4.018054910E0	-2.492256761E-1	1.314848781E0	4.398100078E-2
4.026457931E0	-2.336490750E-1	-1.832541823E-1	-2.664821148E-1
4.034860951E0	-1.910424829E-1	-1.259261608E0	-1.786728203E-1
4.043263972E0	-1.432436854E-1	-1.482526302E0	-1.426328421E-1
4.051666993E0	-1.479777545E-1	-1.364938259E0	-1.977618039E-1
4.060070014E0	-2.139492482E-1	-1.083337665E0	-2.125748396E-1
4.068473035E0	-2.596100867E-1	-6.560499668E-1	-1.947075576E-1
4.076876056E0	-2.208212912E-1	-1.591257155E-1	-2.018850148E-1
4.085279076E0	-1.232384369E-1	2.414373755E-1	-1.872246861E-1
4.093682097E0	-3.115320951E-2	4.579827189E-1	-1.605001241E-1
4.102085118E0	-1.267508045E-2	4.311054647E-1	-1.485885978E-1
4.110488139E0	-4.520269856E-2	2.890834510E-1	-1.366770715E-1
4.118891160E0	-1.107160673E-1	1.536280811E-1	-1.143811494E-1
4.127294181E0	-1.409530044E-1	4.062134400E-2	-8.338065445E-2
4.135697201E0	-1.406475753E-1	-6.413896102E-3	-4.504998401E-2
4.144100222E0	-1.246128380E-1	-3.649812192E-2	3.512371797E-3
4.152503243E0	-8.582404256E-2	-3.344388679E-2	3.497100621E-2
4.160906264E0	-3.771981969E-2	-2.932066843E-2	6.230641901E-2
4.169309285E0	1.985253533E-3	-5.573981255E-2	9.529217333E-2
4.177712306E0	3.115320951E-2	-1.131594554E-1	1.365243644E-1
4.186115326E0	5.344913527E-2	-1.621799469E-1	1.704263836E-1
4.194518347E0	7.452336699E-2	-1.956238300E-1	2.116585821E-1
4.202921368E0	9.513945878E-2	-2.180724740E-1	2.409792393E-1
4.211324389E0	1.212531775E-1	-1.798945218E-1	2.493783981E-1
4.219727410E0	1.490467340E-1	-1.159082651E-1	2.550287247E-1
4.228130431E0	1.614163816E-1	-7.406523079E-2	2.545706034E-1
4.236533451E0	1.673721522E-1	-6.505523622E-2	2.473931462E-1
4.244936472E0	1.623326540E-1	-5.054761097E-2	2.510582209E-1
4.253339493E0	1.473668963E-1	-5.818320066E-2	2.800734639E-1
4.261742514E0	1.327065676E-1	-8.292251825E-2	3.042019308E-1
4.270145535E0	1.255291104E-1	-1.122431830E-1	3.147390485E-1
4.278548556E0	1.284306347E-1	-1.125486046E-1	3.261924386E-1
4.286951576E0	1.354553849E-1	-9.743013978E-2	3.454341292E-1
4.295354597E0	1.385096163E-1	-9.865183383E-2	3.741439581E-1
4.303757618E0	1.430909634E-1	-1.272089481E-1	4.031592011E-1
4.312160639E0	1.521009654E-1	-1.536280811E-1	4.459185004E-1
4.320563660E0	1.653869003E-1	-1.559187621E-1	5.062396526E-1
4.328966681E0	1.898207814E-1	-1.272089481E-1	5.723638535E-1
4.337369701E0	2.318165302E-1	-6.902574003E-2	6.394043565E-1
4.345772722E0	2.841966748E-1	-3.512371797E-3	6.881194115E-1
4.354175743E0	3.365768492E-1	1.450762246E-2	7.087355256E-1
4.362578764E0	3.671191931E-1	-5.803048983E-2	7.079719901E-1
4.370981785E0	3.500154912E-1	-1.902789176E-1	7.282826304E-1
4.379384806E0	2.988570333E-1	-3.148917556E-1	7.785248160E-1
4.387787826E0	2.444916219E-1	-3.859027624E-1	8.101361990E-1
4.396190847E0	2.031067163E-1	-4.663818777E-1	8.733588457E-1
4.404593868E0	1.895153672E-1	-5.593833923E-1	9.573503733E-1
4.412996889E0	1.783674061E-1	-6.207735538E-1	1.028666735E0
4.421399910E0	1.759240031E-1	-5.909947157E-1	1.129151106E0
4.429802931E0	1.768402755E-1	-4.303418994E-1	1.260635972E0
4.438205951E0	2.394521236E-1	-2.535016239E-1	1.371199369E0
4.446608972E0	3.591781855E-1	-8.047912270E-2	1.454732776E0
4.455011993E0	4.048390090E-1	3.909422457E-2	1.539793253E0
4.463415014E0	4.453076422E-1	5.696150661E-2	1.573237062E0
4.471818035E0	5.030327439E-1	7.101099193E-2	1.588355541E0
4.480221056E0	5.558710098E-1	1.156028435E-1	1.586675763E0
4.488624076E0	5.804576278E-1	1.414111406E-1	1.548497796E0
4.497027097E0	5.436540842E-1	1.588202864E-1	1.471683741E0
4.505430118E0	4.118637741E-1	1.809635013E-1	1.290567517E0
4.513833139E0	2.400629669E-1	2.037175596E-1	8.832851648E-1
4.522236160E0	1.566823274E-1	1.992889196E-1	3.458922505E-1
4.530639181E0	1.201841980E-1	9.712471068E-2	-8.796200156E-2
4.539042201E0	5.146388337E-2	1.328592747E-2	-4.598152637E-1
4.547445222E0	-3.252761811E-2	-1.026223376E-1	-8.098307252E-1
4.555848243E0	-2.330382317E-1	-2.567085624E-1	-1.223527074E0
4.564251264E0	-5.137225389E-1	-3.274141252E-1	-1.760156393E0
4.572654285E0	-5.665608048E-1	-1.818797737E-1	-2.202104330E0
4.581057306E0	-5.971031785E-1	2.050919682E-1	-2.505542755E0
4.589460326E0	-6.697940230E-1	5.787777901E-1	-2.820434570E0
4.597863347E0	-7.285880446E-1	8.473978639E-1	-3.130134106E0
4.606266368E0	-7.739434838E-1	1.018740535E0	-3.373709440E0
4.614669389E0	-7.936432958E-1	1.009883285E0	-3.528100967E0
4.623072410E0	-7.922688723E-1	8.629744649E-1	-3.582313776E0
4.631475431E0	-9.083298445E-1	6.281036735E-1	-3.459991693E0
4.639878451E0	-1.136023164E0	1.398840249E-1	-2.876632452E0
4.648281472E0	-6.114581227E-1	-1.119835734E0	-1.539945960E0
4.656684493E0	-3.568875194E-1	-2.431630135E0	1.247655526E-1
4.665087514E0	3.235963285E-1	-3.545357466E0	2.307475567E0
4.673490535E0	-6.316160560E-1	-4.153608799E0	2.988723040E0
4.681893556E0	-7.812736630E-1	-7.638645172E-1	-6.313106418E-1
4.690296576E0	4.656183124E-1	3.400434017E0	-3.166326761E0
4.698699597E0	6.157340407E-1	5.082096577E0	-1.905385256E0
4.707102618E0	3.376458287E-1	4.745367050E0	4.967715442E-1
4.715505639E0	1.634016484E-1	3.222677469E0	1.437018156E0
4.723908660E0	-1.820324808E-1	5.367820263E-1	8.606837988E-1
4.732311681E0	-3.880407214E-1	-2.160719395E0	3.947600424E-1
4.740714701E0	-3.994941115E-1	-2.913741350E0	2.382304370E-1
4.749117722E0	-3.315373361E-1	-2.132773161E0	3.396310806E-1
4.757520743E0	-2.246390730E-1	-1.094485521E0	5.975613594E-1
4.765923764E0	-1.140757278E-1	-2.768665254E-1	4.920374751E-1
4.774326785E0	-1.847812906E-2	2.625116110E-1	1.397313178E-1
4.782729806E0	4.352286831E-2	5.415160656E-1	-2.947338112E-2
4.791132826E0	8.414421231E-2	6.694886088E-1	4.031591862E-2
4.799535847E0	9.132166207E-2	6.195518374E-1	1.108687744E-1
4.807938868E0	5.329642445E-2	3.272614181E-1	9.788827598E-2
4.816341889E0	1.068982668E-2	-3.558185324E-2	3.237490356E-2
4.824744910E0	3.206948051E-3	-2.522799075E-1	-2.565558441E-2
4.833147931E0	1.588202827E-2	-3.443651497E-1	-3.955236077E-2
4.841550951E0	3.237490356E-2	-3.781144619E-1	-3.344388679E-2
4.849953972E0	4.001049697E-2	-3.981196880E-1	-3.741439432E-2
4.858356993E0	4.199574888E-2	-3.950654566E-1	-4.642439261E-2
4.866760014E0	4.779879749E-2	-3.353551328E-1	-4.734066129E-2
4.875163035E0	5.604523420E-2	-2.402156889E-1	-2.794626169E-2
4.883566056E0	5.864133686E-2	-1.676775664E-1	-7.177455351E-3
4.891969076E0	6.093201414E-2	-1.356080920E-1	4.428642802E-3
4.900372097E0	6.383354217E-2	-1.354553849E-1	2.153236605E-2
4.908775118E0	5.543438718E-2	-1.568350345E-1	4.963133857E-2
4.917178139E0	5.222744122E-2	-1.766875684E-1	7.559234649E-2
4.925581160E0	5.283828825E-2	-1.827960461E-1	1.023169160E-1
4.933984181E0	5.772506446E-2	-1.779092699E-1	1.433963925E-1
4.942387201E0	6.001574174E-2	-1.595838517E-1	1.885990947E-1
4.950790222E0	8.200624585E-2	-1.149920002E-1	2.339545041E-1
4.959193243E0	1.299577504E-1	-4.871506989E-2	2.819060087E-1
4.967596264E0	1.832541823E-1	2.809897438E-2	3.156553209E-1
4.975999285E0	2.278460264E-1	9.315420873E-3	3.101576865E-1
4.984402306E0	2.506000996E-1	-6.306997687E-2	2.777827978E-1
4.992805326E0	2.338017821E-1	-1.301104724E-1	2.710634768E-1
5.001208347E0	1.969982386E-1	-1.440072358E-1	3.008422852E-1
5.009611368E0	1.702736765E-1	-1.444653720E-1	3.321481943E-1
5.018014389E0	1.487413049E-1	-1.693574041E-1	3.611634374E-1
5.026417410E0	1.331647038E-1	-2.130329758E-1	3.944546282E-1
5.034820431E0	1.255291104E-1	-2.451024652E-1	4.323271513E-1
5.043223451E0	1.232384369E-1	-2.649549842E-1	4.859289825E-1
5.051626472E0	1.331647038E-1	-2.971771955E-1	5.532749295E-1
5.060029493E0	1.534753740E-1	-3.697153032E-1	6.100836992E-1
5.068432514E0	1.672194302E-1	-5.100574493E-1	6.565080881E-1
5.076835535E0	1.719534993E-1	-7.102626562E-1	7.194253802E-1
5.085238556E0	1.760767251E-1	-8.525900841E-1	7.954758406E-1
5.093641576E0	1.621799469E-1	-8.493831158E-1	9.054283500E-1
5.102044597E0	2.047865391E-1	-7.336275578E-1	1.024848938E0
5.110447618E0	3.489464819E-1	-4.815003574E-1	1.152974248E0
5.118850639E0	4.107947946E-1	-1.644706279E-1	1.318666577E0
5.127253660E0	4.541649222E-1	1.310267299E-1	1.430298805E0
5.135656681E0	4.883723855E-1	4.335488379E-1	1.480846524E0
5.144059701E0	5.115845799E-1	7.030851841E-1	1.476723194E0
5.152462722E0	5.389199853E-1	9.087880254E-1	1.417318344E0
5.160865743E0	5.172349215E-1	9.759812355E-1	1.330578089E0
5.169268764E0	4.425588250E-1	9.136747718E-1	1.189625025E0
5.177671785E0	3.376458287E-1	7.728744745E-1	9.576557875E-1
5.186074806E0	2.457133085E-1	6.473453641E-1	6.184828281E-1
5.194477826E0	1.826433241E-1	6.140542030E-1	1.569877416E-1
5.202880847E0	1.876828223E-1	6.114581227E-1	-3.257342875E-1
5.211283868E0	2.644968629E-1	6.374191046E-1	-6.516213417E-1
5.219686889E0	3.145863488E-2	5.318952799E-1	-9.692618847E-1
5.228089910E0	-1.243074164E-1	3.585673273E-1	-1.514595747E0
5.236492931E0	-1.794363856E-1	2.977880239E-1	-1.974105597E0
5.244895951E0	-3.532224298E-1	2.893888950E-1	-2.289761066E0
5.253298972E0	-4.350759685E-1	3.532224298E-1	-2.587854385E0
5.261701993E0	-4.727957845E-1	4.204156399E-1	-2.813104391E0
5.270105014E0	-5.334223509E-1	3.439069986E-1	-2.964288950E0
5.278508035E0	-6.085565686E-1	2.122694254E-1	-3.097301006E0
5.286911056E0	-7.380561829E-1	4.443913698E-2	-3.084625959E0
5.295314076E0	-9.057337642E-1	-2.141019702E-1	-2.684520960E0
5.303717097E0	-6.526902914E-1	-9.807152748E-1	-1.566823244E0
5.312120118E0	-4.283566475E-1	-1.816506982E0	2.950392365E-1
5.320523139E0	3.211529553E-1	-3.200686932E0	3.096690178E0
5.328926160E0	-1.180767775E0	-3.701581717E0	2.621145487E0
5.337329181E0	-3.729222417E-1	-3.145863488E-2	-1.696933627E0
5.345732201E0	7.395833135E-1	3.320260286E0	-3.313846350E0
5.354135222E0	5.053234100E-1	4.334877491E0	-1.519024372E0
5.362538243E0	1.537808031E-1	3.501223803E0	8.654178381E-1
5.370941264E0	5.070032179E-2	2.001288414E0	1.275143623E0
5.379344285E0	-2.063136548E-1	-4.077405483E-2	5.558710098E-1
5.387747306E0	-3.596363366E-1	-2.112615347E0	1.514901221E-1
5.396150326E0	-3.306210935E-1	-2.599002361E0	1.582094431E-1
5.404553347E0	-2.706053257E-1	-1.709456086E0	2.745758295E-1
5.412956368E0	-1.696628332E-1	-6.036698222E-1	4.637857676E-1
5.421359389E0	-6.200099736E-2	1.760767251E-1	4.043808877E-1
5.429762410E0	1.649287529E-2	6.332958937E-1	1.374406368E-1
5.438165431E0	7.284353673E-2	8.238802552E-1	3.924693540E-2
5.446568451E0	1.101052165E-1	8.811471462E-1	1.472141892E-1
5.454971472E0	8.521319181E-2	6.836907864E-1	2.863346636E-1
5.463374493E0	9.009997360E-3	2.209739983E-1	3.074088693E-1
5.471777514E0	-4.550812021E-2	-2.278460264E-1	2.576248348E-1
5.480180535E0	-4.978405312E-2	-4.375193417E-1	2.363978922E-1
5.488583556E0	-1.969982497E-2	-4.069769979E-1	2.550287247E-1
5.496986576E0	2.214321308E-2	-2.712161839E-1	2.605263591E-1
5.505389597E0	6.551336497E-2	-1.322484314E-1	2.409792393E-1
5.513792618E0	9.483403713E-2	-5.757235363E-2	2.119639963E-1
5.522195639E0	1.070509851E-1	-5.833591148E-2	1.948602796E-1
5.530598660E0	9.681928903E-2	-9.040539712E-2	2.047865391E-1
5.539001681E0	7.559234649E-2	-1.550024897E-1	2.334963679E-1
5.547404701E0	7.513421029E-2	-1.979145110E-1	2.495311052E-1
5.555807722E0	9.071081877E-2	-1.910424829E-1	2.602209449E-1
5.564210743E0	1.065928489E-1	-1.556133330E-1	2.799207568E-1
5.572613764E0	1.197260618E-1	-1.143811494E-1	3.013004065E-1
5.581016785E0	1.259872466E-1	-1.039967462E-1	3.194731176E-1
5.589419806E0	1.336228400E-1	-1.139230132E-1	3.545968235E-1
5.597822826E0	1.490467340E-1	-9.804098308E-2	4.007157981E-1
5.606225847E0	1.612636745E-1	-7.788302749E-2	4.659237564E-1
5.614628868E0	1.772984117E-1	-7.849387079E-2	5.189147592E-1
5.623031889E0	1.969982386E-1	-7.589777559E-2	5.554128885E-1
5.631434910E0	2.279987335E-1	-5.635065958E-2	5.992411375E-1
5.639837931E0	2.721324563E-1	-1.985253533E-3	6.533011198E-1
5.648240951E0	3.138227761E-1	6.581879407E-2	7.038487792E-1
5.656643972E0	3.490992188E-1	7.941014320E-2	7.258392572E-1
5.665046993E0	3.910949528E-1	-2.870982140E-2	7.001836896E-1
5.673450014E0	3.848337829E-1	-2.338017821E-1	6.675033569E-1
5.681853035E0	3.258870244E-1	-4.326325655E-1	7.156075835E-1
5.690256056E0	2.718270421E-1	-4.999784827E-1	7.960866690E-1
5.698659076E0	2.237228155E-1	-5.140279531E-1	8.877137899E-1
5.707062097E0	1.969982386E-1	-5.473191738E-1	9.894198179E-1
5.715465118E0	1.113269106E-1	-5.445703268E-1	1.078603506E0
5.723868139E0	2.247917950E-1	-5.859552622E-1	1.105022669E0
5.732271160E0	3.177932799E-1	-4.165978432E-1	1.207186937E0
5.740674181E0	3.407000601E-1	-2.809897363E-1	1.345849276E0
5.749077201E0	4.181249440E-1	-1.780619770E-1	1.432742238E0
5.757480222E0	4.955498278E-1	-8.124268800E-2	1.465269804E0
5.765883243E0	5.694623590E-1	3.252761811E-2	1.441141367E0
5.774286264E0	6.361974478E-1	1.510319859E-1	1.390288353E0
5.782689285E0	6.610894203E-1	3.148917556E-1	1.318361044E0
5.791092306E0	6.171084642E-1	4.944808483E-1	1.219709277E0
5.799495326E0	5.262449384E-1	6.406260729E-1	1.043785214E0
5.807898347E0	4.372139275E-1	7.030851841E-1	7.840224504E-1
5.816301368E0	3.796415627E-1	6.981984377E-1	4.396573007E-1
5.824704389E0	3.301629424E-1	6.610894203E-1	7.528692484E-2
5.833107410E0	2.666348219E-1	6.244385839E-1	-2.275405973E-1
5.841510431E0	1.386623234E-1	5.971031785E-1	-4.278984964E-1
5.849913451E0	2.321219631E-2	5.224271417E-1	-6.930062175E-1
5.858316472E0	-1.606528312E-1	5.277720094E-1	-1.137244940E0
5.866719493E0	-2.744231224E-1	5.870242119E-1	-1.570793748E0
5.875122514E0	-2.501419485E-1	7.166765332E-1	-1.841399074E0
5.883525535E0	-3.066453338E-1	8.222004175E-1	-2.102536201E0
5.891928556E0	-4.237752855E-1	8.073873520E-1	-2.383678675E0
5.900331576E0	-5.474718809E-1	7.333221436E-1	-2.641303539E0
5.908734597E0	-6.277982593E-1	6.209262609E-1	-2.818449259E0
5.917137618E0	-7.072083950E-1	4.628695250E-1	-2.926416397E0
5.925540639E0	-8.130376935E-1	2.857238054E-1	-3.005063057E0
5.933943660E0	-9.433009028E-1	1.589729935E-1	-3.092414141E0
5.942346681E0	-1.081810474E0	8.628217876E-2	-3.147543192E0
5.950749701E0	-1.181989431E0	3.115320951E-2	-3.104784012E0
5.959152722E0	-1.191457629E0	-6.016845629E-2	-2.943978310E0
5.967555743E0	-1.020420313E0	-3.677300513E-1	-2.488439083E0
5.975958764E0	-4.584408700E-1	-1.176033735E0	-1.142284393E0
5.984361785E0	-6.001574174E-2	-2.496990919E0	8.403730989E-1
5.992764806E0	-1.314848661E-1	-3.260855436E0	1.940050840E0
6.001167826E0	-9.132166207E-2	-2.799207449E0	1.028208613E0
6.009570847E0	-3.359660041E-3	-1.357455373E0	8.108997345E-2
6.017973868E0	-2.275406010E-2	7.430956960E-1	-6.047387719E-1
6.026376889E0	2.113531530E-1	2.761029720E0	-1.148392797E0
6.034779910E0	2.330382317E-1	3.801760674E0	-7.278245091E-1
6.043182931E0	7.192726433E-2	3.500918388E0	3.130592108E-1
6.051585951E0	-3.054236248E-2	2.119639874E0	8.069292307E-1
6.059988972E0	-8.582404256E-2	3.811686933E-1	4.828747511E-1
6.068391993E0	-1.614163816E-1	-1.182905674E0	2.157817930E-1
6.076795014E0	-2.417428046E-1	-2.116127729E0	1.910424829E-1
6.085198035E0	-2.768665254E-1	-2.131246090E0	1.962346882E-1
6.093601056E0	-2.774773538E-1	-1.532310367E0	1.800472289E-1
6.102004076E0	-2.498365343E-1	-7.296570539E-1	1.798945218E-1
6.110407097E0	-1.747023165E-1	-3.374931216E-2	1.669140160E-1
6.118810118E0	-5.726693198E-2	4.543176591E-1	1.093416587E-1
6.127213139E0	2.764083818E-2	7.455390692E-1	7.864658535E-2
6.135616160E0	6.184828654E-2	8.612946272E-1	1.253764033E-1
6.144019181E0	5.390727147E-2	8.185353279E-1	2.263189107E-1
6.152422201E0	1.450762246E-2	6.154286265E-1	3.009949923E-1
6.160825222E0	-1.817270555E-2	3.213056624E-1	3.155026138E-1
6.169228243E0	-1.175880991E-2	2.458660305E-2	3.124483824E-1
6.177631264E0	3.145863488E-2	-1.534753740E-1	3.124483824E-1
6.186034285E0	8.444963396E-2	-2.247917950E-1	3.237490356E-1
6.194437306E0	1.189625040E-1	-2.307475507E-1	3.480302393E-1
6.202840326E0	1.317902952E-1	-2.209739983E-1	3.732276857E-1
6.211243347E0	1.356080920E-1	-1.795890927E-1	3.733803928E-1
6.219646368E0	1.450762302E-1	-1.244601309E-1	3.710896969E-1
6.228049389E0	1.618745178E-1	-4.810422286E-2	3.660502136E-1
6.236452410E0	1.800472289E-1	2.321219631E-2	3.633013964E-1
6.244855431E0	1.931804419E-1	4.398100078E-2	3.677300513E-1
6.253258451E0	1.870719790E-1	1.710372418E-2	3.695625961E-1
6.261661472E0	1.710372269E-1	-3.726168349E-2	3.628432751E-1
6.270064493E0	1.531699449E-1	-8.047912270E-2	3.608580232E-1
6.278467514E0	1.328592747E-1	-9.727742523E-2	3.691044450E-1
6.286870535E0	1.221694499E-1	-8.444963396E-2	3.733803928E-1
6.295273556E0	1.061347127E-1	-6.581879407E-2	3.888042867E-1
6.303676576E0	1.119377613E-1	-3.084778599E-2	4.234698713E-1
6.312079597E0	1.279724985E-1	2.214321308E-2	4.624113739E-1
6.320482618E0	1.447708011E-1	4.459185153E-2	5.149442554E-1
6.328885639E0	1.893626451E-1	6.597150117E-2	5.651864409E-1
6.337288660E0	2.328855246E-1	9.697200358E-2	6.024481058E-1
6.345691681E0	2.786990702E-1	6.902574003E-2	6.236750484E-1
6.354094701E0	3.750602305E-1	-3.726168349E-2	6.342121959E-1
6.362497722E0	3.735330999E-1	-1.748550236E-1	6.713211536E-1
6.370900743E0	3.150444627E-1	-2.797680497E-1	7.380561829E-1
6.379303764E0	2.667875290E-1	-3.237490356E-1	8.255600929E-1
6.387706785E0	2.281514555E-1	-4.424061179E-1	9.358180165E-1
6.396109806E0	1.860029846E-1	-6.671979427E-1	1.020267606E0
6.404512826E0	1.571404636E-1	-8.641961813E-1	1.056918502E0
6.412915847E0	1.499630064E-1	-9.342908859E-1	1.081963181E0
6.421318868E0	1.745496094E-1	-8.991671801E-1	1.137244940E0
6.429721889E0	1.449235082E-1	-8.605310917E-1	1.206575990E0
6.438124910E0	2.823641598E-1	-8.947384953E-1	1.233453274E0
6.446527931E0	4.459185004E-1	-8.321266770E-1	1.311030984E0
6.454930951E0	4.701996744E-1	-7.521057129E-1	1.400672793E0
6.463333972E0	5.176930428E-1	-6.899519563E-1	1.443890214E0
6.471736993E0	5.699204803E-1	-5.981721878E-1	1.455343604E0
6.480140014E0	5.544965863E-1	-4.521796703E-1	1.442515850E0
6.488543035E0	4.837910235E-1	-2.881672084E-1	1.356997132E0
6.496946056E0	3.655920923E-1	-9.865183383E-2	1.147629261E0
6.505349076E0	2.826695740E-1	9.483403713E-2	8.779402375E-1
6.513752097E0	2.208212912E-1	2.212794125E-1	6.256603003E-1
6.522155118E0	1.255291104E-1	2.820587158E-1	3.811686933E-1
6.530558139E0	4.092676565E-2	1.919587553E-1	1.385096163E-1
6.538961160E0	1.618745178E-2	1.023169141E-2	-1.612636745E-1
6.547364181E0	-8.032641560E-2	-9.422318637E-2	-4.804313779E-1
6.555767201E0	-2.136438340E-1	-1.725643575E-1	-8.188407421E-1
6.564170222E0	-2.767138183E-1	-1.664558798E-1	-1.127165914E0
6.572573243E0	-3.165715933E-1	-7.238540053E-2	-1.355775476E0
6.580976264E0	-3.672719002E-1	9.926267713E-2	-1.595074892E0
6.589379285E0	-4.485146105E-1	3.205420971E-1	-1.878355265E0
6.597782306E0	-5.086830258E-1	5.447230339E-1	-2.159345150E0
6.606185326E0	-5.462501645E-1	7.401941419E-1	-2.398186445E0
6.614588347E0	-5.893148780E-1	8.799254894E-1	-2.591214180E0
6.622991368E0	-6.488724947E-1	9.515473247E-1	-2.744078636E0
6.631394389E0	-7.099572420E-1	9.579612017E-1	-2.781492949E0
6.639797410E0	-8.003626466E-1	7.963921428E-1	-2.726364136E0
6.648200431E0	-8.078454733E-1	6.087092757E-1	-2.646648407E0
6.656603451E0	-7.038487792E-1	1.307213157E-1	-2.453315258E0
6.665006472E0	-5.703786016E-1	-3.892624080E-1	-2.325648308E0
6.673409493E0	-6.051968932E-1	-5.890094638E-1	-1.913479090E0
6.681812514E0	-2.371614426E-1	-1.340351582E0	-2.115058601E-1
6.690215535E0	2.713688910E-1	-3.350802660E0	3.002161503E0
6.698618556E0	-5.740436912E-1	-3.837647915E0	2.950545073E0
6.707021576E0	-5.265503526E-1	-1.105633497E0	-7.902836204E-1
6.715424597E0	4.866925478E-1	2.108644724E0	-2.921682358E0
6.723827618E0	5.054761171E-1	3.413414478E0	-1.976549029E0
6.732230639E0	1.788255423E-1	3.791834354E0	4.245388508E-2
6.740633660E0	5.772506446E-2	3.216874361E0	1.173590302E0
6.749036681E0	-1.099525020E-2	1.743052602E0	7.661551833E-1
6.757439701E0	-1.626380831E-1	-3.286358118E-1	2.293731421E-1
6.765842722E0	-2.696890533E-1	-1.910730243E0	6.184828654E-2
6.774245743E0	-2.611372173E-1	-2.263799906E0	9.987352788E-2
6.782648764E0	-2.521272004E-1	-1.742594481E0	1.968455315E-1
6.791051785E0	-2.389939874E-1	-9.617789984E-1	2.915268540E-1
6.799454806E0	-1.753131598E-1	-2.287622988E-1	3.072561622E-1
6.807857826E0	-1.217113137E-1	2.802261710E-1	2.608317733E-1
6.816260847E0	-6.627693027E-2	5.005893111E-1	2.273878902E-1
6.824663868E0	1.160609815E-2	5.887040496E-1	2.128802687E-1
6.833066889E0	9.009996802E-2	6.195518374E-1	2.425063550E-1
6.841469910E0	1.059819981E-1	5.236487985E-1	3.161134422E-1
6.849872931E0	7.131642103E-2	3.013004065E-1	3.874298632E-1
6.858275951E0	3.985778242E-2	3.527642787E-2	4.170559645E-1
6.866678972E0	6.047387794E-2	-1.608055383E-1	4.170559645E-1
6.875081993E0	1.059819981E-1	-2.231119573E-1	4.387410581E-1
6.883485014E0	1.357607991E-1	-2.032594234E-1	4.654656053E-1
6.891888035E0	1.708845198E-1	-1.346918195E-1	4.647020400E-1
6.900291056E0	2.023431510E-1	-2.977880463E-2	4.523324072E-1
6.908694076E0	2.108950168E-1	2.718270384E-2	4.558447599E-1
6.917097097E0	2.018850148E-1	1.145338640E-2	4.537068009E-1
6.925500118E0	1.890572309E-1	-4.688252881E-2	4.311054647E-1
6.933903139E0	1.824906170E-1	-9.009996802E-2	4.146125913E-1
6.942306160E0	1.751604527E-1	-9.544488788E-2	4.159869850E-1
6.950709181E0	1.692046970E-1	-7.543963939E-2	4.213318825E-1
6.959112201E0	1.699682474E-1	-4.810422286E-2	4.181249440E-1
6.967515222E0	1.739387512E-1	-3.100049868E-2	4.178195298E-1
6.975918243E0	1.823379099E-1	-2.076880634E-2	4.248442650E-1
6.984321264E0	1.942494214E-1	-1.710372418E-2	4.474456310E-1
6.992724285E0	2.075353563E-1	-3.603998944E-2	4.905103445E-1
7.001127306E0	2.281514555E-1	-6.551336497E-2	5.444176197E-1
7.009530326E0	2.640387416E-1	-1.125486046E-1	5.940489769E-1
7.017933347E0	3.104631305E-1	-1.730224788E-1	6.302416325E-1
7.026336368E0	3.597890437E-1	-2.133384049E-1	6.151232123E-1
7.034739389E0	4.100312293E-1	-2.944283783E-1	5.871769190E-1
7.043142410E0	4.182776511E-1	-4.144598544E-1	5.990884304E-1
7.051545431E0	3.836120665E-1	-4.425588250E-1	6.529957056E-1
7.059948451E0	3.506263196E-1	-3.115321100E-1	7.238540053E-1
7.068351472E0	3.503209054E-1	-1.464506239E-1	8.249492049E-1
7.076754493E0	3.709369898E-1	-6.444438547E-2	8.985562921E-1
7.085157514E0	3.739912212E-1	-5.573981255E-2	9.184088707E-1
7.093560535E0	3.782671690E-1	2.351761982E-2	9.405520558E-1
7.101963556E0	4.078932703E-1	2.214321345E-1	1.013548255E0
7.110366576E0	4.309527278E-1	4.133908749E-1	1.149156451E0
7.118769597E0	4.292729199E-1	4.347705245E-1	1.281862974E0
7.127172618E0	5.161659122E-1	4.213318825E-1	1.197566032E0
7.135575639E0	6.175665855E-1	4.627167881E-1	1.183822036E0
7.143978660E0	6.236750484E-1	4.112529159E-1	1.254680276E0
7.152381681E0	6.056550741E-1	3.399364948E-1	1.306449533E0
7.160784701E0	5.665608048E-1	2.764083743E-1	1.308587551E0
7.169187722E0	5.105155706E-1	2.672456801E-1	1.231009960E0
7.177590743E0	4.100312293E-1	2.831276953E-1	1.075243831E0
7.185993764E0	2.933593988E-1	2.373141646E-1	8.687775135E-1
7.194396785E0	1.930277348E-1	1.096470803E-1	6.085565686E-1
7.202799806E0	8.674030751E-2	-3.512371797E-3	3.410054743E-1
7.211202826E0	-1.160609815E-2	-1.832541823E-1	1.562241912E-1
7.219605847E0	-9.483403713E-2	-3.620797098E-1	-9.529217333E-2
7.228008868E0	-2.044811249E-1	-3.915531039E-1	-3.550549746E-1
7.236411889E0	-3.568875194E-1	-2.861819267E-1	-6.583406329E-1
7.244814910E0	-4.199574888E-1	-1.748550236E-1	-1.002247691E0
7.253217931E0	-4.756973088E-1	6.566607859E-3	-1.317750216E0
7.261620951E0	-5.489989519E-1	2.087570578E-1	-1.575833201E0
7.270023972E0	-6.048914790E-1	3.585673273E-1	-1.802762985E0
7.278426993E0	-6.549809575E-1	4.402681589E-1	-2.003731728E0
7.286830014E0	-7.059867382E-1	5.172349215E-1	-2.208671093E0
7.295233035E0	-7.321004272E-1	6.152759194E-1	-2.380166292E0
7.303636056E0	-7.357655168E-1	6.804838181E-1	-2.485690117E0
7.312039076E0	-7.569924593E-1	6.575770974E-1	-2.550134659E0
7.320442097E0	-7.945595980E-1	5.880932212E-1	-2.619160414E0
7.328845118E0	-8.095253110E-1	4.955498278E-1	-2.675205469E0
7.337248139E0	-7.788302302E-1	3.013004065E-1	-2.658101797E0
7.345651160E0	-7.560762167E-1	-2.137965336E-2	-2.497448921E0
7.354054181E0	-5.937435627E-1	-5.410579443E-1	-1.594464064E0
7.362457201E0	-2.425063550E-1	-1.649287581E0	6.560499668E-1
7.370860222E0	-1.453816444E-1	-3.566126347E0	2.978033066E0
7.379263243E0	-4.468347728E-1	-3.475110054E0	1.736791492E0
7.387666264E0	-7.146912813E-2	-1.600419760E0	-3.753656447E-1
7.396069285E0	2.144073844E-1	6.826218367E-1	-1.111589313E0
7.404472306E0	4.230117202E-1	2.968870401E0	-1.151447058E0
7.412875326E0	1.838650256E-1	4.163382053E0	-2.200577259E-1
7.421278347E0	-1.198787764E-1	3.824514627E0	7.143858671E-1
7.429681368E0	-2.012741715E-1	2.593504667E0	6.896465421E-1
7.438084389E0	-1.594311297E-1	8.693883419E-1	2.809897363E-1
7.446487410E0	-2.009687424E-1	-8.596147895E-1	2.987042964E-1
7.454890431E0	-2.614426315E-1	-1.743816257E0	3.857500553E-1
7.463293451E0	-2.339545041E-1	-1.753742456E0	3.087832928E-1
7.471696472E0	-2.194468826E-1	-1.307518601E0	2.750339806E-1
7.480099493E0	-1.965401024E-1	-6.429167390E-1	3.179459870E-1
7.488502514E0	-1.188097894E-1	4.825693369E-2	3.104631305E-1
7.496905535E0	-2.275406010E-2	4.650074840E-1	2.890834510E-1
7.505308556E0	1.985253580E-2	4.708105326E-1	2.922904193E-1
7.513711576E0	1.939439960E-2	2.782409191E-1	2.744231224E-1
7.522114597E0	-6.413896102E-3	4.734066315E-3	2.521272004E-1
7.530517618E0	-3.542914242E-2	-2.498365343E-1	2.469350100E-1
7.538920639E0	-5.039490014E-2	-4.245388508E-1	2.327328026E-1
7.547323660E0	-4.871506989E-2	-4.874561131E-1	2.034121305E-1
7.555726681E0	-3.115320951E-2	-4.512633979E-1	1.814216375E-1
7.564129701E0	-4.886778072E-3	-3.727695346E-1	1.672194302E-1
7.572532722E0	1.603474095E-2	-3.249707520E-1	1.517955512E-1
7.580935743E0	2.886253223E-2	-2.988570333E-1	1.375933439E-1
7.589338764E0	3.191677108E-2	-2.794626355E-1	1.339282542E-1
7.597741785E0	2.825168520E-2	-2.993151546E-1	1.337755471E-1
7.606144806E0	2.580829710E-2	-3.049654961E-1	1.142284349E-1
7.614547826E0	3.665083647E-2	-2.767138183E-1	8.842013776E-2
7.622950847E0	5.024218559E-2	-2.289150059E-1	7.421794534E-2
7.631353868E0	5.818320066E-2	-2.043284029E-1	5.070032179E-2
7.639756889E0	5.971032009E-2	-1.973036677E-1	2.275406010E-2
7.648159910E0	5.314370990E-2	-1.846285909E-1	1.618745178E-2
7.656562931E0	4.779879749E-2	-1.760767251E-1	2.932066843E-2
7.664965951E0	4.856235534E-2	-1.699682474E-1	4.153761268E-2
7.673368972E0	6.077930331E-2	-1.664558798E-1	5.680879578E-2
7.681771993E0	8.032641560E-2	-1.525591016E-1	8.322793990E-2
7.690175014E0	1.018587798E-1	-1.374406368E-1	1.250709742E-1
7.698578035E0	1.226275861E-1	-1.197260618E-1	1.847812980E-1
7.706981056E0	1.453816444E-1	-1.015533581E-1	2.562504113E-1
7.715384076E0	1.808107942E-1	-8.078455180E-2	3.303156495E-1
7.723787097E0	2.254026383E-1	-7.467607409E-2	3.990359604E-1
7.732190118E0	2.715215981E-1	-7.482878864E-2	4.411844313E-1
7.740593139E0	3.144336343E-1	-1.287360638E-1	4.369085133E-1
7.748996160E0	3.521534503E-1	-2.564031482E-1	3.961344361E-1
7.757399181E0	3.428380191E-1	-3.917058110E-1	3.956763148E-1
7.765802201E0	2.919849753E-1	-4.373666346E-1	4.485146105E-1
7.774205222E0	2.553341687E-1	-3.921639323E-1	4.961606860E-1
7.782608243E0	2.472404242E-1	-3.843756318E-1	5.141806602E-1
7.791011264E0	2.391466945E-1	-4.579827189E-1	5.343386531E-1
7.799414285E0	2.313583940E-1	-5.361711979E-1	5.728220344E-1
7.807817306E0	2.177670449E-1	-5.807630420E-1	6.093201637E-1
7.816220326E0	2.145601064E-1	-6.190937161E-1	6.476507783E-1
7.824623347E0	1.531699449E-1	-6.742226481E-1	6.978929639E-1
7.833026368E0	1.921114624E-1	-8.115105629E-1	7.379034758E-1
7.841429389E0	2.751866877E-1	-8.009734750E-1	7.950177193E-1
7.849832410E0	2.996205688E-1	-6.963658929E-1	8.974873424E-1
7.858235431E0	3.658975065E-1	-5.241069198E-1	1.002858520E0
7.866638451E0	4.268295169E-1	-2.903051674E-1	1.102426648E0
7.875041472E0	4.984513521E-1	-3.970507160E-2	1.164122105E0
7.883444493E0	5.734328628E-1	2.099787444E-1	1.198940516E0
7.891847514E0	6.429167390E-1	4.001049399E-1	1.223527074E0
7.900250535E0	6.867450476E-1	4.842491746E-1	1.238798261E0
7.908653556E0	6.951441765E-1	4.781406820E-1	1.248266339E0
7.917056576E0	6.623111367E-1	4.332434237E-1	1.265980959E0
7.925459597E0	5.932853818E-1	4.100312293E-1	1.262773991E0
7.933862618E0	5.050179958E-1	4.062134326E-1	1.184585571E0
7.942265639E0	4.089622498E-1	3.698680103E-1	1.027597785E0
7.950668660E0	3.132119179E-1	2.693836391E-1	8.006680608E-1
7.959071681E0	2.293731421E-1	1.672194302E-1	4.999784827E-1
7.967474701E0	1.484358907E-1	1.354553849E-1	1.927223057E-1
7.975877722E0	7.207997888E-2	1.291942000E-1	-4.520269856E-2
7.984280743E0	-4.504998401E-2	1.049130186E-1	-2.788517773E-1
7.992683764E0	-1.591257155E-1	8.796200156E-2	-5.913001299E-1
8.001086785E0	-2.545706034E-1	9.651386738E-2	-9.422318935E-1
8.009489806E0	-3.352024257E-1	1.910424829E-1	-1.291178346E0
8.017892826E0	-3.933856487E-1	3.342861533E-1	-1.618439794E0
8.026295847E0	-4.340069890E-1	4.031592011E-1	-1.926001430E0
8.034698868E0	-4.789042473E-1	4.228590131E-1	-2.212641478E0
8.043101889E0	-5.656445622E-1	3.984251320E-1	-2.465379477E0
8.051504910E0	-6.609367132E-1	3.938437700E-1	-2.706053257E0
8.059907931E0	-7.482879162E-1	4.517215490E-1	-2.906258583E0
8.068310951E0	-8.367080092E-1	5.470137000E-1	-3.028886080E0
8.076713972E0	-9.463551044E-1	5.404471159E-1	-3.015753031E0
8.085116993E0	-1.003622055E0	4.482091665E-1	-2.935273886E0
8.093520014E0	-9.436063170E-1	3.715478480E-1	-2.849297047E0
8.101923035E0	-8.014315963E-1	2.860292196E-1	-2.734763145E0
8.110326056E0	-7.722636461E-1	7.956285775E-2	-2.339086771E0
8.118729076E0	-6.745280623E-1	-4.008685052E-1	-1.443584800E0
8.127132097E0	-9.559759498E-2	-1.372421026E0	3.504736125E-1
8.135535118E0	1.603474095E-2	-2.471487999E0	2.005106211E0
8.143938139E0	-1.285833418E-1	-2.282430887E0	1.262163162E0
8.152341160E0	1.504211426E-1	-1.158166409E0	-6.108472589E-3
8.160744181E0	1.950129867E-1	3.361186981E-1	-5.421269536E-1
8.169147201E0	2.559449971E-1	2.184237003E0	-9.000834227E-1
8.177550222E0	1.666085869E-1	3.352940559E0	-4.289674759E-1
8.185953243E0	-1.353026628E-1	3.117306232E0	5.887040496E-1
8.194356264E0	-2.843494117E-1	1.938065648E0	8.034168482E-1
8.202759285E0	-1.924168915E-1	6.404733658E-1	3.761292100E-1
8.211162306E0	-1.307213157E-1	-5.942016840E-1	1.779092699E-1
8.219565326E0	-1.853921413E-1	-1.454885483E0	3.153499067E-1
8.227968347E0	-1.653869003E-1	-1.528034449E0	3.115321100E-1
8.236371368E0	-1.327065676E-1	-1.173590302E0	2.559449971E-1
8.244774389E0	-1.643179059E-1	-6.681141853E-1	3.116848171E-1
8.253177410E0	-1.638597846E-1	-1.563768983E-1	3.778090179E-1
8.261580431E0	-1.094943732E-1	2.557922900E-1	3.477247953E-1
8.269983451E0	-4.978405312E-2	4.098785222E-1	3.089359999E-1
8.278386472E0	2.443389036E-3	4.086568058E-1	3.009949923E-1
8.286789493E0	-2.443389036E-3	3.300102353E-1	3.671191931E-1
8.295192514E0	-5.482354015E-2	8.826743066E-2	4.631749392E-1
8.303595535E0	-9.620844573E-2	-2.212794125E-1	4.760027230E-1
8.311998556E0	-1.017060652E-1	-3.910949528E-1	4.251496792E-1
8.320401576E0	-6.322269142E-2	-3.512371778E-1	4.051444530E-1
8.328804597E0	-8.857285604E-3	-1.856975704E-1	4.020902216E-1
8.337207618E0	4.504998401E-2	-2.305948362E-2	3.970507085E-1
8.345610639E0	7.345438004E-2	4.428642616E-2	3.894151151E-1
8.354013660E0	7.818844914E-2	3.833066672E-2	3.866663277E-1
8.362416681E0	7.437065244E-2	-1.786728203E-2	3.859027624E-1
8.370819701E0	7.666133344E-2	-6.673506647E-2	3.617742956E-1
8.379222722E0	8.994726092E-2	-6.123743951E-2	3.272614181E-1
8.387625743E0	1.146865711E-1	-1.527118124E-2	3.008422852E-1
8.396028764E0	1.365243644E-1	3.344388679E-2	2.819060087E-1
8.404431785E0	1.479777545E-1	4.230117425E-2	2.632751763E-1
8.412834806E0	1.472141892E-1	1.374406368E-2	2.341072112E-1
8.421237826E0	1.450762302E-1	-1.084253844E-2	2.011214644E-1
8.429640847E0	1.511846930E-1	-9.773556143E-3	1.817270666E-1
8.438043868E0	1.499630064E-1	-1.863084175E-2	1.841704547E-1
8.446446889E0	1.491994411E-1	-5.665608495E-2	1.763821393E-1
8.454849910E0	1.557660550E-1	-1.130067408E-1	1.740914732E-1
8.463252931E0	1.687465608E-1	-1.472141892E-1	1.879882365E-1
8.471655951E0	1.803526580E-1	-1.811162084E-1	2.151709497E-1
8.480058972E0	1.962346882E-1	-2.166980654E-1	2.435753495E-1
8.488461993E0	2.131856978E-1	-2.388412803E-1	2.765611112E-1
8.496865014E0	2.385358512E-1	-2.321219593E-1	3.185568452E-1
8.505268035E0	2.669402659E-1	-1.997470558E-1	3.658975065E-1
8.513671056E0	2.925958335E-1	-1.661504507E-1	4.173613787E-1
8.522074076E0	3.239017725E-1	-1.687465608E-1	4.755446017E-1
8.530477097E0	3.414636254E-1	-2.336490750E-1	5.219689608E-1
8.538880118E0	3.353551328E-1	-3.362714052E-1	5.877877474E-1
8.547283139E0	3.335226178E-1	-4.019374847E-1	6.659762263E-1
8.555686160E0	3.466558158E-1	-4.347705245E-1	7.624900937E-1
8.564089181E0	3.532224298E-1	-4.474456310E-1	8.913788795E-1
8.572492201E0	3.475720882E-1	-4.251496792E-1	1.048672080E0
8.580895222E0	3.058817685E-1	-3.686463237E-1	1.254222155E0
8.589298243E0	3.837648034E-1	-3.413109183E-1	1.349208832E0
8.597701264E0	4.735593498E-1	-2.492256761E-1	1.475959659E0
8.606104285E0	5.010474920E-1	-2.444916219E-1	1.651883721E0
8.614507306E0	5.913001299E-1	-2.075353563E-1	1.764432311E0
8.622910326E0	6.936170459E-1	-1.408002973E-1	1.830709219E0
8.631313347E0	8.145648241E-1	-5.894676223E-2	1.842620730E0
8.639716368E0	9.051229358E-1	5.772506446E-2	1.832847238E0
8.648119389E0	9.484930634E-1	2.159345001E-1	1.814063668E0
8.656522410E0	9.501729012E-1	3.947600424E-1	1.740914702E0
8.664925431E0	8.974873424E-1	5.296045542E-1	1.603932142E0
8.673328451E0	8.167027831E-1	6.456655264E-1	1.401283622E0
8.681731472E0	7.023216486E-1	7.313368917E-1	1.159846187E0
8.690134493E0	5.711421967E-1	7.707365155E-1	8.240329623E-1
8.698537514E0	4.596625566E-1	7.392778993E-1	4.120164812E-1
8.706940535E0	3.593308926E-1	5.945070982E-1	7.177455351E-3
8.715343556E0	2.356343269E-1	4.222481549E-1	-3.249707520E-1
8.723746576E0	-2.137965523E-3	2.260134816E-1	-6.597150564E-1
8.732149597E0	-1.873773932E-1	-3.359660041E-3	-1.123348117E0
8.740552618E0	-3.200839758E-1	1.328592747E-2	-1.547734261E0
8.748955639E0	-4.535540938E-1	1.420219839E-1	-1.895000935E0
8.757358660E0	-5.624375939E-1	3.498627543E-1	-2.238144398E0
8.765761681E0	-6.693359017E-1	6.114581227E-1	-2.597322464E0
8.774164701E0	-7.472189069E-1	8.962656260E-1	-2.932677746E0
8.782567722E0	-8.138012886E-1	1.134037971E0	-3.216110706E0
8.790970743E0	-8.953493834E-1	1.292247415E0	-3.472972155E0
8.799373764E0	-9.599464536E-1	1.297134161E0	-3.660502195E0
8.807776785E0	-1.047755718E0	1.120141149E0	-3.740828514E0
8.816179806E0	-1.167329073E0	7.769976854E-1	-3.711508036E0
8.824582826E0	-1.222763538E0	1.585148573E-1	-3.496947765E0
8.832985847E0	-1.120446563E0	-7.456917763E-1	-3.154873371E0
8.841388868E0	-9.637642503E-1	-1.691741467E0	-2.452551842E0
8.849791889E0	-4.457657933E-1	-2.937717199E0	-3.956763148E-1
8.858194910E0	2.768665254E-1	-5.353465557E0	3.368517160E0
8.866597931E0	-9.339854717E-1	-5.367056847E0	2.892361879E0
8.875000951E0	-5.573981404E-1	-1.591715217E0	-1.499477267E0
8.883403972E0	7.142331600E-1	2.513330936E0	-3.555130959E0
8.891806993E0	3.338280320E-1	4.304640770E0	-1.666085839E0
8.900210014E0	-2.040229887E-1	4.884945393E0	6.882721782E-1
8.908613035E0	-1.043021679E-1	4.310901642E0	1.111589313E0
8.917016056E0	-5.192201585E-3	2.723462582E0	2.609844804E-1
8.925419076E0	-1.560714692E-1	9.849911928E-2	-8.353336155E-2
8.933822097E0	-2.748812735E-1	-1.954711199E0	4.795150831E-2
8.942225118E0	-2.461714447E-1	-2.366575003E0	9.009996802E-2
8.950628139E0	-1.956238300E-1	-1.980824947E0	1.236965731E-1
8.959031160E0	-2.266243398E-1	-1.409835458E0	2.345653474E-1
8.967434181E0	-2.606790662E-1	-7.479824424E-1	2.452551723E-1
8.975837201E0	-1.838650256E-1	-4.932591692E-2	8.414421231E-2
8.984240222E0	-3.451287001E-2	5.053234100E-1	-5.039490014E-2
8.992643243E0	7.742489129E-2	8.945857882E-1	-7.635590434E-2
9.001046264E0	1.163664013E-1	1.101968408E0	-1.908897609E-2
9.009449285E0	9.055810422E-2	9.856020808E-1	6.978929788E-2
9.017852306E0	1.954711229E-2	5.804576278E-1	1.227803007E-1
9.026255326E0	-3.802524135E-2	5.986303091E-2	1.287360638E-1
9.034658347E0	-5.024218559E-2	-3.350497186E-1	1.275143623E-1
9.043061368E0	-3.359659761E-2	-5.335750580E-1	1.600419879E-1
9.051464389E0	-6.719320081E-3	-5.798467398E-1	1.907370538E-1
9.059867410E0	2.229592577E-2	-5.222744346E-1	2.005106062E-1
9.068270431E0	6.245913357E-2	-3.684936166E-1	2.023431510E-1
9.076673451E0	1.070509851E-1	-1.928750277E-1	2.228065431E-1
9.085076472E0	1.324011385E-1	-8.918370306E-2	2.539597452E-1
9.093479493E0	1.414111406E-1	-8.078455180E-2	2.657185495E-1
9.101882514E0	1.484358907E-1	-1.134648770E-1	2.586938143E-1
9.110285535E0	1.603474021E-1	-1.221694499E-1	2.617480457E-1
9.118688556E0	1.690519750E-1	-1.249182671E-1	2.718270421E-1
9.127091576E0	1.721062213E-1	-1.290414780E-1	2.666348219E-1
9.135494597E0	1.672194302E-1	-1.353026628E-1	2.640387416E-1
9.143897618E0	1.618745178E-1	-1.317902952E-1	2.661767006E-1
9.152300639E0	1.588202864E-1	-1.134648770E-1	2.759502530E-1
9.160703660E0	1.646233350E-1	-9.132166207E-2	2.855710983E-1
9.169106681E0	1.768402755E-1	-7.345438004E-2	2.959555089E-1
9.177509701E0	1.896680743E-1	-6.551336497E-2	3.203893900E-1
9.185912722E0	1.986780763E-1	-6.322269142E-2	3.585673273E-1
9.194315743E0	2.041756958E-1	-5.726693198E-2	4.081986845E-1
9.202718764E0	2.144073844E-1	-3.512371704E-2	4.668400288E-1
9.211121785E0	2.310529798E-1	6.261184346E-3	5.315898061E-1
9.219524806E0	2.611372173E-1	5.405998230E-2	5.971031785E-1
9.227927826E0	2.942756712E-1	9.544488788E-2	6.624638438E-1
9.236330847E0	3.324536085E-1	7.757759839E-2	7.044596076E-1
9.244733868E0	3.909422457E-1	-1.954711229E-2	7.180509567E-1
9.253136889E0	3.840702176E-1	-2.018850148E-1	7.580614686E-1
9.261539910E0	3.264978528E-1	-4.208737612E-1	8.478559852E-1
9.269942931E0	2.814478874E-1	-5.253286362E-1	9.559759498E-1
9.278345951E0	2.638860047E-1	-5.457920432E-1	1.079672575E0
9.286748972E0	2.417428046E-1	-6.352811456E-1	1.185349107E0
9.295151993E0	1.682884246E-1	-7.742488980E-1	1.276365399E0
9.303555014E0	1.985253543E-1	-1.007897973E0	1.256665468E0
9.311958035E0	3.203893900E-1	-9.529217482E-1	1.273005724E0
9.320361056E0	3.109212518E-1	-9.014578462E-1	1.441446781E0
9.328764076E0	3.771981895E-1	-8.316685557E-1	1.559493065E0
9.337167097E0	4.934118688E-1	-6.823163629E-1	1.613858461E0
9.345570118E0	6.184828281E-1	-5.221216679E-1	1.632336617E0
9.353973139E0	7.162184119E-1	-3.313846290E-1	1.631114841E0
9.362376160E0	7.437065244E-1	-1.521009654E-1	1.639208674E0
9.370779181E0	7.253811359E-1	-2.489202656E-2	1.604543090E0
9.379182201E0	6.445965767E-1	7.818844914E-2	1.508029222E0
9.387585222E0	5.189147592E-1	1.530172378E-1	1.364632726E0
9.395988243E0	3.941491842E-1	2.116585821E-1	1.171757698E0
9.404391264E0	2.982461751E-1	2.423536479E-1	9.173398614E-1
9.412794285E0	2.284568697E-1	1.918060333E-1	6.009209752E-1
9.421197306E0	1.714953631E-1	5.665608495E-2	2.756448388E-1
9.429600326E0	1.151447073E-1	-1.426328421E-1	1.878355257E-2
9.438003347E0	-3.497100621E-2	-3.631486893E-1	-2.429644912E-1
9.446406368E0	-2.108950168E-1	-5.370874405E-1	-6.048914790E-1
9.454809389E0	-3.081724346E-1	-6.325323582E-1	-9.558232427E-1
9.463212410E0	-3.944546282E-1	-5.693096519E-1	-1.274685502E0
9.471615431E0	-4.964661002E-1	-4.039227366E-1	-1.614469290E0
9.480018451E0	-5.816792846E-1	-2.107423097E-1	-1.980977654E0
9.488421472E0	-6.523848772E-1	4.734066315E-3	-2.321066856E0
9.496824493E0	-7.049177289E-1	2.070772201E-1	-2.584952831E0
9.505227514E0	-7.844805717E-1	3.854446113E-1	-2.815242290E0
9.513630535E0	-8.785510659E-1	5.664080977E-1	-3.042324781E0
9.522033556E0	-9.625425935E-1	7.985301018E-1	-3.243446350E0
9.530436576E0	-1.033553600E0	1.100899458E0	-3.385926247E0
9.538839597E0	-1.104259133E0	1.449540496E0	-3.475568295E0
9.547242618E0	-1.168092728E0	1.852241635E0	-3.506263256E0
9.555645639E0	-1.180920482E0	2.199050188E0	-3.409138441E0
9.564048660E0	-1.040272832E0	2.240893126E0	-3.090429068E0
9.572451681E0	-7.569924593E-1	1.624548316E0	-2.766221762E0
9.580854701E0	-4.219427407E-1	1.083184958E0	-2.612746477E0
9.589257722E0	-3.958290219E-1	4.283566475E-1	-1.939440012E0
9.597660743E0	-2.428117841E-1	-8.197570443E-1	-8.047912717E-1
9.606063764E0	7.941014133E-3	-2.044353008E0	4.161396921E-1
9.614466785E0	5.253286287E-2	-2.700708389E0	1.304464340E0
9.622869806E0	-1.270562261E-1	-2.558839083E0	1.355775476E0
9.631272826E0	-3.906368315E-1	-8.913788795E-1	4.779879749E-2
9.639675847E0	1.351499557E-1	1.713732004E0	-1.425106645E0
9.648078868E0	2.983988822E-1	3.419828415E0	-1.044701576E0
9.656481889E0	6.826218218E-2	3.540623426E0	6.354338527E-1
9.664884910E0	-3.268032894E-2	2.336338043E0	1.268729806E0
9.673287931E0	-5.741964281E-2	6.786513329E-1	6.146650314E-1
9.681690951E0	-1.661504507E-1	-7.676823139E-1	7.299624383E-2
9.690093972E0	-2.506000996E-1	-1.555522561E0	5.085303262E-2
9.698496993E0	-2.257080674E-1	-1.417012930E0	1.704263836E-1
9.706900014E0	-2.151709497E-1	-8.973346353E-1	2.313583940E-1
9.715303035E0	-2.567085624E-1	-4.596625566E-1	2.309002578E-1
9.723706056E0	-2.392994165E-1	-9.223793447E-2	1.481304616E-1
9.732109076E0	-1.510319859E-1	2.718270421E-1	1.081199646E-1
9.740512097E0	-9.284878522E-2	4.666872919E-1	2.047865391E-1
9.748915118E0	-6.398624927E-2	4.932591617E-1	2.987042964E-1
9.757318139E0	-4.443913698E-2	3.490992188E-1	3.257342875E-1
9.765721160E0	-4.123219103E-2	1.049130186E-1	3.211529553E-1
9.774124181E0	-3.222219273E-2	-1.070509851E-1	3.164188862E-1
9.782527201E0	-8.551862091E-3	-2.221956849E-1	3.229855001E-1
9.790930222E0	2.321219631E-2	-2.641914487E-1	3.423798978E-1
9.799333243E0	5.741964281E-2	-2.773246467E-1	3.399364948E-1
9.807736264E0	8.750387281E-2	-2.626643181E-1	3.188622594E-1
9.816139285E0	1.165191159E-1	-2.150182426E-1	2.932066917E-1
9.824542306E0	1.377460510E-1	-1.430909634E-1	2.803788781E-1
9.832945326E0	1.391204596E-1	-1.041494608E-1	2.791571915E-1
9.841348347E0	1.328592747E-1	-1.010952219E-1	2.785463631E-1
9.849751368E0	1.349972486E-1	-1.000262350E-1	2.765611112E-1
9.858154389E0	1.392731816E-1	-1.056765765E-1	2.825168669E-1
9.866557410E0	1.372879148E-1	-1.256818175E-1	2.739650011E-1
9.874960431E0	1.357607991E-1	-1.320957243E-1	2.541124523E-1
9.883363451E0	1.327065676E-1	-1.209477559E-1	2.400629669E-1
9.891766472E0	1.298050433E-1	-1.061347127E-1	2.350234836E-1
9.900169493E0	1.281252056E-1	-1.006370857E-1	2.394521236E-1
9.908572514E0	1.247655526E-1	-1.041494608E-1	2.605263591E-1
9.916975535E0	1.362189353E-1	-1.020114943E-1	2.932066917E-1
9.925378556E0	1.617218107E-1	-8.918370306E-2	3.307738006E-1
9.933781576E0	1.919587553E-1	-7.620319724E-2	3.765873313E-1
9.942184597E0	2.220429778E-1	-6.841489673E-2	4.314108789E-1
9.950587618E0	2.535016239E-1	-7.589777559E-2	5.039489865E-1
9.958990639E0	2.799207568E-1	-9.132166207E-2	5.897729993E-1
9.967393660E0	3.086305857E-1	-1.110214889E-1	6.856760383E-1
9.975796681E0	3.429907262E-1	-1.317902952E-1	7.708892226E-1
9.984199701E0	3.826957941E-1	-1.556133330E-1	8.473978639E-1
9.992602722E0	4.236225784E-1	-1.953184158E-1	9.093988538E-1
1.000100574E1	4.636330605E-1	-2.570139766E-1	9.581139088E-1
1.000940876E1	4.755446017E-1	-3.469612300E-1	1.003469348E0
1.001781179E1	4.479037523E-1	-4.766135812E-1	1.069898963E0
1.002621481E1	3.985778391E-1	-6.140542030E-1	1.143200636E0
1.003461783E1	3.348970115E-1	-7.572978735E-1	1.235896707E0
1.004302085E1	2.912214398E-1	-8.846595287E-1	1.316833973E0
1.005142387E1	2.234173864E-1	-9.584193230E-1	1.397313118E0
1.005982689E1	1.553079188E-1	-1.021183848E0	1.511999726E0
1.006822991E1	3.429907262E-1	-8.852704167E-1	1.492452621E0
1.007663293E1	4.550811946E-1	-5.923691392E-1	1.583163381E0
1.008503595E1	4.883723855E-1	-4.304946065E-1	1.714342833E0
1.009343897E1	5.706840754E-1	-2.961082160E-1	1.753437042E0
1.010184199E1	6.810947061E-1	-1.389677525E-1	1.744885206E0
1.011024501E1	7.907418013E-1	4.795150831E-2	1.709303379E0
1.011864804E1	8.603783846E-1	2.675510943E-1	1.661962628E0
1.012705106E1	8.524373770E-1	4.798205197E-1	1.618134379E0
1.013545408E1	7.953231335E-1	6.814001203E-1	1.515359282E0
1.014385710E1	7.195780873E-1	8.307522535E-1	1.361120462E0
1.015226012E1	6.366555691E-1	8.991671801E-1	1.186723471E0
1.016066314E1	5.306735635E-1	8.435800672E-1	9.857547879E-1
1.016906616E1	4.182776511E-1	7.324058414E-1	6.730009913E-1
1.017746918E1	3.668137789E-1	6.326850653E-1	2.774773538E-1
1.018587220E1	3.286358118E-1	5.105155706E-1	-1.145338640E-2
1.019427522E1	1.977618039E-1	3.321481943E-1	-2.263189107E-1
1.020267824E1	-3.100049868E-2	1.093416587E-1	-5.657972693E-1
1.021108126E1	-1.557660550E-1	-9.544488788E-2	-9.784246087E-1
1.021948428E1	-2.431172132E-1	-1.291942000E-1	-1.329509020E0
1.022788731E1	-3.623851240E-1	-3.100049868E-2	-1.666391373E0
1.023629033E1	-4.584408700E-1	1.316375881E-1	-2.004953384E0
1.024469335E1	-5.439594984E-1	3.260397315E-1	-2.335268974E0
1.025309637E1	-6.242858768E-1	5.114318728E-1	-2.626490593E0
1.026149939E1	-7.136223316E-1	6.757497787E-1	-2.874952555E0
1.026990241E1	-8.261709213E-1	8.364025950E-1	-3.085695028E0
1.027830543E1	-9.294040799E-1	1.041341901E0	-3.266658545E0
1.028670845E1	-9.982771277E-1	1.288735032E0	-3.384246588E0
1.029511147E1	-1.061194420E0	1.471072912E0	-3.422424555E0
1.030351449E1	-1.101968408E0	1.525285602E0	-3.407916784E0
1.031191751E1	-1.111131191E0	1.412737012E0	-3.319038630E0
1.032032054E1	-1.072953224E0	1.002094984E0	-2.984752417E0
1.032872356E1	-7.875348330E-1	5.879404768E-2	-1.948450089E0
1.033712658E1	-3.261924386E-1	-1.689908981E0	2.405211031E-1
1.034552960E1	-7.253811508E-2	-3.851086617E0	2.345195293E0
1.035393262E1	-3.808632791E-1	-4.299753666E0	2.032288790E0
1.036233564E1	-3.468085229E-1	-2.488286257E0	2.225011140E-1
1.037073866E1	1.482831687E-1	5.025745630E-1	-1.210699320E0
1.037914168E1	5.138752460E-1	3.276126623E0	-1.368908763E0
1.038754470E1	2.014268786E-1	4.650380135E0	1.855448484E-1
1.039594772E1	-7.620319724E-2	3.923624754E0	1.334243178E0
1.040435074E1	-1.023169160E-1	2.138576269E0	9.231429100E-1
1.041275376E1	-1.988307834E-1	1.404948719E-2	2.345653474E-1
1.042115678E1	-3.700207174E-1	-1.557660460E0	3.817795217E-2
1.042955981E1	-3.452814221E-1	-1.725643516E0	1.012479365E-1
1.043796283E1	-2.802261710E-1	-1.259719729E0	2.197522968E-1
1.044636585E1	-2.777827978E-1	-7.360709310E-1	3.078670204E-1
1.045476887E1	-2.377723008E-1	-2.151709497E-1	2.342599183E-1
1.046317189E1	-1.687465608E-1	3.057290614E-1	1.368297935E-1
1.047157491E1	-7.223268598E-2	6.093201637E-1	1.644706279E-1
1.047997793E1	-3.054236248E-2	6.507050395E-1	2.302894145E-1
1.048838095E1	-2.886253223E-2	4.731011987E-1	2.394521236E-1
1.049678397E1	-3.573456407E-2	1.966928244E-1	2.415900975E-1
1.050518699E1	-4.489727318E-2	-7.330167294E-2	2.292204350E-1
1.051359001E1	-3.542914242E-2	-2.673983872E-1	2.026485801E-1
1.052199304E1	-2.687728032E-2	-3.407000601E-1	1.954711229E-1
1.053039606E1	-1.328592747E-2	-3.188622594E-1	2.006633282E-1
1.053879908E1	1.175880991E-2	-2.670929730E-1	2.058555335E-1
1.054720210E1	2.962609194E-2	-2.141019702E-1	2.050919682E-1
1.055560512E1	4.489727318E-2	-2.011214644E-1	2.159345001E-1
1.056400814E1	5.253286287E-2	-2.186833173E-1	2.228065431E-1
1.057241116E1	5.192201585E-2	-2.556395829E-1	2.225011140E-1
1.058081418E1	5.360184610E-2	-2.901524603E-1	2.229592502E-1
1.058921720E1	5.726693198E-2	-3.165715933E-1	2.244863659E-1
1.059762022E1	6.368082762E-2	-3.304683566E-1	2.209739983E-1
1.060602324E1	7.040014863E-2	-3.347443044E-1	2.136438340E-1
1.061442626E1	8.338065445E-2	-2.951919436E-1	2.099787444E-1
1.062282928E1	9.910997003E-2	-2.284568697E-1	2.084516287E-1
1.063123231E1	1.206423342E-1	-1.536280811E-1	2.185306102E-1
1.063963533E1	1.417165697E-1	-9.422318637E-2	2.322746664E-1
1.064803835E1	1.517955512E-1	-6.780404598E-2	2.548760176E-1
1.065644137E1	1.588202864E-1	-8.047912270E-2	2.835858464E-1
1.066484439E1	1.649287641E-1	-9.834641218E-2	3.182514310E-1
1.067324741E1	1.708845198E-1	-1.198787764E-1	3.657447994E-1
1.068165043E1	1.823379099E-1	-1.391204596E-1	4.196520746E-1
1.069005345E1	1.974563748E-1	-1.453816444E-1	4.782933891E-1
1.069845647E1	2.046338320E-1	-1.487413049E-1	5.477772951E-1
1.070685949E1	2.189887464E-1	-1.491994411E-1	6.213843822E-1
1.071526251E1	2.353289127E-1	-1.527118087E-1	7.004891038E-1
1.072366554E1	2.611372173E-1	-1.736333370E-1	7.850914598E-1
1.073206856E1	2.927485406E-1	-2.136438340E-1	8.661814332E-1
1.074047158E1	3.064926267E-1	-2.921377122E-1	9.400939345E-1
1.074887460E1	3.492519259E-1	-4.077405334E-1	1.002400398E0
1.075727762E1	3.788780272E-1	-5.213581324E-1	1.066233873E0
1.076568064E1	3.315373361E-1	-7.557707429E-1	1.167329073E0
1.077408366E1	2.148655206E-1	-9.393303990E-1	1.263995647E0
1.078248668E1	1.249182671E-1	-1.026834249E0	1.348750710E0
1.079088970E1	2.226538211E-1	-1.079977989E0	1.375780702E0
1.079929272E1	2.252499312E-1	-1.201994658E0	1.450762272E0
1.080769574E1	2.302894145E-1	-1.426786542E0	1.529103398E0
1.081609876E1	2.730487287E-1	-1.559187651E0	1.599045396E0
1.082450178E1	3.668137789E-1	-1.487565756E0	1.719382286E0
1.083290481E1	5.129590034E-1	-1.183363795E0	1.822768211E0
1.084130783E1	6.911736727E-1	-7.933378816E-1	1.877439022E0
1.084971085E1	8.701519370E-1	-5.404471159E-1	1.879271626E0
1.085811387E1	9.817842841E-1	-3.619270027E-1	1.819408536E0
1.086651689E1	1.016755223E0	-2.431172132E-1	1.752978921E0
1.087491991E1	1.012632012E0	-1.765348613E-1	1.686702013E0
1.088332293E1	9.752176404E-1	-6.230641901E-2	1.610804200E0
1.089172595E1	9.060391784E-1	1.328592747E-1	1.549872160E0
1.090012897E1	8.189934492E-1	4.162923992E-1	1.465422630E0
1.090853199E1	7.351546884E-1	6.928535104E-1	1.301562786E0
1.091693501E1	6.030589342E-1	8.693883419E-1	1.019656777E0
1.092533804E1	4.883723855E-1	9.950701594E-1	5.775560737E-1
1.093374106E1	4.523324072E-1	9.652913809E-1	1.553079188E-1
1.094214408E1	3.822376728E-1	7.020162344E-1	-1.293469071E-1
1.095054710E1	2.336490750E-1	3.765873313E-1	-3.837648034E-1
1.095895012E1	5.161659420E-2	5.161659420E-2	-6.832326651E-1
1.096735314E1	-1.152974218E-1	-2.376195788E-1	-1.055544019E0
1.097575616E1	-2.370087355E-1	-3.545968235E-1	-1.427855492E0
1.098415918E1	-3.269560039E-1	-2.756448388E-1	-1.782452345E0
1.099256220E1	-4.097257853E-1	-1.047603041E-1	-2.122388840E0
1.100096522E1	-5.031854510E-1	6.474980712E-2	-2.453009844E0
1.100936824E1	-6.082511544E-1	2.429644912E-1	-2.797680378E0
1.101777126E1	-6.985038519E-1	4.219427407E-1	-3.119902372E0
1.102617429E1	-7.756233215E-1	5.714476109E-1	-3.391576767E0
1.103457731E1	-8.631271720E-1	6.671979427E-1	-3.620033503E0
1.104298033E1	-9.691091776E-1	7.204943299E-1	-3.821918488E0
1.105138335E1	-1.093874693E0	7.896727920E-1	-3.991886854E0
1.105978637E1	-1.223221660E0	8.797727823E-1	-4.076336384E0
1.106818939E1	-1.377002478E0	9.365815520E-1	-4.093898296E0
1.107659241E1	-1.565907001E0	9.578084946E-1	-3.965314865E0
1.108499543E1	-1.648218632E0	6.930062175E-1	-3.556200027E0
1.109339845E1	-1.488329291E0	2.076880634E-1	-3.058206797E0
1.110180147E1	-1.252542257E0	-4.123218954E-1	-2.352983713E0
1.111020449E1	-8.893936276E-1	-1.614621997E0	-1.143200636E0
1.111860751E1	-1.736333370E-1	-3.376305580E0	6.281036735E-1
1.112701054E1	-1.612636745E-1	-4.408179283E0	1.581941724E0
1.113541356E1	-1.847812980E-1	-3.747547865E0	1.013395548E0
1.114381658E1	-2.654131353E-1	-1.608971715E0	2.550287358E-2
1.115221960E1	-9.559759498E-2	1.226123214E0	-1.048824787E0
1.116062262E1	1.264453828E-1	3.478469610E0	-9.943066239E-1
1.116902564E1	-2.886253223E-2	4.321438789E0	3.370349705E-1
1.117742866E1	-1.288887709E-1	3.738690615E0	1.090820551E0
1.118583168E1	6.551336497E-2	2.465074062E0	6.288672686E-1
1.119423470E1	1.288887709E-1	7.398887277E-1	1.818797737E-1
1.120263772E1	-5.161659420E-2	-1.034011722E0	2.357870489E-1
1.121104074E1	-2.067717910E-1	-1.777565479E0	2.938175201E-1
1.121944376E1	-3.113794029E-1	-1.715717196E0	2.263189107E-1
1.122784678E1	-3.507790267E-1	-1.304464340E0	2.272351831E-1
1.123624981E1	-2.591519356E-1	-6.743753552E-1	2.082989216E-1
1.124465283E1	-1.279724985E-1	1.247655526E-1	9.636115283E-2
1.125305585E1	-1.374406274E-3	7.440119386E-1	5.512896553E-2
1.126145887E1	5.940489471E-2	9.819369912E-1	9.956810623E-2
1.126986189E1	1.756185852E-2	9.301676750E-1	1.140757278E-1
1.127826491E1	-4.107947648E-2	6.407787800E-1	1.136175916E-1
1.128666793E1	-8.368607610E-2	2.221956849E-1	9.147437662E-2
1.129507095E1	-9.101624042E-2	-1.345391124E-1	4.566083103E-2
1.130347397E1	-7.834116369E-2	-3.529170156E-1	4.230117425E-2
1.131187699E1	-6.413896382E-2	-4.618005157E-1	6.352811307E-2
1.132028001E1	-3.680354729E-2	-4.842491746E-1	7.284353673E-2
1.132868304E1	-1.389677543E-2	-4.511106908E-1	7.543963939E-2
1.133708606E1	1.267508045E-2	-3.845283389E-1	7.620319724E-2
1.134548908E1	4.443913698E-2	-3.049654961E-1	8.399149776E-2
1.135389210E1	6.566607952E-2	-2.422009408E-1	9.300149232E-2
1.136229512E1	7.605048269E-2	-2.142546773E-1	9.788827598E-2
1.137069814E1	8.017370105E-2	-2.356343269E-1	1.096470803E-1
1.137910116E1	7.849387079E-2	-2.754921019E-1	1.195733473E-1
1.138750418E1	7.986827940E-2	-3.042019308E-1	1.278197914E-1
1.139590720E1	9.116895497E-2	-3.020639718E-1	1.415638477E-1
1.140431022E1	1.046075895E-1	-2.788517773E-1	1.586675793E-1
1.141271324E1	1.180462316E-1	-2.571666837E-1	1.806580722E-1
1.142111626E1	1.339282542E-1	-2.338017821E-1	2.073826492E-1
1.142951929E1	1.420219839E-1	-2.284568697E-1	2.327328026E-1
1.143792231E1	1.525591016E-1	-2.313583940E-1	2.583884001E-1
1.144632533E1	1.647760421E-1	-2.185306102E-1	2.922904193E-1
1.145472835E1	1.846285909E-1	-1.937913001E-1	3.394783735E-1
1.146313137E1	2.032594234E-1	-1.644706279E-1	3.950654566E-1
1.147153439E1	2.264716178E-1	-1.357607991E-1	4.607315361E-1
1.147993741E1	2.547233105E-1	-1.029277667E-1	5.428904891E-1
1.148834043E1	2.899997234E-1	-7.437065244E-2	6.265766025E-1
1.149674345E1	3.385621011E-1	-7.116370648E-2	7.000309825E-1
1.150514647E1	3.926220834E-1	-7.818844914E-2	7.562289238E-1
1.151354949E1	4.337015450E-1	-1.059819981E-1	7.944068313E-1
1.152195251E1	4.689779878E-1	-1.884463727E-1	8.125795722E-1
1.153035554E1	5.057815313E-1	-3.063398898E-1	8.335011005E-1
1.153875856E1	4.982986450E-1	-4.540122151E-1	9.006943107E-1
1.154716158E1	4.359922409E-1	-6.056550741E-1	9.898779988E-1
1.155556460E1	3.988832533E-1	-6.485670805E-1	1.078450799E0
1.156396762E1	4.136963189E-1	-6.308525205E-1	1.166870952E0
1.157237064E1	4.259132445E-1	-6.949914694E-1	1.249335408E0
1.158077366E1	4.350759685E-1	-8.050966859E-1	1.311183691E0
1.158917668E1	4.092676640E-1	-9.417737722E-1	1.364785433E0
1.159757970E1	4.912739098E-1	-1.095554590E0	1.397160411E0
1.160598272E1	5.627430081E-1	-1.025459886E0	1.503295064E0
1.161438574E1	6.087092757E-1	-8.883246183E-1	1.654174328E0
1.162278876E1	7.075138092E-1	-6.533011198E-1	1.785812020E0
1.163119178E1	8.267817497E-1	-3.591781855E-1	1.849340081E0
1.163959481E1	9.512419105E-1	-9.743013978E-2	1.838192105E0
1.164799783E1	1.043479800E0	1.621799469E-1	1.799861431E0
1.165640085E1	1.097845197E0	3.903313875E-1	1.771609783E0
1.166480387E1	1.107007980E0	5.760289431E-1	1.709608793E0
1.167320689E1	1.041952729E0	7.319477201E-1	1.619966984E0
1.168160991E1	9.184088707E-1	8.655705452E-1	1.512152433E0
1.169001293E1	8.015843034E-1	9.617789984E-1	1.373795509E0
1.169841595E1	6.907155514E-1	1.002858520E0	1.190693974E0
1.170681897E1	5.561764240E-1	1.023474574E0	8.941276670E-1
1.171522199E1	4.701996744E-1	1.055696726E0	5.002838969E-1
1.172362501E1	4.326325655E-1	9.955283403E-1	1.517955512E-1
1.173202804E1	4.085040987E-1	8.522846103E-1	-1.146865711E-1
1.174043106E1	2.559449971E-1	6.186355352E-1	-3.523061574E-1
1.174883408E1	2.596100792E-2	3.023693860E-1	-7.197307944E-1
1.175723710E1	-5.803048983E-2	1.027750522E-1	-1.100135922E0
1.176564012E1	-1.388150454E-1	9.727742523E-2	-1.409530044E0
1.177404314E1	-2.709107697E-1	1.811162084E-1	-1.717091680E0
1.178244616E1	-3.923166394E-1	2.585411072E-1	-2.054890156E0
1.179084918E1	-4.715740979E-1	3.408527672E-1	-2.380013704E0
1.179925220E1	-5.464028716E-1	4.101839364E-1	-2.661308765E0
1.180765522E1	-6.445965767E-1	4.289674759E-1	-2.907480240E0
1.181605824E1	-7.629482150E-1	4.289674759E-1	-3.106463671E0
1.182446126E1	-8.910734653E-1	4.732539058E-1	-3.265131235E0
1.183286429E1	-9.972081780E-1	6.128324866E-1	-3.390507698E0
1.184126731E1	-1.075396657E0	8.017370105E-1	-3.474499226E0
1.184967033E1	-1.157860994E0	1.002553105E0	-3.513593435E0
1.185807335E1	-1.274838209E0	1.174353838E0	-3.509164810E0
1.186647637E1	-1.383874416E0	1.278961420E0	-3.411429167E0
1.187487939E1	-1.374253631E0	1.139840961E0	-3.213056564E0
1.188328241E1	-1.295912504E0	9.889616966E-1	-3.061566353E0
1.189168543E1	-1.207645059E0	9.103151560E-1	-2.697348833E0
1.190008845E1	-9.161182046E-1	3.191677108E-2	-1.777565479E0
1.190849147E1	-3.788780272E-1	-1.419150949E0	-4.576773047E-1
1.191689449E1	-1.540862173E-1	-2.862888336E0	7.197307944E-1
1.192529751E1	-2.133384049E-1	-3.654546499E0	1.041189194E0
1.193370054E1	-4.413371533E-2	-3.243293524E0	9.544488192E-1
1.194210356E1	-3.636068404E-1	-1.299730301E0	4.298837483E-1
1.195050658E1	-2.243336588E-1	1.435338378E0	-7.272136807E-1
1.195890960E1	2.672456801E-1	3.473735571E0	-8.179244995E-1
1.196731262E1	2.116585821E-1	3.945767879E0	5.654918551E-1
1.197571564E1	7.421794534E-2	3.107685328E0	1.307824016E0
1.198411866E1	1.137702987E-1	1.442363143E0	8.345700502E-1
1.199252168E1	4.734066315E-3	-2.834331393E-1	2.750339806E-1
1.200092470E1	-1.666085869E-1	-1.350430608E0	2.153236568E-1
1.200932772E1	-2.170034945E-1	-1.426939249E0	3.355078697E-1
1.201773074E1	-2.075353563E-1	-9.723161459E-1	4.266768098E-1
1.202613376E1	-2.086043358E-1	-5.761816502E-1	4.216373265E-1
1.203453678E1	-1.414111406E-1	-1.247655526E-1	2.851129472E-1
1.204293981E1	-2.886253223E-2	4.205683470E-1	2.173089087E-1
1.205134283E1	3.603998944E-2	7.385143638E-1	3.032856584E-1
1.205974585E1	4.825693369E-2	7.966975570E-1	3.394783735E-1
1.206814887E1	1.908897609E-2	6.511631608E-1	3.400892019E-1
1.207655189E1	-1.466033421E-2	4.088095427E-1	3.591781855E-1
1.208495491E1	-2.428117767E-2	2.170034945E-1	3.742966652E-1
1.209335793E1	2.443389036E-3	7.803573459E-2	3.903313875E-1
1.210176095E1	4.031591862E-2	-3.206948191E-2	4.146125913E-1
1.211016397E1	6.963659078E-2	-1.214058921E-1	4.225535989E-1
1.211856699E1	1.012479365E-1	-1.589729935E-1	4.059080184E-1
1.212697001E1	1.334701329E-1	-1.256818175E-1	3.927747905E-1
1.213537304E1	1.598892659E-1	-6.734590977E-2	3.894151151E-1
1.214377606E1	1.688992679E-1	-5.497625098E-3	3.849864900E-1
1.215217908E1	1.762294322E-1	4.443913698E-2	3.771981895E-1
1.216058210E1	1.835595965E-1	8.093725890E-2	3.730749488E-1
1.216898512E1	1.887518018E-1	8.994726092E-2	3.709369898E-1
1.217738814E1	1.960819662E-1	6.352811307E-2	3.600944579E-1
1.218579116E1	2.031067163E-1	3.588727489E-2	3.520007432E-1
1.219419418E1	2.057028115E-1	1.832541823E-2	3.515425920E-1
1.220259720E1	2.044811249E-1	3.512371797E-3	3.594835997E-1
1.221100022E1	2.032594234E-1	4.581354558E-3	3.700207174E-1
1.221940324E1	2.064663768E-1	2.305948362E-2	3.833066523E-1
1.222780626E1	2.134911120E-1	3.436015919E-2	4.056025743E-1
1.223620929E1	2.249445021E-1	2.550287358E-2	4.361449480E-1
1.224461231E1	2.331909388E-1	-1.374406368E-2	4.807367921E-1
1.225301533E1	2.405211031E-1	-8.780929446E-2	5.464028716E-1
1.226141835E1	2.628170252E-1	-1.737860441E-1	6.239804626E-1
1.226982137E1	2.863346636E-1	-2.547233105E-1	7.423321605E-1
1.227822439E1	3.155026138E-1	-2.736595869E-1	8.924478292E-1
1.228662741E1	3.443651497E-1	-2.935121059E-1	1.030957460E0
1.229503043E1	4.144598544E-1	-4.002576768E-1	1.126860499E0
1.230343345E1	4.239279926E-1	-5.700731874E-1	1.215433359E0
1.231183647E1	3.571929336E-1	-7.886037827E-1	1.305380583E0
1.232023949E1	2.672456801E-1	-9.023740888E-1	1.385859728E0
1.232864251E1	1.398840249E-1	-9.741486907E-1	1.494895935E0
1.233704554E1	8.826743066E-2	-1.249640822E0	1.553689957E0
1.234544856E1	2.507528067E-1	-1.552162886E0	1.539487839E0
1.235385158E1	2.150182426E-1	-1.754200578E0	1.639361382E0
1.236225460E1	2.342599183E-1	-1.839261055E0	1.704722047E0
1.237065762E1	3.504736125E-1	-1.706859946E0	1.760614514E0
1.237906064E1	5.024218559E-1	-1.426633716E0	1.790546060E0
1.238746366E1	6.386408210E-1	-1.116628766E0	1.737555027E0
1.239586668E1	6.969767213E-1	-8.287670016E-1	1.659519315E0
1.240426970E1	7.003363967E-1	-5.291464329E-1	1.582705259E0
1.241267272E1	6.957550049E-1	-1.614163816E-1	1.482831717E0
1.242107574E1	6.931589246E-1	2.206685692E-1	1.378834963E0
1.242947876E1	6.919372082E-1	5.563291311E-1	1.285986185E0
1.243788178E1	6.438329816E-1	7.853968740E-1	1.162747741E0
1.244628481E1	5.667135715E-1	8.704573512E-1	9.578084946E-1
1.245468783E1	4.782933891E-1	8.049439788E-1	6.788040400E-1
1.246309085E1	4.947862923E-1	6.287145615E-1	4.022429287E-1
1.247149387E1	4.569137394E-1	4.172086716E-1	2.180724740E-1
1.247989689E1	3.019112647E-1	2.182251811E-1	-3.573456407E-2
1.248829991E1	1.426328421E-1	4.764608666E-2	-2.788517773E-1
1.249670293E1	1.740914769E-2	-2.153236605E-2	-5.163186193E-1
1.250510595E1	-5.512896553E-2	7.330167294E-2	-7.896727920E-1
1.251350897E1	-1.380514801E-1	2.414373755E-1	-1.096470833E0
1.252191199E1	-2.066190839E-1	4.193466306E-1	-1.429229856E0
1.253031501E1	-2.626643181E-1	5.300627351E-1	-1.711135864E0
1.253871804E1	-3.629959822E-1	5.537330508E-1	-2.000830173E0
1.254712106E1	-4.720322192E-1	5.595360994E-1	-2.276933193E0
1.255552408E1	-5.807630420E-1	5.851916671E-1	-2.507986069E0
1.256392710E1	-6.807892919E-1	6.927008033E-1	-2.720713615E0
1.257233012E1	-7.965448499E-1	8.719844818E-1	-2.917253733E0
1.258073314E1	-9.080244303E-1	1.106091619E0	-3.078670263E0
1.258913616E1	-9.926267862E-1	1.357302666E0	-3.212445736E0
1.259753918E1	-1.052337170E0	1.582094431E0	-3.329575777E0
1.260594220E1	-1.090209603E0	1.718313336E0	-3.443804026E0
1.261434522E1	-1.092653036E0	1.687160134E0	-3.526879311E0
1.262274824E1	-1.107924223E0	1.372879267E0	-3.510386467E0
1.263115126E1	-1.243837714E0	6.659762263E-1	-3.237032413E0
1.263955429E1	-1.062721491E0	-6.361974478E-1	-2.394826651E0
1.264795731E1	-4.011739492E-1	-2.375585079E0	-4.844018817E-1
1.265636033E1	8.194515705E-1	-4.485451221E0	2.998343706E0
1.266476335E1	-1.198634982E0	-6.086176872E0	4.294103622E0
1.267316637E1	-1.357455373E0	-3.412650824E0	-9.407047927E-2
1.268156939E1	8.428165317E-1	1.914548039E0	-3.419675589E0
1.268997241E1	9.961391687E-1	4.559211254E0	-2.336032629E0
1.269837543E1	2.044811249E-1	4.778810978E0	5.381564498E-1
1.270677845E1	-1.160609815E-2	3.798859119E0	1.929055691E0
1.271518147E1	2.153236605E-2	2.565863848E0	1.097539783E0
1.272358449E1	-6.795676053E-2	6.801784039E-1	1.511846930E-1
1.273198751E1	-1.864611208E-1	-1.279572248E0	-2.137965523E-3
1.274039054E1	-2.383831441E-1	-2.056417227E0	2.554868758E-1
1.274879356E1	-1.939440072E-1	-1.731293797E0	3.361186981E-1
1.275719658E1	-2.089097649E-1	-1.334395885E0	3.243598938E-1
1.276559960E1	-3.298575282E-1	-1.046228647E0	2.967190444E-1
1.277400262E1	-3.480302393E-1	-5.741963983E-1	1.791309565E-1
1.278240564E1	-2.202104330E-1	5.864133686E-2	8.551861346E-2
1.279080866E1	-8.322793990E-2	6.012263894E-1	1.003316641E-1
1.279921168E1	-2.137965523E-3	8.509102464E-1	1.797417998E-1
1.280761470E1	-1.527118147E-4	7.371399403E-1	2.597627938E-1
1.281601772E1	-5.741964281E-2	3.649812341E-1	3.139754832E-1
1.282442074E1	-1.178935245E-1	-8.261708915E-2	3.524588645E-1
1.283282376E1	-1.409530044E-1	-3.490992188E-1	3.914003670E-1
1.284122678E1	-1.113269106E-1	-4.056025743E-1	4.456130862E-1
1.284962981E1	-4.963133857E-2	-3.513898849E-1	4.895940721E-1
1.285803283E1	1.817270555E-2	-2.559449971E-1	5.140279531E-1
1.286643585E1	7.513421029E-2	-1.575985998E-1	5.207473040E-1
1.287483887E1	1.177408099E-1	-7.528692484E-2	5.296045542E-1
1.288324189E1	1.328592747E-1	-5.238015205E-2	5.529694557E-1
1.289164491E1	1.298050433E-1	-1.059819981E-1	5.714476109E-1
1.290004793E1	1.224748790E-1	-1.901262105E-1	5.664080977E-1
1.290845095E1	1.221694499E-1	-2.290677279E-1	5.538857579E-1
1.291685397E1	1.296523362E-1	-2.250972092E-1	5.433486104E-1
1.292525699E1	1.360662282E-1	-1.954711229E-1	5.270084739E-1
1.293366001E1	1.334701329E-1	-1.577513069E-1	4.943281412E-1
1.294206304E1	1.302631795E-1	-1.232384369E-1	4.526378214E-1
1.295046606E1	1.291942000E-1	-9.101624042E-2	4.062134326E-1
1.295886908E1	1.261399537E-1	-5.390727147E-2	3.623851240E-1
1.296727210E1	1.285833418E-1	-3.222219273E-2	3.275668323E-1
1.297567512E1	1.291942000E-1	-1.053711493E-2	2.961082160E-1
1.298407814E1	1.261399537E-1	-2.168507688E-2	2.780882120E-1
1.299248116E1	1.281252056E-1	-4.260659590E-2	2.690782249E-1
1.300088418E1	1.340809762E-1	-6.933116168E-2	2.660239935E-1
1.300928720E1	1.415638477E-1	-1.027750522E-1	2.693836391E-1
1.301769022E1	1.534753740E-1	-1.163664013E-1	2.797680497E-1
1.302609324E1	1.730224788E-1	-1.094943732E-1	3.058817685E-1
1.303449626E1	1.872246861E-1	-1.116323397E-1	3.480302393E-1
1.304289928E1	1.986780763E-1	-1.414111406E-1	4.030064642E-1
1.305130231E1	2.031067163E-1	-1.863084137E-1	4.714213610E-1
1.305970533E1	2.043284029E-1	-2.353289127E-1	5.509842038E-1
1.306810835E1	2.098260373E-1	-2.580829561E-1	6.366555691E-1
1.307651137E1	2.231119573E-1	-2.510582209E-1	7.362236381E-1
1.308491439E1	2.467822880E-1	-2.611372173E-1	8.388460279E-1
1.309331741E1	2.686200738E-1	-2.883199155E-1	9.242119193E-1
1.310172043E1	2.791571915E-1	-3.490992188E-1	9.892671108E-1
1.311012345E1	2.922904193E-1	-5.202891231E-1	1.015228152E0
1.311852647E1	2.614426315E-1	-7.976137996E-1	1.052184463E0
1.312692949E1	1.059819981E-1	-1.093569279E0	1.179545999E0
1.313533251E1	8.124268800E-2	-1.318208337E0	1.241547108E0
1.314373554E1	1.328592747E-1	-1.288735032E0	1.325385809E0
1.315213856E1	1.227803007E-1	-1.342336893E0	1.527270913E0
1.316054158E1	1.423274130E-1	-1.363411069E0	1.690977931E0
1.316894460E1	2.405211031E-1	-1.191915751E0	1.764279604E0
1.317734762E1	3.988832533E-1	-9.210049510E-1	1.795280099E0
1.318575064E1	5.858024955E-1	-7.148439884E-1	1.796196342E0
1.319415366E1	7.403468490E-1	-5.894675851E-1	1.763057947E0
1.320255668E1	8.619054556E-1	-5.309789777E-1	1.712204814E0
1.321095970E1	9.301676750E-1	-4.303418994E-1	1.629435062E0
1.321936272E1	9.263498783E-1	-2.061609477E-1	1.537044406E0
1.322776574E1	8.538117409E-1	1.261399537E-1	1.432742238E0
1.323616876E1	7.666133046E-1	4.624113739E-1	1.300188422E0
1.324457179E1	7.070556879E-1	7.475243211E-1	1.138161182E0
1.325297481E1	6.143596172E-1	9.573503733E-1	9.332218766E-1
1.326137783E1	4.859289825E-1	1.090820551E0	5.902311802E-1
1.326978085E1	4.393518865E-1	1.179087877E0	1.554606259E-1
1.327818387E1	4.352286756E-1	1.088071704E0	-2.028012872E-1
1.328658689E1	3.332171738E-1	7.985301018E-1	-4.486673176E-1
1.329498991E1	1.630962193E-1	4.437805414E-1	-7.073611021E-1
1.330339293E1	-1.893626526E-2	3.558185324E-2	-1.056002140E0
1.331179595E1	-1.870719790E-1	-3.147390485E-1	-1.487107635E0
1.332019897E1	-2.884726226E-1	-3.457395434E-1	-1.858197331E0
1.332860199E1	-3.674246371E-1	-2.185306102E-1	-2.164995432E0
1.333700501E1	-4.691306949E-1	-3.680354729E-2	-2.487828255E0
1.334540804E1	-5.905365944E-1	1.171299592E-1	-2.837843657E0
1.335381106E1	-6.936170459E-1	2.878617644E-1	-3.172129869E0
1.336221408E1	-7.831062078E-1	4.828747511E-1	-3.432961702E0
1.337061710E1	-8.779402375E-1	6.592568755E-1	-3.597432137E0
1.337902012E1	-9.776610136E-1	7.930324674E-1	-3.686463118E0
1.338742314E1	-1.091736794E0	9.181034565E-1	-3.768316746E0
1.339582616E1	-1.214669824E0	1.032637239E0	-3.780228376E0
1.340422918E1	-1.291483760E0	9.688037634E-1	-3.591476440E0
1.341263220E1	-1.294079900E0	6.332958937E-1	-3.273530483E0
1.342103522E1	-1.245212078E0	8.200624585E-2	-2.864568233E0
1.342943824E1	-9.767447710E-1	-8.822161555E-1	-2.026333094E0
1.343784126E1	-4.463766217E-1	-2.426285267E0	-8.597674966E-2
1.344624428E1	1.394258887E-1	-4.369543076E0	2.390092611E0
1.345464731E1	-3.788780272E-1	-4.540733337E0	2.568154573E0
1.346305033E1	-5.436540842E-1	-1.635238171E0	-2.609844804E-1
1.347145335E1	5.532749295E-1	2.260440350E0	-2.352220058E0
1.347985637E1	5.505260825E-1	4.554018974E0	-1.554300904E0
1.348825939E1	-3.344388679E-2	4.751933575E0	8.405258060E-1
1.349666241E1	-1.081199646E-1	3.496795177E0	1.439614296E0
1.350506543E1	-8.124268800E-2	1.652647257E0	5.870242119E-1
1.351346845E1	-1.837123185E-1	-6.879667044E-1	2.748812735E-2
1.352187147E1	-3.504736125E-1	-2.134605646E0	6.337540597E-2
1.353027449E1	-2.883199155E-1	-2.143615723E0	1.511846930E-1
1.353867751E1	-2.927485406E-1	-1.659366608E0	2.287622988E-1
1.354708054E1	-3.335226178E-1	-1.125638843E0	2.675510943E-1
1.355548356E1	-2.843494117E-1	-3.840702176E-1	1.146865711E-1
1.356388658E1	-1.661504507E-1	4.297310412E-1	6.872031838E-3
1.357228960E1	-8.551862091E-3	8.947384953E-1	7.101099193E-2
1.358069262E1	3.603998944E-2	9.811733961E-1	1.281252056E-1
1.358909564E1	2.733541466E-2	7.015580535E-1	1.331647038E-1
1.359749866E1	-1.756185852E-2	3.003841341E-1	1.627907902E-1
1.360590168E1	-4.703523964E-2	-8.063183725E-2	1.806580722E-1
1.361430470E1	-4.611896724E-2	-3.565820754E-1	1.747023165E-1
1.362270772E1	-2.672456764E-2	-4.126273096E-1	1.867665499E-1
1.363111074E1	9.620844387E-3	-2.947337925E-1	2.238755226E-1
1.363951376E1	5.222744122E-2	-1.629435122E-1	2.573194206E-1
1.364791679E1	8.536590636E-2	-9.926267713E-2	2.655658424E-1
1.365631981E1	1.096470803E-1	-7.207997888E-2	2.814478874E-1
1.366472283E1	1.247655526E-1	-7.498150319E-2	3.095468581E-1
1.367312585E1	1.265980899E-1	-1.215586066E-1	3.429907262E-1
1.368152887E1	1.212531775E-1	-1.921114624E-1	3.602471650E-1
1.368993189E1	1.197260618E-1	-2.606790662E-1	3.657447994E-1
1.369833491E1	1.181989461E-1	-3.277195692E-1	3.614688516E-1
1.370673793E1	1.172826737E-1	-3.458922505E-1	3.468085229E-1
1.371514095E1	1.191152185E-1	-3.138227761E-1	3.410054743E-1
1.372354397E1	1.240019947E-1	-2.406738251E-1	3.329117596E-1
1.373194699E1	1.401894391E-1	-1.319430023E-1	3.304683566E-1
1.374035001E1	1.634016484E-1	-4.352286831E-2	3.352024257E-1
1.374875304E1	1.915006191E-1	2.855710872E-2	3.391729295E-1
1.375715606E1	2.168507725E-1	7.452336699E-2	3.520007432E-1
1.376555908E1	2.321219593E-1	9.529217333E-2	3.691044450E-1
1.377396210E1	2.425063550E-1	8.475505561E-2	3.888042867E-1
1.378236512E1	2.487675399E-1	5.344913527E-2	4.126273096E-1
1.379076814E1	2.574721277E-1	2.443389036E-2	4.414898455E-1
1.379917116E1	2.605263591E-1	-4.428642802E-3	4.834856093E-1
1.380757418E1	2.675510943E-1	-2.229592577E-2	5.219689608E-1
1.381597720E1	2.808370292E-1	-1.588202827E-2	5.575508475E-1
1.382438022E1	2.877090573E-1	9.773556143E-3	6.013791561E-1
1.383278324E1	3.058817685E-1	4.627167806E-2	6.500942111E-1
1.384118626E1	3.313846290E-1	5.848862603E-2	6.942279339E-1
1.384958928E1	3.420744538E-1	4.795150831E-2	7.673768401E-1
1.385799231E1	3.445178568E-1	-3.359660041E-3	8.767185211E-1
1.386639533E1	3.970507085E-1	-1.383569092E-1	9.246700406E-1
1.387479835E1	4.257605374E-1	-3.245126009E-1	9.773555994E-1
1.388320137E1	3.924693763E-1	-6.166502833E-1	1.115407109E0
1.389160439E1	3.538332880E-1	-7.716528177E-1	1.280641317E0
1.390000741E1	3.318427801E-1	-8.532009125E-1	1.459772229E0
1.390841043E1	3.410054743E-1	-9.231429100E-1	1.602557778E0
1.391681345E1	3.793361485E-1	-9.286405444E-1	1.708234310E0
1.392521647E1	4.582881629E-1	-8.081509471E-1	1.784895658E0
1.393361949E1	5.784723759E-1	-6.146650314E-1	1.841551781E0
1.394202251E1	7.246175408E-1	-4.504998624E-1	1.873468518E0
1.395042554E1	8.693883419E-1	-3.333698809E-1	1.875759244E0
1.395882856E1	9.668185115E-1	-2.347180545E-1	1.868429065E0
1.396723158E1	9.962918758E-1	-1.139230132E-1	1.876217365E0
1.397563460E1	9.807152748E-1	4.031591862E-2	1.862625957E0
1.398403762E1	9.561286569E-1	2.121167034E-1	1.807191610E0
1.399244064E1	9.281824231E-1	3.976615667E-1	1.714342833E0
1.400084366E1	9.008470178E-1	6.416950226E-1	1.568808436E0
1.400924668E1	8.293778896E-1	8.267817497E-1	1.396396875E0
1.401764970E1	7.069029808E-1	9.381086826E-1	1.098608851E0
1.402605272E1	5.880932212E-1	1.034164429E0	6.685723066E-1
1.403445574E1	6.082511544E-1	9.785773158E-1	3.552076817E-1
1.404285876E1	4.787515402E-1	6.604785919E-1	9.055810422E-2
1.405126179E1	2.631224692E-1	4.616478086E-1	-3.600944579E-1
1.405966481E1	6.872031838E-2	2.431172132E-1	-7.995990515E-1
1.406806783E1	-1.131594554E-1	7.375980914E-2	-1.135565042E0
1.407647085E1	-3.150444627E-1	-4.657710344E-2	-1.509250879E0
1.408487387E1	-4.330907166E-1	1.740914769E-2	-1.936233044E0
1.409327689E1	-5.033381581E-1	1.916533262E-1	-2.329771519E0
1.410167991E1	-5.700731874E-1	3.089359999E-1	-2.663446665E0
1.411008293E1	-6.809419990E-1	3.408527672E-1	-2.966121674E0
1.411848595E1	-8.034168482E-1	3.718532622E-1	-3.235657930E0
1.412688897E1	-9.161182046E-1	4.666872919E-1	-3.448080063E0
1.413529199E1	-1.027139664E0	6.639909744E-1	-3.629807234E0
1.414369501E1	-1.152363300E0	9.045121074E-1	-3.799622774E0
1.415209804E1	-1.234216928E0	1.193290114E0	-3.964856863E0
1.416050106E1	-1.283848286E0	1.449235082E0	-4.050375462E0
1.416890408E1	-1.367992401E0	1.667307615E0	-4.065035820E0
1.417730710E1	-1.357302666E0	1.765043139E0	-3.861470938E0
1.418571012E1	-1.150683522E0	1.388761282E0	-3.455410242E0
1.419411314E1	-9.825478196E-1	7.818844914E-1	-2.974062681E0
1.420251616E1	-5.334223509E-1	-3.129065037E-1	-1.154806733E0
1.421091918E1	3.414636254E-1	-3.083862305E0	2.551050901E0
1.421932220E1	-3.848337829E-1	-4.953513145E0	4.157273769E0
1.422772522E1	-5.874823332E-1	-3.305905342E0	8.852704167E-1
1.423612824E1	3.364241421E-1	7.040014863E-2	-1.966317296E0
1.424453126E1	8.701519370E-1	3.145252466E0	-2.440181971E0
1.425293428E1	2.826695740E-1	4.875019073E0	-4.384356141E-1
1.426133731E1	-9.147437662E-2	4.450938702E0	1.371352077E0
1.426974033E1	-2.066190839E-1	2.850060701E0	1.238187432E0
1.427814335E1	-2.458660156E-1	8.186880350E-1	3.280249834E-1
1.428654637E1	-3.092414141E-1	-1.083032131E0	6.245913357E-2
1.429494939E1	-3.254288733E-1	-1.891335845E0	1.864611208E-1
1.430335241E1	-2.102841735E-1	-1.832236409E0	1.960819662E-1
1.431175543E1	-1.995943487E-1	-1.230551839E0	1.088835225E-1
1.432015845E1	-2.367033064E-1	-6.074876189E-1	1.302631795E-1
1.432856147E1	-2.197522968E-1	-1.007898003E-1	7.040014863E-2
1.433696449E1	-1.632489264E-1	3.399364948E-1	-6.902574003E-2
1.434536751E1	-9.009996802E-2	5.677825212E-1	-2.580829710E-2
1.435377054E1	-5.008947477E-2	6.218425035E-1	9.391776472E-2
1.436217356E1	-5.635065958E-2	4.236225784E-1	1.568350345E-1
1.437057658E1	-9.407047927E-2	9.773556143E-3	1.551551968E-1
1.437897960E1	-1.120904684E-1	-3.367295563E-1	1.281252056E-1
1.438738262E1	-7.956285775E-2	-4.294256270E-1	1.119377613E-1
1.439578564E1	-2.794626169E-2	-3.581092060E-1	1.362189353E-1
1.440418866E1	1.634016447E-2	-3.029802442E-1	1.556133330E-1
1.441259168E1	4.520269856E-2	-2.834331393E-1	1.577513069E-1
1.442099470E1	6.642963737E-2	-2.820587158E-1	1.797417998E-1
1.442939772E1	8.200624585E-2	-3.040492237E-1	2.283041626E-1
1.443780074E1	8.964183182E-2	-3.458922505E-1	2.747285664E-1
1.444620376E1	9.681928903E-2	-3.862081766E-1	3.038965166E-1
1.445460679E1	1.087308154E-1	-4.007157981E-1	3.283303976E-1
1.446300981E1	1.243074164E-1	-4.149180055E-1	3.469612300E-1
1.447141283E1	1.441599578E-1	-4.251496792E-1	3.565820754E-1
1.447981585E1	1.559187621E-1	-4.240806997E-1	3.648285270E-1
1.448821887E1	1.672194302E-1	-3.938437700E-1	3.648285270E-1
1.449662189E1	1.737860441E-1	-3.187095523E-1	3.487937748E-1
1.450502491E1	1.823379099E-1	-2.417428046E-1	3.379512429E-1
1.451342793E1	1.896680743E-1	-1.656923145E-1	3.371876776E-1
1.452183095E1	2.043284029E-1	-9.819369763E-2	3.436015844E-1
1.453023397E1	2.221956849E-1	-5.115845799E-2	3.662029207E-1
1.453863699E1	2.351761907E-1	-5.207473040E-2	4.022429287E-1
1.454704001E1	2.437280566E-1	-9.452861547E-2	4.410317242E-1
1.455544304E1	2.516690791E-1	-1.380514801E-1	4.882196784E-1
1.456384606E1	2.557922900E-1	-1.757712960E-1	5.451811552E-1
1.457224908E1	2.603736520E-1	-2.090624720E-1	6.120689511E-1
1.458065210E1	2.643441558E-1	-2.597627938E-1	6.908682585E-1
1.458905512E1	2.835858464E-1	-3.069507480E-1	7.809682488E-1
1.459745814E1	3.182514310E-1	-3.205420971E-1	8.927532434E-1
1.460586116E1	3.666610718E-1	-2.983988822E-1	1.027597785E0
1.461426418E1	3.857500553E-1	-2.044811249E-1	1.158013701E0
1.462266720E1	3.872771561E-1	-2.229592502E-1	1.318055630E0
1.463107022E1	4.274403751E-1	-4.199574888E-1	1.438239813E0
1.463947324E1	4.552339315E-1	-7.287407517E-1	1.490161896E0
1.464787626E1	4.095730782E-1	-1.103037477E0	1.632947445E0
1.465627928E1	3.568875194E-1	-1.177408099E0	1.831930876E0
1.466468231E1	3.466558158E-1	-1.100135922E0	2.016559601E0
1.467308533E1	3.985778391E-1	-1.099066973E0	2.123915911E0
1.468148835E1	4.559974670E-1	-1.147018433E0	2.156749010E0
1.468989137E1	5.657972693E-1	-1.147018433E0	2.133994818E0
1.469829439E1	7.215633392E-1	-1.040425539E0	2.098107576E0
1.470669741E1	8.637380004E-1	-8.938222528E-1	2.097344160E0
1.471510043E1	9.368869662E-1	-6.725428104E-1	2.084974289E0
1.472350345E1	9.119949341E-1	-3.891097009E-1	2.037175655E0
1.473190647E1	8.338065147E-1	-1.745496094E-1	1.969676971E0
1.474030949E1	8.003626466E-1	5.085303262E-2	1.822768211E0
1.474871251E1	8.206732869E-1	3.477247953E-1	1.594464064E0
1.475711554E1	8.272398710E-1	6.120689511E-1	1.342031479E0
1.476551856E1	7.528692484E-1	7.288935184E-1	1.067761064E0
1.477392158E1	6.814001203E-1	7.337802649E-1	7.247702479E-1
1.478232460E1	6.300889254E-1	5.746545792E-1	4.202629030E-1
1.479072762E1	5.801522136E-1	2.535016239E-1	2.096733153E-1
1.479913064E1	4.230117202E-1	-7.849387079E-2	1.527118147E-3
1.480753366E1	1.957765520E-1	-3.930802047E-1	-2.838912606E-1
1.481593668E1	-4.275931045E-3	-5.920637250E-1	-6.209262609E-1
1.482433970E1	-5.161659420E-2	-4.761554301E-1	-9.396358132E-1
1.483274272E1	-7.192726433E-2	-2.081461996E-1	-1.208561301E0
1.484114574E1	-1.591257155E-1	6.261184067E-2	-1.497339368E0
1.484954876E1	-2.655658424E-1	2.732014358E-1	-1.818645000E0
1.485795179E1	-3.490992188E-1	4.767662883E-1	-2.128497362E0
1.486635481E1	-4.121691883E-1	7.189671993E-1	-2.403073072E0
1.487475783E1	-4.804313779E-1	9.591829181E-1	-2.658407211E0
1.488316085E1	-5.610632300E-1	1.132663488E0	-2.910687208E0
1.489156387E1	-6.429167390E-1	1.232078910E0	-3.139449596E0
1.489996689E1	-7.333221436E-1	1.288887739E0	-3.335989475E0
1.490836991E1	-8.347227573E-1	1.346001983E0	-3.521381855E0
1.491677293E1	-9.390249252E-1	1.404032469E0	-3.695626020E0
1.492517595E1	-1.056002140E0	1.480388284E0	-3.886973858E0
1.493357897E1	-1.164733052E0	1.604084849E0	-4.063355923E0
1.494198199E1	-1.290262103E0	1.689908981E0	-4.167352676E0
1.495038501E1	-1.458855987E0	1.720145941E0	-4.148416519E0
1.495878804E1	-1.658450365E0	1.558576822E0	-3.901481390E0
1.496719106E1	-1.471225619E0	9.805625677E-1	-3.436168432E0
1.497559408E1	-1.216655016E0	2.160872221E-1	-3.237795830E0
1.498399710E1	-8.272398710E-1	-5.314370990E-1	-2.196301222E0
1.499240012E1	6.299362183E-1	-2.458965540E0	9.710944295E-1
1.500080314E1	-1.418692768E-1	-6.059757710E0	4.685503960E0
1.500920616E1	-2.070161343E0	-6.087703705E0	3.029649734E0
1.501760918E1	-8.460234404E-1	-2.111240864E0	-1.511236072E0
1.502601220E1	8.686248064E-1	2.857696295E0	-3.539707184E0
1.503441522E1	7.452336550E-1	5.623459816E0	-1.871025205E0
1.504281824E1	2.619007528E-1	5.286882877E0	7.166765332E-1
1.505122126E1	1.861557066E-1	3.675467968E0	1.762447000E0
1.505962429E1	1.594311297E-1	2.157512426E0	9.504783154E-1
1.506802731E1	-2.107422985E-2	1.006370857E-1	6.352811307E-2
1.507643033E1	-2.043284029E-1	-1.700751424E0	-6.352811307E-2
1.508483335E1	-3.005368412E-1	-2.042825937E0	1.424801201E-1
1.509323637E1	-2.586938143E-1	-1.446639061E0	2.542651594E-1
1.510163939E1	-2.852656841E-1	-8.214368224E-1	2.822114229E-1
1.511004241E1	-3.461976945E-1	-2.887780368E-1	2.318165302E-1
1.511844543E1	-2.600682080E-1	3.025220931E-1	8.811471611E-2
1.512684845E1	-7.742489129E-2	8.299887180E-1	2.779355086E-2
1.513525147E1	4.077405483E-2	1.099066973E0	1.058292910E-1
1.514365449E1	3.680354729E-2	1.019504070E0	2.214321345E-1
1.515205751E1	-6.261184067E-2	5.786250830E-1	2.651077211E-1
1.516046054E1	-1.401894391E-1	4.062134400E-2	2.368560284E-1
1.516886356E1	-1.505738497E-1	-2.774773538E-1	2.235700935E-1
1.517726658E1	-1.123958975E-1	-3.573456407E-1	2.619007528E-1
1.518566960E1	-5.085303262E-2	-2.944283783E-1	2.935121059E-1
1.519407262E1	-2.748812549E-3	-2.351761907E-1	3.058817685E-1
1.520247564E1	3.527642787E-2	-1.989834905E-1	3.055763543E-1
1.521087866E1	6.826218218E-2	-1.630962193E-1	3.138227761E-1
1.521928168E1	8.704573661E-2	-1.487413049E-1	3.480302393E-1
1.522768470E1	8.796200156E-2	-1.722589284E-1	3.752129376E-1
1.523608772E1	8.689302206E-2	-2.053973973E-1	3.727695346E-1
1.524449074E1	8.872556686E-2	-2.305948436E-1	3.608580232E-1
1.525289376E1	9.147437662E-2	-2.309002578E-1	3.481829464E-1
1.526129678E1	1.001789495E-1	-2.246390730E-1	3.361186981E-1
1.526969981E1	1.058292910E-1	-2.423536479E-1	3.155026138E-1
1.527810283E1	1.038440317E-1	-2.709107697E-1	2.793098986E-1
1.528650585E1	1.017060652E-1	-2.754921019E-1	2.484621257E-1
1.529490887E1	1.014006436E-1	-2.402156889E-1	2.334963679E-1
1.530331189E1	9.590301663E-2	-1.959292591E-1	2.272351831E-1
1.531171491E1	9.193251282E-2	-1.817270666E-1	2.255553454E-1
1.532011793E1	9.513945878E-2	-1.782146841E-1	2.299840003E-1
1.532852095E1	1.072036922E-1	-1.766875684E-1	2.457133085E-1
1.533692397E1	1.185043678E-1	-1.902789176E-1	2.754921019E-1
1.534532699E1	1.307213157E-1	-1.956238300E-1	3.161134422E-1
1.535373001E1	1.461452097E-1	-1.831014603E-1	3.651339412E-1
1.536213304E1	1.687465608E-1	-1.594311297E-1	4.202629030E-1
1.537053606E1	1.947075576E-1	-1.339282542E-1	4.895940721E-1
1.537893908E1	2.147128135E-1	-1.226275861E-1	5.688515306E-1
1.538734210E1	2.373141646E-1	-1.252236813E-1	6.566607952E-1
1.539574512E1	2.640387416E-1	-1.507265568E-1	7.547017932E-1
1.540414814E1	2.872509360E-1	-1.965401024E-1	8.660287261E-1
1.541255116E1	3.184041381E-1	-2.359397560E-1	9.894198179E-1
1.542095418E1	3.626905680E-1	-2.331909388E-1	1.124722481E0
1.542935720E1	3.846810758E-1	-2.339545041E-1	1.240172625E0
1.543776022E1	4.359922409E-1	-3.274141252E-1	1.337297320E0
1.544616324E1	4.781406820E-1	-4.621059597E-1	1.386623263E0
1.545456626E1	4.326325655E-1	-7.125533223E-1	1.398992896E0
1.546296929E1	3.628432751E-1	-9.194778204E-1	1.431520581E0
1.547137231E1	3.057290614E-1	-9.988879561E-1	1.505891204E0
1.547977533E1	2.195995897E-1	-1.066844702E0	1.590188146E0
1.548817835E1	1.791309565E-1	-1.390288353E0	1.595074892E0
1.549658137E1	2.974826097E-1	-1.522384048E0	1.586828470E0
1.550498439E1	3.312319219E-1	-1.448318839E0	1.687465549E0
1.551338741E1	4.129327536E-1	-1.337755442E0	1.800930381E0
1.552179043E1	5.691569448E-1	-1.120141149E0	1.853463292E0
1.553019345E1	7.511894107E-1	-8.629744649E-1	1.838802934E0
1.553859647E1	9.014578462E-1	-5.986303091E-1	1.770235300E0
1.554699949E1	9.630007148E-1	-3.556658030E-1	1.698918939E0
1.555540251E1	9.773555994E-1	-1.533226669E-1	1.622868419E0
1.556380554E1	9.266552925E-1	4.627167806E-2	1.528492570E0
1.557220856E1	8.032641411E-1	2.481566966E-1	1.423732281E0
1.558061158E1	6.607840061E-1	4.081986845E-1	1.291942000E0
1.558901460E1	5.387672782E-1	5.291464329E-1	1.116323352E0
1.559741762E1	4.016320705E-1	5.728220344E-1	8.577822447E-1
1.560582064E1	3.446705639E-1	5.893148780E-1	4.587462842E-1
1.561422366E1	3.524588645E-1	4.949389994E-1	1.301104724E-1
1.562262668E1	2.687727809E-1	2.046338320E-1	-8.765657991E-2
1.563102970E1	1.036913246E-1	-1.690519750E-1	-3.281776905E-1
1.563943272E1	-4.611896724E-2	-4.532486796E-1	-6.468872428E-1
1.564783574E1	-2.067717910E-1	-6.116108298E-1	-9.684983492E-1
1.565623876E1	-2.864873707E-1	-6.198572516E-1	-1.257276416E0
1.566464178E1	-3.758237660E-1	-4.775298536E-1	-1.524369359E0
1.567304481E1	-4.998257756E-1	-2.643441558E-1	-1.807497025E0
1.568144783E1	-6.079457402E-1	5.192201585E-3	-2.109866381E0
1.568985085E1	-6.807892919E-1	2.825168669E-1	-2.405516624E0
1.569825387E1	-7.456917763E-1	5.341859460E-1	-2.664210320E0
1.570665689E1	-8.186880350E-1	7.467607856E-1	-2.886100531E0
1.571505991E1	-8.982508779E-1	9.161182046E-1	-3.087069273E0
1.572346293E1	-9.833113551E-1	1.054016948E0	-3.274294138E0
1.573186595E1	-1.064554095E0	1.178324342E0	-3.428227425E0
1.574026897E1	-1.136023164E0	1.305533290E0	-3.549786091E0
1.574867199E1	-1.190083146E0	1.392426372E0	-3.645078421E0
1.575707501E1	-1.221694469E0	1.390899181E0	-3.711202621E0
1.576547804E1	-1.240783453E0	1.305991411E0	-3.730444193E0
1.577388106E1	-1.215127945E0	1.081657767E0	-3.653324842E0
1.578228408E1	-1.184890985E0	5.523586273E-1	-3.476789951E0
1.579068710E1	-1.244143128E0	-1.408002973E-1	-3.240391970E0
1.579909012E1	-1.147323847E0	-9.153546095E-1	-2.597780704E0
1.580749314E1	-6.400152445E-1	-2.057791710E0	-1.072342396E0
1.581589616E1	-3.802524135E-2	-3.900259733E0	1.333937645E0
1.582429918E1	-2.040229887E-1	-5.029258251E0	2.789739370E0
1.583270220E1	-5.502206683E-1	-4.105351925E0	1.838802934E0
1.584110522E1	-8.018897176E-1	-1.305838704E0	-1.678302884E-1
1.584950824E1	1.473668963E-1	2.543415308E0	-1.641193867E0
1.585791126E1	7.924215794E-1	5.440358162E0	-1.313321590E0
1.586631429E1	6.507050395E-1	6.063117027E0	3.778090179E-1
1.587471731E1	3.245126009E-1	4.332586765E0	1.457328796E0
1.588312033E1	1.175880954E-1	1.967386365E0	9.400939345E-1
1.589152335E1	-1.240019947E-1	-3.017585576E-1	1.756185889E-1
1.589992637E1	-3.155026138E-1	-1.977312565E0	2.764083818E-2
1.590832939E1	-3.290939629E-1	-2.329924107E0	1.983726472E-1
1.591673241E1	-3.034383655E-1	-1.865680218E0	3.054236174E-1
1.592513543E1	-3.185568452E-1	-1.214669824E0	3.352024257E-1
1.593353845E1	-3.158080280E-1	-5.790832043E-1	2.768665254E-1
1.594194147E1	-2.160872221E-1	9.544488788E-2	1.705790907E-1
1.595034449E1	-7.192726433E-2	6.548282504E-1	1.369825006E-1
1.595874751E1	2.947338112E-2	9.413156509E-1	1.824906170E-1
1.596715054E1	4.382828996E-2	9.472714067E-1	2.283041626E-1
1.597555356E1	4.581354558E-3	7.293516397E-1	2.516690791E-1
1.598395658E1	-3.237490356E-2	3.936910629E-1	2.644968629E-1
1.599235960E1	-4.184303805E-2	4.917320609E-2	2.837385535E-1
1.600076262E1	-2.321219631E-2	-2.000524700E-1	3.129065037E-1
1.600916564E1	4.886778072E-3	-3.381039500E-1	3.562766612E-1
1.601756866E1	3.680354729E-2	-3.874298632E-1	4.007157981E-1
1.602597168E1	6.780404598E-2	-3.523061574E-1	4.295783341E-1
1.603437470E1	1.007898003E-1	-2.608317733E-1	4.512633979E-1
1.604277772E1	1.427855492E-1	-1.389677525E-1	4.689779878E-1
1.605118074E1	1.783674061E-1	-1.634016447E-2	4.802786708E-1
1.605958376E1	1.965401024E-1	3.481829539E-2	4.815003574E-1
1.606798679E1	1.994416267E-1	9.468132630E-3	4.669927359E-1
1.607638981E1	1.940967143E-1	-4.550812021E-2	4.417952895E-1
1.608479283E1	1.870719790E-1	-8.078455180E-2	4.165978432E-1
1.609319585E1	1.736333370E-1	-8.842013776E-2	3.973561525E-1
1.610159887E1	1.611109674E-1	-8.017370105E-2	3.785725832E-1
1.611000189E1	1.550024897E-1	-3.115320951E-2	3.584146202E-1
1.611840491E1	1.601946950E-1	5.070032179E-2	3.480302393E-1
1.612680793E1	1.743968874E-1	1.183516532E-1	3.454341292E-1
1.613521095E1	1.843231618E-1	1.264453828E-1	3.437542915E-1
1.614361397E1	1.834068894E-1	6.795676053E-2	3.436015844E-1
1.615201699E1	1.872246861E-1	-8.704573847E-3	3.579564989E-1
1.616042001E1	1.928750277E-1	-5.360184610E-2	3.962871730E-1
1.616882304E1	2.015796006E-1	-9.697200358E-2	4.486673176E-1
1.617722606E1	2.098260373E-1	-1.328592747E-1	4.992149174E-1
1.618562908E1	2.310529798E-1	-1.388150454E-1	5.519005060E-1
1.619403210E1	2.626643181E-1	-1.218640283E-1	6.189410090E-1
1.620243512E1	2.958027720E-1	-1.030804738E-1	6.910209656E-1
1.621083814E1	3.290939629E-1	-9.880454093E-2	7.626428008E-1
1.621924116E1	3.707842827E-1	-1.088835225E-1	8.614473343E-1
1.622764418E1	4.178195298E-1	-1.001789495E-1	9.591829181E-1
1.623604720E1	4.385883212E-1	-9.009996802E-2	1.011715770E0
1.624445022E1	5.256340504E-1	-1.618745178E-1	1.045770526E0
1.625285324E1	5.308262706E-1	-3.397837877E-1	1.069135427E0
1.626125626E1	4.584408700E-1	-5.755708218E-1	1.083795786E0
1.626965928E1	4.005630910E-1	-5.740436912E-1	1.157402873E0
1.627806231E1	3.878880143E-1	-4.404208660E-1	1.272853017E0
1.628646533E1	3.807105422E-1	-4.149180055E-1	1.349667072E0
1.629486835E1	3.377985358E-1	-5.181511641E-1	1.380056620E0
1.630327137E1	2.918322682E-1	-6.378772259E-1	1.404032469E0
1.631167439E1	5.190674663E-1	-5.934380889E-1	1.414722204E0
1.632007741E1	6.151232123E-1	-4.329380095E-1	1.508792758E0
1.632848043E1	6.827745438E-1	-4.601207078E-1	1.548955917E0
1.633688345E1	7.631009221E-1	-4.364503622E-1	1.546512604E0
1.634528647E1	7.985301018E-1	-3.403946459E-1	1.529103398E0
1.635368949E1	8.388460279E-1	-1.259872466E-1	1.473058224E0
1.636209251E1	8.188407421E-1	1.162136942E-1	1.412737012E0
1.637049554E1	7.296570539E-1	2.979407609E-1	1.315612316E0
1.637889856E1	6.195518374E-1	4.156815708E-1	1.193595529E0
1.638730158E1	5.349494815E-1	4.491254389E-1	1.086239100E0
1.639570460E1	4.491254389E-1	3.849864900E-1	9.174925685E-1
1.640410762E1	3.820849657E-1	3.080197275E-1	6.639909744E-1
1.641251064E1	3.457395434E-1	2.136438340E-1	4.085040987E-1
1.642091366E1	3.013004065E-1	5.909947306E-2	2.270824611E-1
1.642931668E1	1.528645307E-1	-1.453816444E-1	9.468132630E-3
1.643771970E1	1.649287529E-2	-3.310792148E-1	-3.013004065E-1
1.644612272E1	-5.222744122E-2	-3.791834414E-1	-5.922164321E-1
1.645452574E1	-1.298050433E-1	-3.081724346E-1	-8.400676847E-1
1.646292876E1	-2.473931462E-1	-2.131856978E-1	-1.112352848E0
1.647133178E1	-3.419217467E-1	-1.049130186E-1	-1.410598993E0
1.647973481E1	-3.936910629E-1	1.206423342E-2	-1.685327530E0
1.648813783E1	-4.457657933E-1	1.055238619E-1	-1.923557997E0
1.649654085E1	-5.323534012E-1	1.611109674E-1	-2.140256166E0
1.650494387E1	-6.360446811E-1	1.927223057E-1	-2.345195293E0
1.651334689E1	-7.319477201E-1	2.490729690E-1	-2.525395393E0
1.652174991E1	-8.034168482E-1	3.523061574E-1	-2.668333530E0
1.653015293E1	-8.889354467E-1	4.486673176E-1	-2.789892197E0
1.653855595E1	-9.895725846E-1	5.525113344E-1	-2.919391870E0
1.654695897E1	-1.071120620E0	6.902574301E-1	-3.019112587E0
1.655536199E1	-1.154043198E0	8.415948153E-1	-3.047517061E0
1.656376501E1	-1.227497578E0	9.254335761E-1	-3.024152040E0
1.657216804E1	-1.301715493E0	9.594883323E-1	-3.010255337E0
1.658057106E1	-1.385859728E0	8.548807502E-1	-2.833109617E0
1.658897408E1	-9.295567870E-1	4.953971207E-1	-1.807649732E0
1.659737710E1	-2.947338112E-2	-8.415948153E-1	1.093721986E0
1.660578012E1	-2.930539846E-1	-3.373404026E0	3.655309916E0
1.661418314E1	-7.970029712E-1	-3.520770788E0	1.634321809E0
1.662258616E1	1.247655526E-1	-1.816048861E0	-1.141826272E0
1.663098918E1	5.476245880E-1	-2.128802687E-1	-1.174811959E0
1.663939220E1	3.150444627E-1	1.503447771E0	-4.401154518E-1
1.664779522E1	2.043284029E-1	3.072103500E0	2.921377122E-1
1.665619824E1	2.290677279E-3	3.137158871E0	8.729007244E-1
1.666460126E1	-3.454341292E-1	1.612178683E0	7.417212725E-1
1.667300428E1	-4.301891923E-1	4.764608666E-2	2.951919436E-1
1.668140731E1	-3.385621011E-1	-7.788302302E-1	1.721062213E-1
1.668981033E1	-2.057028115E-1	-9.211576581E-1	3.665083647E-1
1.669821335E1	-1.275143623E-1	-8.473978639E-1	3.764346242E-1
1.670661637E1	-1.127013192E-1	-7.322531343E-1	2.185306102E-1
1.671501939E1	-1.472141892E-1	-4.558447599E-1	1.566823274E-1
1.672342241E1	-1.450762302E-1	-2.443389036E-2	2.470877171E-1
1.673182543E1	-1.035386100E-1	3.293993771E-1	3.242071867E-1
1.674022845E1	-4.993676394E-2	4.315635860E-1	3.344388604E-1
1.674863147E1	-3.756710514E-2	3.570402265E-1	3.019112647E-1
1.675703449E1	-4.657710344E-2	2.484621257E-1	2.967190444E-1
1.676543751E1	-6.230641901E-2	1.212531775E-1	3.035911024E-1
1.677384054E1	-7.681404054E-2	-1.710372418E-2	2.774773538E-1
1.678224356E1	-7.620319724E-2	-1.191152185E-1	2.367033064E-1
1.679064658E1	-6.062658876E-2	-1.508792788E-1	2.179197669E-1
1.679904960E1	-2.901524492E-2	-1.540862173E-1	2.182251811E-1
1.680745262E1	6.872031838E-3	-1.824906170E-1	2.183778882E-1
1.681585564E1	3.405473381E-2	-2.312056869E-1	2.229592502E-1
1.682425866E1	5.268557742E-2	-2.706053257E-1	2.431172132E-1
1.683266168E1	6.887302548E-2	-3.014531136E-1	2.629697323E-1
1.684106470E1	9.208522737E-2	-3.087832928E-1	2.644968629E-1
1.684946772E1	1.120904684E-1	-3.110739589E-1	2.553341687E-1
1.685787074E1	1.371352077E-1	-2.927485406E-1	2.371614426E-1
1.686627376E1	1.565296054E-1	-2.681619525E-1	2.206685692E-1
1.687467679E1	1.609582454E-1	-2.469350100E-1	2.067717910E-1
1.688307981E1	1.586675793E-1	-2.400629669E-1	1.890572309E-1
1.689148283E1	1.502684206E-1	-2.315111160E-1	1.701209545E-1
1.689988585E1	1.427855492E-1	-2.043284029E-1	1.563768983E-1
1.690828887E1	1.450762302E-1	-1.692046970E-1	1.525591016E-1
1.691669189E1	1.528645307E-1	-1.356080920E-1	1.583621502E-1
