"Time (s)"	"Acceleration x (m/s^2)"	"Acceleration y (m/s^2)"	"Acceleration z (m/s^2)"
3.359559100E-2	-8.315058947E-1	9.710074425E0	-4.618147612E-1
4.199861100E-2	-9.332008362E-1	9.704689980E0	-5.587241054E-1
5.040163200E-2	-1.053440213E0	9.693324089E0	-6.544370055E-1
5.880465300E-2	-1.159322619E0	9.697511673E0	-6.681957245E-1
6.720767400E-2	-1.122233868E0	9.731011391E0	-5.347958803E-1
7.561069500E-2	-9.577272534E-1	9.725028992E0	-4.959124923E-1
8.401371600E-2	-8.291130662E-1	9.730413437E0	-4.809573591E-1
9.241673600E-2	-7.848458290E-1	9.751350403E0	-4.307080805E-1
1.008197570E-1	-7.914260626E-1	9.754341125E0	-3.990031779E-1
1.092227780E-1	-8.159525394E-1	9.749555588E0	-4.570291340E-1
1.176257990E-1	-8.608179688E-1	9.731609344E0	-5.258227587E-1
1.260288200E-1	-9.320043921E-1	9.742377281E0	-5.533402562E-1
1.344318410E-1	-9.822536707E-1	9.710672379E0	-5.670989752E-1
1.428348610E-1	-9.403793216E-1	9.669396400E0	-5.581258535E-1
1.512378820E-1	-8.428717852E-1	9.654440880E0	-5.641079545E-1
1.596409030E-1	-7.501499057E-1	9.701101303E0	-5.282155871E-1
1.680439240E-1	-6.975077987E-1	9.767501831E0	-5.036891699E-1
1.764469450E-1	-7.076773047E-1	9.811170578E0	-5.000999570E-1
1.848499660E-1	-7.704889178E-1	9.792626381E0	-5.054838061E-1
1.932529860E-1	-8.721838593E-1	9.734002113E0	-5.437689424E-1
2.016560070E-1	-9.619147182E-1	9.696913719E0	-5.946164131E-1
2.100590280E-1	-9.762716293E-1	9.693324089E0	-6.077769399E-1
2.184620490E-1	-9.391828775E-1	9.719645500E0	-5.676971674E-1
2.268650700E-1	-8.985049129E-1	9.739984512E0	-5.018945336E-1
2.352680910E-1	-8.410771489E-1	9.745966911E0	-4.767699242E-1
2.436711110E-1	-8.021938205E-1	9.750752449E0	-4.845465720E-1
2.520741320E-1	-7.776673436E-1	9.738189697E0	-5.335994363E-1
2.604771530E-1	-7.806583643E-1	9.742377281E0	-5.623133183E-1
2.688801740E-1	-8.015955687E-1	9.724431038E0	-5.838487148E-1
2.772831950E-1	-8.063812256E-1	9.726225853E0	-5.742774606E-1
2.856862160E-1	-8.452646136E-1	9.734002113E0	-5.401797295E-1
2.940892360E-1	-8.536394835E-1	9.748957634E0	-5.377869010E-1
3.024922570E-1	-8.943174481E-1	9.749555588E0	-5.605186820E-1
3.108952780E-1	-9.332008362E-1	9.748957634E0	-5.952146053E-1
3.192982990E-1	-9.290133715E-1	9.717850685E0	-6.119644046E-1
3.277013200E-1	-8.644071817E-1	9.710074425E0	-5.730810165E-1
3.361043410E-1	-7.812566161E-1	9.690333366E0	-5.102694035E-1
3.445073610E-1	-7.686942816E-1	9.711869240E0	-5.431707501E-1
3.529103820E-1	-7.704889178E-1	9.738788605E0	-5.557330847E-1
3.613134030E-1	-7.962117195E-1	9.758528709E0	-5.312066078E-1
3.697164240E-1	-7.968099117E-1	9.768698692E0	-5.084748268E-1
3.781194450E-1	-8.321040869E-1	9.736394882E0	-4.767699242E-1
3.865224660E-1	-8.201399446E-1	9.651450157E0	-4.540380836E-1
3.949254860E-1	-7.435696125E-1	9.667003632E0	-6.436693072E-1
4.033285070E-1	-6.909275651E-1	9.786644936E0	-6.789634228E-1
4.117315280E-1	-6.783652306E-1	9.795019150E0	-5.330012441E-1
4.201345490E-1	-8.159525394E-1	9.669396400E0	-2.907279432E-1
4.285375700E-1	-9.505487680E-1	9.600004196E0	-3.858426511E-1
4.369405910E-1	-1.038485050E0	9.675378799E0	-5.952146053E-1
4.453436110E-1	-1.054636598E0	9.826126099E0	-6.340979934E-1
4.537466320E-1	-1.007976532E0	9.889535904E0	-5.635097623E-1
4.621496530E-1	-9.475577474E-1	9.823135376E0	-4.701896608E-1
4.705526740E-1	-9.290133715E-1	9.719047546E0	-4.630111754E-1
4.789556950E-1	-9.104689956E-1	9.665208817E0	-5.515456200E-1
4.873587160E-1	-8.315058947E-1	9.641280174E0	-6.376872063E-1
4.957617360E-1	-7.399803996E-1	9.663414001E0	-6.047859192E-1
5.041647570E-1	-7.064808607E-1	9.672387123E0	-5.676971674E-1
5.125677780E-1	-6.903293133E-1	9.678369522E0	-6.113662124E-1
5.209707990E-1	-7.172485590E-1	9.725627899E0	-6.460621357E-1
5.293738200E-1	-7.399803996E-1	9.792626381E0	-6.251249313E-1
5.377768410E-1	-7.734799385E-1	9.817750931E0	-6.095715761E-1
5.461798610E-1	-7.986045480E-1	9.778269768E0	-5.850451589E-1
5.545828820E-1	-8.231309652E-1	9.728020668E0	-5.240281820E-1
5.629859030E-1	-8.303094506E-1	9.695118904E0	-4.660021961E-1
5.713889240E-1	-8.255237937E-1	9.678967476E0	-4.606183469E-1
5.797919450E-1	-8.105686903E-1	9.706484795E0	-4.749752879E-1
5.881949660E-1	-8.249256015E-1	9.738189697E0	-4.785645306E-1
5.965979860E-1	-8.691928387E-1	9.753145218E0	-5.306084156E-1
6.050010070E-1	-9.194421172E-1	9.769296646E0	-6.000002623E-1
6.134040280E-1	-9.427721500E-1	9.768698692E0	-6.496513486E-1
6.218070490E-1	-8.691928387E-1	9.774680138E0	-6.598208547E-1
6.302100700E-1	-7.848458290E-1	9.801001549E0	-6.209374666E-1
6.386130910E-1	-7.094719410E-1	9.846465111E0	-5.898307562E-1
6.470161110E-1	-6.520441771E-1	9.843474388E0	-5.174478889E-1
6.554191320E-1	-6.185446382E-1	9.818349838E0	-4.366901219E-1
6.638221530E-1	-6.167500615E-1	9.765109062E0	-4.342973232E-1
6.722251740E-1	-7.028916478E-1	9.727422714E0	-4.253242314E-1
6.806281950E-1	-8.039883971E-1	9.728618622E0	-4.654040039E-1
6.890312160E-1	-8.799605370E-1	9.738788605E0	-5.204389095E-1
6.974342360E-1	-8.961120844E-1	9.730413437E0	-4.725824594E-1
7.058372570E-1	-8.614161611E-1	9.668798447E0	-3.481557071E-1
7.142402780E-1	-7.800601721E-1	9.655039787E0	-4.073780477E-1
7.226432990E-1	-7.310073376E-1	9.722038269E0	-4.390829504E-1
7.310463200E-1	-6.598208547E-1	9.779465675E0	-4.636093974E-1
7.394493410E-1	-6.568298340E-1	9.798608780E0	-3.517449200E-1
7.478523610E-1	-7.028916478E-1	9.774082184E0	-3.870390654E-1
7.562553820E-1	-8.123632669E-1	9.702896118E0	-5.898307562E-1
7.646584030E-1	-9.601200819E-1	9.632308006E0	-8.464609981E-1
7.730614240E-1	-9.852447510E-1	9.786644936E0	-9.517452121E-1
7.814644450E-1	-9.451649189E-1	1.011266708E1	-7.902296782E-1
7.898674660E-1	-8.243274093E-1	1.038903809E1	-7.064808607E-1
7.982704860E-1	-7.740781307E-1	1.055174923E1	-6.681957245E-1
8.066735070E-1	-9.026923180E-1	1.054995537E1	-9.260223508E-1
8.150765280E-1	-1.166501045E0	1.019880867E1	-1.212562919E0
8.234795490E-1	-1.360917926E0	9.748359680E0	-1.377667665E0
8.318825700E-1	-1.408176184E0	9.537193298E0	-1.266999602E0
8.402855910E-1	-1.327418327E0	9.705886841E0	-9.954141974E-1
8.486886110E-1	-1.275972724E0	1.010847950E1	-9.032905698E-1
8.570916320E-1	-1.280160069E0	1.039442158E1	-1.129412293E0
8.654946530E-1	-1.207777262E0	1.096869946E1	-9.284151793E-1
8.738976740E-1	-1.528415442E0	1.058524895E1	4.833501875E-1
8.823006950E-1	-1.871785522E0	9.221938133E0	6.161518097E-1
8.907037160E-1	-1.619342685E0	9.031708717E0	-5.216353536E-1
8.991067360E-1	-7.208378315E-1	9.824331284E0	-1.338784218E0
9.075097570E-1	3.302095234E-1	1.056431198E1	-6.879364848E-1
9.159127780E-1	9.649057388E-1	1.070429230E1	-4.307080805E-2
9.243157990E-1	1.053440213E0	1.023230743E1	9.272187948E-2
9.327188200E-1	9.595218897E-1	9.619745255E0	-9.332008660E-2
9.411218410E-1	1.004985452E0	9.326624870E0	-4.707878530E-1
9.495248610E-1	1.146162033E0	9.366106033E0	-7.322037220E-1
9.579278820E-1	1.012762189E0	9.350552559E0	-6.598208547E-1
9.663309030E-1	4.881358147E-1	9.154939651E0	-6.861419082E-1
9.747339240E-1	-2.656033039E-1	8.834898949E0	-9.714859724E-1
9.831369450E-1	-8.398807645E-1	8.539983749E0	-6.987041831E-1
9.915399660E-1	-5.868397355E-1	8.449056625E0	-7.663014531E-1
9.999429860E-1	3.762713671E-1	8.732605934E0	-7.567301393E-1
1.008346007E0	1.204786181E0	9.130413055E0	6.819544733E-2
1.016749028E0	1.746760488E0	9.329615593E0	-2.452643216E-2
1.025152049E0	1.585245013E0	9.365508080E0	-3.655036688E-1
1.033555070E0	6.149554253E-1	9.168698311E0	-6.921239495E-1
1.041958091E0	-5.958128572E-1	8.903095245E0	-8.656035662E-1
1.050361111E0	-1.423729420E0	8.729615211E0	-1.077368379E0
1.058764132E0	-1.546959877E0	8.641678810E0	-1.657029629E0
1.067167153E0	-9.625129104E-1	8.947959900E0	-1.980658889E0
1.075570174E0	5.982056726E-3	9.601799011E0	-1.695913076E0
1.083973195E0	1.000199914E0	1.008215809E1	-1.045065284E0
1.092376216E0	1.746162295E0	1.024845982E1	-7.782655358E-1
1.100779236E0	1.838286042E0	1.018744278E1	-7.698906660E-1
1.109182257E0	1.175474167E0	9.929615974E0	-8.021938205E-1
1.117585278E0	1.393819153E-1	9.568898201E0	-1.164706469E0
1.125988299E0	-6.897311211E-1	9.306285858E0	-1.537388563E0
1.134391320E0	-8.877372146E-1	9.235098839E0	-1.746760488E0
1.142794341E0	-3.828516304E-1	9.159725189E0	-1.681556106E0
1.151197361E0	4.827519655E-1	8.964710236E0	-1.473380566E0
1.159600382E0	1.241874933E0	8.662615776E0	-1.095912814E0
1.168003403E0	1.564307809E0	8.337192535E0	-7.824530005E-1
1.176406424E0	1.439880967E0	8.167900085E0	-6.538388133E-1
1.184809445E0	9.607182741E-1	8.309675217E0	-6.526423693E-1
1.193212466E0	3.822534084E-1	8.510671616E0	-7.202396393E-1
1.201615486E0	-1.375873014E-2	8.994620323E0	-7.022934556E-1
1.210018507E0	3.643072546E-1	9.854242325E0	-1.016949639E-1
1.218421528E0	2.206182480E0	1.130130100E1	7.387840152E-1
1.226824549E0	5.414359570E0	1.278425312E1	-1.089332461E0
1.235227570E0	8.389236450E0	1.388375473E1	-2.366501570E0
1.243630591E0	7.418348312E0	1.319043446E1	1.585244983E-1
1.252033611E0	2.727817774E0	1.112303638E1	1.491326690E0
1.260436632E0	-2.865405083E0	9.484550476E0	1.465603828E0
1.268839653E0	-7.692924976E0	8.623134613E0	-9.529415965E-1
1.277242674E0	-8.295916557E0	9.080761909E0	-4.191627026E0
1.285645695E0	-4.530809879E0	1.002293587E1	-4.146163464E0
1.294048716E0	-1.471585929E-1	1.060558796E1	-2.012363911E0
1.302451736E0	2.858824968E0	1.056311512E1	-1.286142170E-1
1.310854757E0	4.357928276E0	1.016471100E1	5.730810165E-1
1.319257778E0	4.712066174E0	9.695717812E0	7.076773047E-1
1.327660799E0	4.127020836E0	9.406784058E0	8.650053740E-1
1.336063820E0	3.002992392E0	9.386445045E0	1.052243710E0
1.344466841E0	1.594816327E0	9.415757179E0	5.670989752E-1
1.352869861E0	1.286142170E-1	9.580862045E0	2.392822690E-2
1.361272882E0	-1.123430252E0	1.001515961E1	-5.132604837E-1
1.369675903E0	-1.814357758E0	1.037049294E1	-4.947160780E-1
1.378078924E0	-1.716850281E0	1.026042366E1	2.799602449E-1
1.386481945E0	-9.661021233E-1	9.741181374E0	3.332005441E-1
1.394884966E0	-8.733802289E-2	9.416953087E0	-5.647061467E-1
1.403287986E0	6.029912829E-1	9.683753014E0	-1.078564763E0
1.411691007E0	1.080359459E0	1.008634567E1	-4.061816335E-1
1.420094028E0	1.480558991E0	1.014616585E1	-2.596212626E-1
1.428497049E0	1.579861164E0	1.001156998E1	1.794617064E-2
1.436900070E0	1.038485050E0	9.802796364E0	6.658028960E-1
1.445303091E0	3.559323549E-1	9.489336014E0	7.926225066E-1
1.453706111E0	-2.512463741E-2	9.263215065E0	8.530412912E-1
1.462109132E0	1.615155339E-1	9.305686951E0	8.279166222E-1
1.470512153E0	5.952146053E-1	9.503693581E0	7.310073376E-1
1.478915174E0	8.554341197E-1	9.678369522E0	7.040880919E-1
1.487318195E0	7.776673436E-1	9.665806770E0	2.249253243E-1
1.495721216E0	6.897311211E-1	9.650852203E0	-5.874379873E-1
1.504124236E0	7.788637877E-1	9.865009308E0	-6.789634228E-1
1.512527257E0	1.125224829E0	1.014257717E1	-4.935196638E-1
1.520930278E0	1.342971683E0	1.010668468E1	-4.043870270E-1
1.529333299E0	1.193420291E0	9.714262009E0	1.333998591E-1
1.537736320E0	1.009172916E0	9.409774780E0	5.557330847E-1
1.546139341E0	9.918249846E-1	9.464211464E0	8.865407705E-1
1.554542361E0	1.005583763E0	9.660423279E0	1.112662554E0
1.562945382E0	1.042672515E0	9.703494072E0	9.529415965E-1
1.571348403E0	1.101894855E0	9.594022751E0	6.083751321E-1
1.579751424E0	1.179063320E0	9.559925079E0	5.264210105E-1
1.588154445E0	1.295115232E0	9.600004196E0	5.928218365E-1
1.596557466E0	1.347757339E0	9.657432556E0	5.078766346E-1
1.604960486E0	1.277767301E0	9.708279610E0	4.025924206E-1
1.613363507E0	1.203589797E0	9.678369522E0	1.651047617E-1
1.621766528E0	1.173679471E0	9.648459435E0	-5.144568533E-2
1.630169549E0	1.073779106E0	9.637691498E0	-3.230310604E-2
1.638572570E0	9.308080077E-1	9.695717812E0	2.297109663E-1
1.646975591E0	8.506484628E-1	9.888937950E0	3.505485058E-1
1.655378611E0	8.027920127E-1	9.917651176E0	1.794617027E-1
1.663781632E0	7.310073376E-1	9.677771568E0	-3.708875179E-2
1.672184653E0	6.466603279E-1	9.485747337E0	-1.316052526E-1
1.680587674E0	6.921239495E-1	9.473783493E0	-6.879365444E-2
1.688990695E0	8.560323119E-1	9.547960281E0	-1.794616925E-3
1.697393716E0	9.846464992E-1	9.683155060E0	-3.230310604E-2
1.705796736E0	8.973084688E-1	9.865608215E0	-1.304088384E-1
1.714199757E0	5.012963414E-1	9.860223770E0	-8.195417374E-2
1.722602778E0	-1.286142170E-1	9.769296646E0	3.134597540E-1
1.731005799E0	-8.273184299E-1	1.031067276E1	8.488538265E-1
1.739408820E0	-1.380060434E0	1.181994534E1	1.185643673E0
1.747811841E0	-1.430309772E0	1.288295746E1	7.459624410E-1
1.756214861E0	-9.972088337E-1	1.250728416E1	1.004985496E-1
1.764617882E0	-8.279166222E-1	1.201914787E1	-3.858426511E-1
1.773020903E0	-7.028916478E-1	1.205384445E1	-9.188438654E-1
1.781423924E0	-3.230310678E-1	1.208076286E1	-1.275374413E0
1.789826945E0	2.751746178E-1	1.183729362E1	-1.619342685E0
1.798229966E0	6.472585201E-1	1.185045433E1	-1.303490162E0
1.806632986E0	8.446664214E-1	1.202692509E1	-9.529415965E-1
1.815036007E0	1.121037364E0	1.215254784E1	-8.291130662E-1
1.823439028E0	1.587039590E0	1.170209885E1	-7.674978375E-1
1.831842049E0	2.081157446E0	1.079342461E1	-5.335994363E-1
1.840245070E0	2.526222467E0	9.705886841E0	-4.396811724E-1
1.848648091E0	2.998805046E0	8.844470978E0	-1.908276081E-1
1.857051111E0	3.562912941E0	8.339585304E0	1.722832322E-1
1.865454132E0	4.167698860E0	8.116454124E0	2.715853751E-1
1.873857153E0	4.401597023E0	8.143971443E0	2.889333367E-1
1.882260174E0	2.979662418E0	8.084151268E0	9.409775138E-1
1.890663195E0	1.118644550E-1	7.385447025E0	8.195417523E-1
1.899066216E0	-2.852842808E0	6.349354744E0	-4.558327198E-1
1.907469236E0	-4.526622295E0	6.031109333E0	-1.503290772E0
1.915872257E0	-4.508676052E0	6.631708145E0	-1.459023595E0
1.924275278E0	-2.996412039E0	7.447660446E0	-1.374078393E0
1.932678299E0	-9.726824164E-1	7.928617954E0	-7.130611539E-1
1.941081320E0	7.028916478E-1	8.121239662E0	-3.176472187E-1
1.949484341E0	1.736590981E0	8.350353241E0	-1.405783296E-1
1.957887361E0	2.078764677E0	8.608778000E0	4.247260094E-2
1.966290382E0	1.832303882E0	8.798408508E0	-2.751746029E-2
1.974693403E0	1.323829174E0	8.828319550E0	-2.530409992E-1
1.983096424E0	9.912267923E-1	8.871988297E0	-4.923232496E-1
1.991499445E0	1.003789067E0	9.078967094E0	-5.443671346E-1
1.999902466E0	1.314257860E0	9.464810371E0	-4.486542344E-1
2.008305486E0	1.645065546E0	9.859027863E0	-2.913261652E-1
2.016708507E0	1.888535261E0	1.018205833E1	-1.914258152E-1
2.025111528E0	1.954936147E0	1.044646549E1	-2.309073806E-1
2.033514549E0	1.749153376E0	1.043689442E1	7.058826834E-2
2.041917570E0	1.548754454E0	1.026700401E1	-2.614158690E-1
2.050320591E0	1.412961721E0	1.040279675E1	-5.210371017E-1
2.058723611E0	1.158126116E0	1.054875851E1	-2.398804724E-1
2.067126632E0	1.035493970E0	1.026879883E1	-5.090730190E-1
2.075529653E0	1.073779106E0	9.930811882E0	-6.352944374E-1
2.083932674E0	1.220339537E0	9.638289452E0	-3.595215976E-1
2.092335695E0	1.558325768E0	9.435498238E0	-3.451646566E-1
2.100738716E0	2.067996979E0	9.521639824E0	-2.709871531E-1
2.109141736E0	2.758326292E0	9.671789169E0	9.272187948E-2
2.117544757E0	3.504288673E0	9.629316330E0	2.362912297E-1
2.125947778E0	3.956532240E0	9.643074989E0	5.318048596E-1
2.134350799E0	4.022933006E0	9.707083702E0	2.261217386E-1
2.142753820E0	3.812962770E0	9.719047546E0	-5.814558864E-1
2.151156841E0	3.592823267E0	9.910472870E0	-1.462014675E0
2.159559861E0	3.756133318E0	1.000259686E1	-1.853839397E0
2.167962882E0	4.801198483E0	9.757930756E0	-2.567498684E0
2.176365903E0	6.887141705E0	9.589835167E0	-4.085146427E0
2.184768924E0	9.811769485E0	9.657432556E0	-5.464010715E0
2.193171945E0	1.197368431E1	9.896714211E0	-3.592225075E0
2.201574966E0	1.121037388E1	1.018684387E1	1.436890006E0
2.209977986E0	7.513463020E0	1.077488041E1	5.355136871E0
2.218381007E0	2.948555708E0	1.159980583E1	5.833103180E0
2.226784028E0	-2.310868502E0	1.204846001E1	3.245265722E0
2.235187049E0	-8.223533630E0	1.171705437E1	-1.325623751E0
2.243590070E0	-1.165065384E1	1.000139999E1	-5.172684193E0
2.251993091E0	-9.664610863E0	8.260622025E0	-4.680361271E0
2.260396111E0	-4.989035130E0	7.790432453E0	-1.579262972E0
2.268799132E0	-7.698906660E-1	8.558527946E0	2.033899166E-2
2.277202153E0	2.218744755E0	9.857233047E0	8.470591903E-1
2.285605174E0	4.245465755E0	1.080179977E1	1.599003673E0
2.294008195E0	5.594419479E0	1.092383385E1	2.363510609E0
2.302411216E0	6.171089649E0	1.013121128E1	2.639881611E0
2.310814236E0	5.493322372E0	9.157332420E0	1.715653777E0
2.319217257E0	3.521038532E0	8.947361946E0	7.543373108E-1
2.327620278E0	8.416753411E-1	9.674181938E0	1.866401732E-1
2.336023299E0	-1.761715651E0	1.051226807E1	-5.718846321E-1
2.344426320E0	-3.278765202E0	1.073659515E1	-1.591825247E0
2.352829341E0	-3.022135019E0	1.015872860E1	-2.011765718E0
2.361232361E0	-1.181456208E0	9.501300812E0	-1.591227055E0
2.369635382E0	7.938188910E-1	9.421140671E0	-4.325026870E-1
2.378038403E0	2.239681959E0	9.733404160E0	8.506484628E-1
2.386441424E0	3.062214851E0	9.981060982E0	1.373480201E0
2.394844445E0	3.072384357E0	9.983454704E0	1.393221021E0
2.403247466E0	2.364706993E0	9.869196892E0	1.120439172E0
2.411650486E0	1.369890928E0	9.694520950E0	7.926225066E-1
2.420053507E0	4.755735099E-1	9.498908043E0	5.335994363E-1
2.428456528E0	1.184447184E-1	9.449854851E0	1.286142170E-1
2.436859549E0	4.031906128E-1	9.608379364E0	-9.032905847E-2
2.445262570E0	1.039681435E0	9.790233612E0	-1.160518974E-1
2.453665591E0	1.585245013E0	9.905089378E0	1.674975827E-2
2.462068611E0	1.811964989E0	9.924231529E0	1.483550072E-1
2.470471632E0	1.710269928E0	9.836894035E0	1.543370634E-1
2.478874653E0	1.377069473E0	9.738189697E0	-9.571290761E-2
2.487277674E0	9.463613629E-1	9.741181374E0	-2.757728100E-1
2.495680695E0	6.526423693E-1	9.729815483E0	-2.309073806E-1
2.504083716E0	6.376872063E-1	9.649057388E0	-2.596212626E-1
2.512486736E0	8.434699774E-1	9.654440880E0	-3.349951804E-1
2.520889757E0	9.972088337E-1	9.739984512E0	-2.309073806E-1
2.529292778E0	1.048056364E0	9.739386559E0	1.399801224E-1
2.537695799E0	1.036092162E0	9.601799011E0	2.494517565E-1
2.546098820E0	9.475577474E-1	9.497711182E0	2.237289101E-1
2.554501841E0	7.411768436E-1	9.530612946E0	1.579262912E-1
2.562904861E0	4.181457460E-1	9.684351921E0	1.944168359E-1
2.571307882E0	8.015955985E-2	9.863214493E0	1.214357466E-1
2.579710903E0	-1.022931710E-1	9.896116257E0	-9.451649338E-2
2.588113924E0	-1.238285750E-1	9.908080101E0	-2.243271172E-1
2.596516945E0	-2.691925503E-2	1.009472084E1	-1.615155339E-1
2.604919966E0	1.196411327E-1	1.033938694E1	8.973085135E-2
2.613322986E0	3.409772217E-1	1.057328510E1	4.504488707E-1
2.621726007E0	5.880361795E-1	1.087059307E1	7.399803996E-1
2.630129028E0	8.033902049E-1	1.112243748E1	8.338986635E-1
2.638532049E0	9.242277741E-1	1.130548859E1	5.443671346E-1
2.646935070E0	8.632107973E-1	1.109850979E1	1.866401732E-1
2.655338091E0	6.933203340E-1	1.052483082E1	1.549352705E-1
2.663741111E0	6.801598072E-1	1.025444126E1	-6.879365444E-2
2.672144132E0	7.004988194E-1	1.051226807E1	-1.471585929E-1
2.680547153E0	7.316055298E-1	1.103569794E1	-4.013960063E-1
2.688950174E0	7.046862841E-1	1.148435211E1	-8.249256015E-1
2.697353195E0	6.071787477E-1	1.172423267E1	-1.139581800E0
2.705756216E0	4.211367965E-1	1.171167088E1	-1.377667665E0
2.714159236E0	3.906283081E-1	1.157767200E1	-1.472782373E0
2.722562257E0	6.544370055E-1	1.122712421E1	-1.525424480E0
2.730965278E0	1.021137118E0	1.079342461E1	-1.421336651E0
2.739368299E0	1.292722464E0	1.043988514E1	-1.043868899E0
2.747771320E0	1.584048629E0	1.019222832E1	-7.926225066E-1
2.756174341E0	1.956132531E0	1.007079220E1	-7.100701332E-1
2.764577361E0	2.373081923E0	9.838688850E0	-4.863412082E-1
2.772980382E0	2.763111830E0	9.430712700E0	-2.165504545E-1
2.781383403E0	3.077768087E0	8.904291153E0	-8.374879509E-2
2.789786424E0	3.287140131E0	8.443074226E0	-1.555334684E-2
2.798189445E0	3.406183004E0	8.181658745E0	8.793623000E-2
2.806592466E0	3.439084291E0	8.085946083E0	1.286142170E-1
2.814995486E0	3.250649452E0	8.203792572E0	-8.494520187E-2
2.823398507E0	2.395813704E0	8.370692253E0	3.170489892E-2
2.831801528E0	7.555337548E-1	8.224729538E0	3.367897868E-1
2.840204549E0	-1.165304661E0	7.661818027E0	-1.603191197E-1
2.848607570E0	-2.504687071E0	7.270591736E0	-8.422735929E-1
2.857010591E0	-3.235694408E0	7.196413994E0	-3.912265003E-1
2.865413611E0	-3.206382275E0	7.280761242E0	-5.910272002E-1
2.873816632E0	-2.496312141E0	7.547560692E0	-5.485545993E-1
2.882219653E0	-1.642074585E0	7.894520283E0	-1.848455518E-1
2.890622674E0	-8.991031051E-1	8.235497475E0	-3.050848842E-2
2.899025695E0	-4.199403822E-1	8.544769287E0	9.032905847E-2
2.907428716E0	-2.608176768E-1	8.793622971E0	6.999006122E-2
2.915831736E0	-2.745763958E-1	9.029914856E0	4.785645287E-3
2.924234757E0	-2.925225794E-1	9.333204269E0	-1.142572835E-1
2.932637778E0	-1.728814393E-1	9.763314247E0	-1.130608693E-1
2.941040799E0	1.537388563E-1	1.021914768E1	-4.666004330E-2
2.949443820E0	7.004988194E-1	1.062891865E1	-3.589233849E-3
2.957846841E0	1.469193101E0	1.095135117E1	5.802594870E-2
2.966249861E0	2.307877541E0	1.113500023E1	1.788634956E-1
2.974652882E0	2.934797049E0	1.119900799E1	1.190429255E-1
2.983055903E0	3.187239647E0	1.117986584E1	8.374879509E-2
2.991458924E0	3.030509949E0	1.100997543E1	1.447657645E-1
2.999861945E0	2.531606436E0	1.055593681E1	2.482553422E-1
3.008264966E0	2.070389748E0	1.005284595E1	2.392822644E-3
3.016667986E0	1.826321840E0	9.833903313E0	-2.147558331E-1
3.025071007E0	1.714457393E0	9.773484230E0	3.349951655E-2
3.033474028E0	1.889731646E0	9.613164902E0	3.349951804E-1
3.041877049E0	2.447857618E0	9.362516403E0	2.524427772E-1
3.050280070E0	3.215953588E0	9.139386177E0	-1.328016520E-1
3.058683091E0	3.896113396E0	9.055039406E0	-4.396811724E-1
3.067086111E0	4.214358807E0	9.121439934E0	-5.180460811E-1
3.075489132E0	4.173680782E0	9.119047165E0	-7.902296782E-1
3.083892153E0	3.990031719E0	8.934201241E0	-1.529611826E0
3.092295174E0	3.858426571E0	8.632705688E0	-2.009372711E0
3.100698195E0	3.891926050E0	8.410173416E0	-1.971685886E0
3.109101216E0	4.020540237E0	8.290532112E0	-1.680359721E0
3.117504236E0	4.151547432E0	8.231309891E0	-1.363908887E0
3.125907257E0	4.369294167E0	8.258827209E0	-9.158528447E-1
3.134310278E0	4.844867706E0	8.437092781E0	1.034895778E-1
3.142713299E0	6.119643688E0	9.006584167E0	-7.292127013E-1
3.151116320E0	8.313861847E0	1.159382439E1	-3.460021496E0
3.159519341E0	9.542576790E0	1.521536064E1	-4.051048756E0
3.167922361E0	7.841279984E0	1.695135307E1	-2.373680115E0
3.176325382E0	3.063411236E0	1.534397507E1	-7.178468257E-2
3.184728403E0	-2.737389088E0	1.218664551E1	1.756929994E0
3.193131424E0	-8.748159409E0	8.469993591E0	1.339382529E0
3.201534445E0	-1.198445225E1	5.508277893E0	-3.339184046E0
3.209937466E0	-9.785448074E0	5.591428280E0	-5.849853039E0
3.218340486E0	-5.148158073E0	8.016553879E0	-3.192623615E0
3.226743507E0	-1.006780148E0	1.053978539E1	3.050848842E-2
3.235146528E0	2.140978098E0	1.177029419E1	1.217946768E0
3.243549549E0	4.434498787E0	1.163210869E1	1.527817249E0
3.251952570E0	5.516054630E0	1.059900761E1	2.311466694E0
3.260355591E0	5.323431969E0	9.433703423E0	3.148954630E0
3.268758611E0	4.120440483E0	8.860024452E0	1.893919110E0
3.277161632E0	2.453839540E0	9.198010445E0	-9.152546525E-2
3.285564653E0	6.311069727E-1	9.956535339E0	-1.088734269E0
3.293967674E0	-8.063812256E-1	1.045663452E1	-1.657029629E0
3.302370695E0	-1.422533035E0	1.047159004E1	-2.361117840E0
3.310773716E0	-1.253240824E0	1.023350430E1	-2.228914261E0
3.319176736E0	-5.258227587E-1	9.915857315E0	-1.119840980E0
3.327579757E0	4.390829504E-1	9.794421196E0	-5.862415582E-2
3.335982778E0	1.237687469E0	9.827322960E0	7.645068169E-1
3.344385799E0	1.733600020E0	9.857233047E0	1.107278705E0
3.352788820E0	1.730608940E0	9.787242889E0	1.339382529E0
3.361191841E0	1.169492126E0	9.658628464E0	1.549352646E0
3.369594861E0	5.449653864E-1	9.562915802E0	1.386042476E0
3.377997882E0	1.770688742E-1	9.591629982E0	9.559326172E-1
3.386400903E0	1.866401732E-1	9.699904442E0	6.119644046E-1
3.394803924E0	5.401797295E-1	9.728618622E0	4.247260094E-1
3.403206945E0	1.066600680E0	9.718449593E0	2.578266263E-1
3.411609966E0	1.459023595E0	9.755537987E0	3.708875179E-2
3.420012986E0	1.573879123E0	9.758528709E0	-2.333002165E-2
3.428416007E0	1.500299811E0	9.752547264E0	-3.349951655E-2
3.436819028E0	1.345962763E0	9.832706451E0	-8.673982322E-2
3.445222049E0	1.076171994E0	9.869196892E0	8.015955985E-2
3.453625070E0	6.586244106E-1	9.758528709E0	2.572284341E-1
3.462028091E0	1.932204217E-1	9.705886841E0	2.727817893E-1
3.470431111E0	-7.357929647E-2	9.770493507E0	2.823530734E-1
3.478834132E0	3.708875179E-2	9.734002113E0	3.696911037E-1
3.487237153E0	3.798605800E-1	9.513264656E0	4.582255483E-1
3.495640174E0	7.561319470E-1	9.350552559E0	4.301098585E-1
3.504043195E0	9.900303483E-1	9.494122505E0	3.080759048E-1
3.512446216E0	9.188438654E-1	9.813564301E0	1.884347796E-1
3.520849236E0	6.861419082E-1	1.005224800E1	8.913264424E-2
3.529252257E0	4.546363056E-1	1.007617569E1	-1.292124242E-1
3.537655278E0	2.709871531E-1	9.911669731E0	-3.212364316E-1
3.546058299E0	1.746760458E-1	9.812965393E0	-2.135594189E-1
3.554461320E0	3.409772366E-2	9.798608780E0	5.742774159E-2
3.562864341E0	-1.435693651E-1	9.723833084E0	-0.000000000E0
3.571267361E0	-3.517449200E-1	9.716654778E0	-1.776670814E-1
3.579670382E0	-5.569294691E-1	9.799804688E0	-1.501496136E-1
3.588073403E0	-6.400800347E-1	9.870393753E0	9.092725813E-2
3.596476424E0	-4.983053207E-1	9.980463028E0	5.527420044E-1
3.604879445E0	-2.865405083E-1	1.034058285E1	1.143769264E0
3.613282466E0	-1.142572835E-1	1.098305607E1	1.564307809E0
3.621685486E0	1.016949583E-2	1.158305645E1	1.606780410E0
3.630088507E0	6.281159073E-2	1.147179031E1	1.090528965E0
3.638491528E0	7.716853172E-2	1.079043388E1	4.612165689E-1
3.646894549E0	-1.794616925E-3	1.011206818E1	-2.069791555E-1
3.655297570E0	-2.416750938E-1	9.999606133E0	-3.696911037E-1
3.663700591E0	-3.314059377E-1	1.048176003E1	-1.668993831E-1
3.672103611E0	-2.691925503E-2	1.108833981E1	-2.482553422E-1
3.680506632E0	5.425725579E-1	1.151605701E1	-8.045865893E-1
3.688909653E0	8.099704385E-1	1.176790142E1	-8.207381964E-1
3.697312674E0	6.891329288E-1	1.165723324E1	-7.034898400E-1
3.705715695E0	6.640082598E-1	1.135274696E1	-8.841479421E-1
3.714118716E0	8.823533654E-1	1.113500023E1	-8.991031051E-1
3.722521736E0	1.363310695E0	1.087059307E1	-8.703892231E-1
3.730924757E0	1.814955950E0	1.052064323E1	-8.051848412E-1
3.739327778E0	2.221137524E0	1.008814049E1	-6.275177598E-1
3.747730799E0	2.561516523E0	9.639486313E0	-4.007977843E-1
3.756133820E0	2.855833769E0	9.235098839E0	-3.792623878E-1
3.764536841E0	3.113062143E0	8.923434258E0	-2.853440940E-1
3.772939861E0	3.387638569E0	8.733802795E0	-1.256231871E-2
3.781342882E0	3.750151396E0	8.638090134E0	1.429711580E-1
3.789745903E0	4.083950043E0	8.702097893E0	3.535395563E-1
3.798148924E0	4.280161381E0	8.915059090E0	5.060819983E-1
3.806551945E0	4.098905087E0	9.158528328E0	3.176472187E-1
3.814954966E0	2.973082066E0	9.223134995E0	1.322034448E-1
3.823357986E0	8.386843204E-1	8.811569214E0	3.451646566E-1
3.831761007E0	-1.416550994E0	7.884948730E0	-4.534398913E-1
3.840164028E0	-2.642872572E0	7.259225845E0	-1.395015597E0
3.848567049E0	-2.728415966E0	7.414160728E0	-1.279561877E0
3.856970070E0	-1.936989903E0	7.954938889E0	-8.428717852E-1
3.865373091E0	-6.813562512E-1	8.423932076E0	-4.564309120E-1
3.873776111E0	5.228317380E-1	8.699107170E0	-2.775674164E-1
3.882179132E0	1.352542996E0	9.016156197E0	-3.469592705E-2
3.890582153E0	1.619342685E0	9.324232101E0	2.709871531E-1
3.898985174E0	1.242473125E0	9.367302895E0	3.146561682E-1
3.907388195E0	4.863412082E-1	9.150154114E0	4.606183618E-2
3.915791216E0	-1.848455518E-1	9.002396584E0	-2.327020019E-1
3.924194236E0	-5.623133183E-1	9.084949493E0	-1.974078715E-1
3.932597257E0	-5.012963414E-1	9.274580956E0	-2.344966233E-1
3.941000278E0	-2.081755698E-1	9.455837250E0	-2.177468538E-1
3.949403299E0	1.609173268E-1	9.565308571E0	-9.212367237E-2
3.957806320E0	5.108676553E-1	9.639486313E0	1.549352705E-1
3.966209341E0	8.153542876E-1	9.704092026E0	4.480560422E-1
3.974612361E0	1.078564763E0	9.740582466E0	6.089733839E-1
3.983015382E0	1.278963685E0	9.785448074E0	6.646065116E-1
3.991418403E0	1.341775298E0	9.796813965E0	6.855437160E-1
3.999821424E0	1.174277663E0	9.687940598E0	6.885347366E-1
4.008224445E0	7.854440212E-1	9.461818695E0	5.276173949E-1
4.016627466E0	3.595215976E-1	9.256035805E0	3.649054468E-1
4.025030486E0	1.561316848E-1	9.118449211E0	2.524427772E-1
4.033433507E0	2.865405083E-1	9.192028046E0	-7.058826834E-2
4.041836528E0	6.382854581E-1	9.471988678E0	-1.579262912E-1
4.050239549E0	1.118046403E0	9.759725571E0	-2.105683982E-1
4.058642570E0	1.667199135E0	1.001336479E1	-3.445664644E-1
4.067045591E0	2.232503414E0	1.021316528E1	-4.211367965E-1
4.075448611E0	2.743371248E0	1.035733318E1	-3.852444589E-1
4.083851632E0	3.209971666E0	1.033400249E1	-3.583251834E-1
4.092254653E0	3.571287870E0	1.021376324E1	-2.955136001E-1
4.100657674E0	3.930211306E0	9.959526062E0	-4.552344978E-1
4.109060695E0	4.505086899E0	9.655039787E0	-7.357929349E-1
4.117463716E0	5.242076397E0	9.401400566E0	-5.934200287E-1
4.125866736E0	6.031109333E0	9.537791252E0	1.016949583E-2
4.134269757E0	7.158128738E0	1.012463093E1	1.304686546E0
4.142672778E0	9.922437668E0	1.101595688E1	2.059622049E0
4.151075799E0	1.644826317E1	1.158245754E1	-2.127817631E0
4.159478820E0	2.467658234E1	1.310907841E1	-1.118704414E1
4.167881841E0	2.248714828E1	1.369113255E1	-6.400202274E0
4.176284861E0	1.118465137E1	1.179242802E1	5.964708805E0
4.184687882E0	1.627119422E0	1.036451149E1	9.159725189E0
4.193090903E0	-8.797212601E0	8.668598175E0	6.589235306E0
4.201493924E0	-1.855155373E1	8.538188934E0	-4.221537113E0
4.209896945E0	-1.781396675E1	9.618548393E0	-1.465723515E1
4.218299966E0	-1.209811115E1	1.017547798E1	-1.026700401E1
4.226702986E0	-5.395216942E0	9.540184021E0	-1.866401732E-1
4.235106007E0	-1.102493048E0	8.422736168E0	2.017747641E0
4.243509028E0	2.571686029E0	8.560322762E0	4.247260094E-1
4.251912049E0	5.888138294E0	9.890732765E0	1.371087432E0
4.260315070E0	8.128418922E0	1.100518990E1	3.725624800E0
4.268718091E0	8.699705124E0	1.090887833E1	3.466003656E0
4.277121111E0	7.271788120E0	9.822537422E0	1.910668850E0
4.285524132E0	4.405784607E0	8.956933022E0	1.064806104E0
4.293927153E0	1.424925923E0	9.053244591E0	2.835494876E-1
4.302330174E0	-1.263410330E0	9.743574142E0	-9.200403094E-1
4.310733195E0	-3.373281717E0	1.044227791E1	-2.066202402E0
4.319136216E0	-4.272384644E0	1.055593681E1	-2.295913219E0
4.327539236E0	-3.650250912E0	1.014437199E1	-1.325623751E0
4.335942257E0	-2.106880426E0	9.651450157E0	-1.310070455E-1
4.344345278E0	-3.984049559E-1	9.382855415E0	6.897311211E-1
4.352748299E0	1.109671474E0	9.416355133E0	9.140582681E-1
4.361151320E0	2.193022013E0	9.593423843E0	1.059422255E0
4.369554341E0	2.566900492E0	9.871589661E0	1.434497118E0
4.377957361E0	2.008774519E0	1.006062317E1	1.843071699E0
4.386360382E0	8.817551732E-1	9.906884193E0	1.865803480E0
4.394763403E0	-8.673982322E-2	9.591629982E0	1.281954765E0
4.403166424E0	-6.604190469E-1	9.422935486E0	5.802595019E-1
4.411569445E0	-7.680960894E-1	9.476774216E0	2.817548811E-1
4.419972466E0	-4.857429862E-1	9.692726135E0	2.428714931E-1
4.428375486E0	-3.230310604E-2	9.955338478E0	-3.170489892E-2
4.436778507E0	4.606183469E-1	1.014197922E1	-9.990034252E-2
4.445181528E0	9.290133715E-1	1.006660461E1	-2.769692242E-1
4.453584549E0	1.250848055E0	9.910472870E0	-2.679961324E-1
4.461987570E0	1.291526079E0	9.820742607E0	-6.580262445E-3
4.470390591E0	1.028315544E0	9.730413437E0	3.511467278E-1
4.478793611E0	6.334998012E-1	9.588638306E0	7.106683254E-1
4.487196632E0	3.577269912E-1	9.489934921E0	7.268198729E-1
4.495599653E0	2.207378894E-1	9.595816612E0	5.413761139E-1
4.504002674E0	7.357929647E-2	9.761520386E0	4.331009090E-1
4.512405695E0	-2.632104978E-2	9.832706451E0	2.973082066E-1
4.520808716E0	-1.064806059E-1	9.888339996E0	2.715853751E-1
4.529211736E0	-8.973085135E-2	9.882955551E0	3.308077157E-1
4.537614757E0	5.443671346E-2	9.696913719E0	4.151547253E-1
4.546017778E0	1.274178028E-1	9.513264656E0	3.026920557E-1
4.554420799E0	2.452643216E-2	9.525827408E0	2.051845491E-1
4.562823820E0	-1.764706671E-1	9.585049629E0	2.757728100E-1
4.571226841E0	-2.255235314E-1	9.562915802E0	3.254238665E-1
4.579629861E0	-7.716853172E-2	9.588638306E0	3.284149170E-1
4.588032882E0	1.286142170E-1	9.672985077E0	3.523431420E-1
4.596435903E0	2.685943544E-1	9.607781410E0	5.234299302E-1
4.604838924E0	2.835494876E-1	9.447462082E0	7.567301393E-1
4.613241945E0	2.075773627E-1	9.297312737E0	1.016949654E0
4.621644966E0	5.623133108E-2	9.246464729E0	1.052243710E0
4.630047986E0	-8.554340899E-2	9.396016121E0	9.188438654E-1
4.638451007E0	-2.135594189E-1	9.806983948E0	8.536394835E-1
4.646854028E0	-4.785645306E-1	1.049312592E1	1.071984529E0
4.655257049E0	-7.447660565E-1	1.187139130E1	1.552343726E0
4.663660070E0	-6.430711150E-1	1.337587833E1	1.494915962E0
4.672063091E0	1.806581169E-1	1.320957756E1	6.329016089E-1
4.680466111E0	1.258624673E0	1.123669529E1	-4.414757788E-1
4.688869132E0	1.721635938E0	1.004506969E1	-6.975077987E-1
4.697272153E0	1.494915962E0	1.028734303E1	-3.966103494E-1
4.705675174E0	1.066600680E0	1.125344467E1	-4.564309120E-1
4.714078195E0	1.223928809E0	1.213579845E1	-6.125625968E-1
4.722481216E0	1.646261930E0	1.219382381E1	-6.771687865E-1
4.730884236E0	1.956132531E0	1.159262753E1	-1.183848977E0
4.739287257E0	1.883151412E0	1.107338524E1	-9.840483069E-1
4.747690278E0	1.872383714E0	1.075932693E1	-7.962117195E-1
4.756093299E0	2.141576290E0	1.050748253E1	-6.370890141E-1
4.764496320E0	2.696711063E0	1.015513897E1	-5.952146053E-1
4.772899341E0	3.304488182E0	9.851848602E0	-2.667997181E-1
4.781302361E0	3.745365620E0	9.645467758E0	7.477571070E-2
4.789705382E0	3.939782381E0	9.485149384E0	2.913261652E-1
4.798108403E0	3.789632797E0	9.375079155E0	-8.374879509E-2
4.806511424E0	2.438884497E0	9.458827972E0	3.852444589E-1
4.814914445E0	-1.573280841E-1	8.886942863E0	5.593222976E-1
4.823317466E0	-3.035893679E0	7.767102242E0	-1.680957973E-1
4.831720486E0	-4.970490932E0	7.309474945E0	-1.376471281E0
4.840123507E0	-5.676373482E0	7.257431030E0	-7.148557901E-1
4.848526528E0	-4.587040901E0	7.439883709E0	-1.394417405E0
4.856929549E0	-2.516651154E0	8.261219978E0	-1.220339537E0
4.865332570E0	-6.957131624E-1	8.931808472E0	-2.656033039E-1
4.873735591E0	6.807580590E-1	9.118449211E0	-8.673982322E-2
4.882138611E0	1.426720500E0	9.100502968E0	-9.571290761E-2
4.890541632E0	1.418943882E0	9.029315948E0	1.686939895E-1
4.898944653E0	1.000798106E0	8.933603287E0	1.202393398E-1
4.907347674E0	6.382854581E-1	8.964112282E0	-8.434699476E-2
4.915750695E0	5.802595019E-1	9.132207870E0	-1.615155339E-1
4.924153716E0	9.332008362E-1	9.394221306E0	-2.638086975E-1
4.932556736E0	1.488933921E0	9.716654778E0	-8.315058798E-2
4.940959757E0	2.066800594E0	9.940383911E0	1.956132501E-1
4.949362778E0	2.571087837E0	9.974481583E0	2.021935135E-1
4.957765799E0	2.796611547E0	1.000857925E1	6.699903309E-2
4.966168820E0	2.585444927E0	1.008156013E1	2.392822690E-2
4.974571841E0	1.991426587E0	9.989436150E0	-2.087737769E-1
4.982974861E0	1.267597795E0	9.744172096E0	-4.594219327E-1
4.991377882E0	8.231309652E-1	9.601201057E0	-5.401797295E-1
4.999780903E0	7.860422134E-1	9.628718376E0	-4.504488707E-1
5.008183924E0	1.207777262E0	9.672985077E0	-4.031906128E-1
5.016586945E0	2.129014015E0	9.610174179E0	-4.450650215E-1
5.024989966E0	3.311068296E0	9.510871887E0	-1.764706671E-1
5.033392986E0	4.539782524E0	9.499505997E0	5.395814776E-1
5.041796007E0	5.411368370E0	9.440881729E0	1.432104349E0
5.050199028E0	5.625525951E0	9.230313301E0	1.959721804E0
5.058602049E0	5.145166874E0	8.958129883E0	1.823929071E0
5.067005070E0	4.245465755E0	8.803792953E0	1.070788145E0
5.075408091E0	3.357728481E0	8.998807907E0	2.422732860E-1
5.083811111E0	2.647060156E0	9.311071396E0	-1.196411322E-3
5.092214132E0	2.240280151E0	9.513862610E0	3.188436031E-1
5.100617153E0	2.251646042E0	9.516854286E0	7.920243144E-1
5.109020174E0	2.923431158E0	9.705886841E0	8.919246197E-1
5.117423195E0	4.371686935E0	1.047398281E1	9.308080077E-1
5.125826216E0	6.829713821E0	1.155793190E1	1.068395257E0
5.134229236E0	1.130489063E1	1.210469151E1	-2.044667006E0
5.142632257E0	1.625863075E1	1.180738354E1	-5.137988567E0
5.151035278E0	1.544267941E1	1.065344429E1	-1.806581140E0
5.159438299E0	8.556135178E0	9.008378983E0	3.760320902E0
5.167841320E0	2.130808592E0	8.668000221E0	5.909673691E0
5.176244341E0	-3.848257065E0	9.268000603E0	5.062016487E0
5.184647361E0	-9.655039787E0	1.108415222E1	-5.958128572E-1
5.193050382E0	-1.174098206E1	1.243191051E1	-8.366504669E0
5.201453403E0	-8.812766075E0	1.122293663E1	-6.845865726E0
5.209856424E0	-4.666004181E0	8.953942299E0	-1.016949654E0
5.218259445E0	-1.018744230E0	7.761120319E0	8.243274093E-1
5.226662466E0	2.178066730E0	8.264211655E0	1.537388563E-1
5.235065486E0	4.932205677E0	9.585647583E0	3.637090325E-1
5.243468507E0	6.869195461E0	1.085862923E1	1.691127419E0
5.251871528E0	7.542775154E0	1.109551907E1	1.856830359E0
5.260274549E0	6.203392506E0	1.041476059E1	8.141579032E-1
5.268677570E0	3.409772158E0	9.775876999E0	5.850451589E-1
5.277080591E0	3.409772217E-1	9.617352486E0	3.158525825E-1
5.285483611E0	-2.129014015E0	9.934401512E0	-5.485545993E-1
5.293886632E0	-3.539582968E0	1.022094154E1	-1.426720500E0
5.302289653E0	-3.654438496E0	1.018624592E1	-1.379462242E0
5.310692674E0	-2.496910334E0	9.834501266E0	-2.440679073E-1
5.319095695E0	-8.279166222E-1	9.519247055E0	5.910272002E-1
5.327498716E0	6.161518097E-1	9.523433685E0	1.115055323E0
5.335901736E0	1.669592023E0	9.587442398E0	1.667199135E0
5.344304757E0	2.236092806E0	9.643074989E0	1.417747378E0
5.352707778E0	2.241476536E0	9.860223770E0	8.662018180E-1
5.361110799E0	1.748555183E0	1.001815033E1	4.671986103E-1
5.369513820E0	1.176072359E0	9.911071777E0	1.585244983E-1
5.377916841E0	8.829515576E-1	9.739984512E0	9.750752151E-2
5.386319861E0	8.171489239E-1	9.611968994E0	2.225325108E-1
5.394722882E0	9.026923180E-1	9.522237778E0	4.773681164E-1
5.403125903E0	1.004985452E0	9.547960281E0	5.174478889E-1
5.411528924E0	1.239482164E0	9.763314247E0	4.552344978E-1
5.419931945E0	1.359721422E0	9.866804123E0	4.683950245E-1
5.428334966E0	1.264606714E0	9.803992271E0	5.772684813E-1
5.436737986E0	1.027119160E0	9.829715729E0	6.909275651E-1
5.445141007E0	8.709874153E-1	9.873384476E0	5.156532526E-1
5.453544028E0	8.572286963E-1	9.772287369E0	2.895315289E-1
5.461947049E0	9.152546525E-1	9.477372169E0	2.243271172E-1
5.470350070E0	9.774680734E-1	9.387641907E0	1.728814393E-1
5.478753091E0	1.071386337E0	9.594022751E0	1.304088384E-1
5.487156111E0	1.070189953E0	9.768698692E0	1.740778536E-1
5.495559132E0	8.883354068E-1	9.715457916E0	1.525424421E-1
5.503962153E0	6.317051649E-1	9.645467758E0	1.375873014E-2
5.512365174E0	4.175475538E-1	9.638887405E0	-1.794617027E-1
5.520768195E0	3.080759048E-1	9.568299294E0	-3.684946895E-1
5.529171216E0	3.960121572E-1	9.527023315E0	-2.697907388E-1
5.537574236E0	6.209374666E-1	9.499505997E0	-7.477571070E-2
5.545977257E0	7.543373108E-1	9.503693581E0	9.451649338E-2
5.554380278E0	6.436693072E-1	9.496515274E0	6.047859192E-1
5.562783299E0	3.601198196E-1	9.408578873E0	9.565308690E-1
5.571186320E0	2.554338276E-1	9.431908607E0	3.936193287E-1
5.579589341E0	3.349951804E-1	9.726225853E0	2.093719877E-2
5.587992361E0	4.169493318E-1	1.048893833E1	-1.196411322E-3
5.596395382E0	5.383850932E-1	1.226321602E1	2.679961324E-1
5.604798403E0	8.943174481E-1	1.409432316E1	6.041877344E-2
5.613201424E0	1.499701619E0	1.395434380E1	-1.884347796E-1
5.621604445E0	1.683350682E0	1.193360519E1	-4.767699242E-1
5.630007466E0	1.155135155E0	1.014138031E1	-3.972085714E-1
5.638410486E0	3.355933726E-1	9.470791817E0	-1.369891018E-1
5.646813507E0	-1.196411322E-3	9.841081619E0	-7.621139884E-1
5.655216528E0	3.720839322E-1	1.069591713E1	-1.059422255E0
5.663619549E0	9.619147182E-1	1.145563793E1	-9.589236975E-1
5.672022570E0	1.303490162E0	1.184387398E1	-8.985049129E-1
5.680425591E0	1.298704505E0	1.198923779E1	-9.499505758E-1
5.688828611E0	1.350150228E0	1.188036442E1	-8.566305041E-1
5.697231632E0	1.603191137E0	1.156451225E1	-6.759724021E-1
5.705634653E0	1.964507341E0	1.105603695E1	-4.378865361E-1
5.714037674E0	2.283350945E0	1.056371403E1	-2.727817893E-1
5.722440695E0	2.545365095E0	1.013240719E1	-1.381855011E-1
5.730843716E0	2.819343328E0	9.703494072E0	1.734796464E-1
5.739246736E0	3.168695450E0	9.257830620E0	4.462614357E-1
5.747649757E0	3.499503136E0	8.907880783E0	6.586244106E-1
5.756052778E0	3.583251953E0	8.700303078E0	9.122636318E-1
5.764455799E0	2.929413080E0	8.432905197E0	9.720842242E-1
5.772858820E0	1.515853167E0	8.222934723E0	9.385846853E-1
5.781261841E0	-4.731806815E-1	7.717451096E0	1.465603828E0
5.789664861E0	-2.361716032E0	7.019943237E0	-2.392822690E-2
5.798067882E0	-3.582055569E0	6.953542709E0	-1.144367456E0
5.806470903E0	-4.025924206E0	7.402196884E0	-9.577272534E-1
5.814873924E0	-3.502494097E0	7.708477974E0	-6.053841114E-1
5.823276945E0	-2.084148407E0	7.869395256E0	-6.370890141E-1
5.831679966E0	-6.340979934E-1	8.123632431E0	-3.200400174E-1
5.840082986E0	3.302095234E-1	8.441878319E0	1.722832322E-1
5.848486007E0	7.639086246E-1	8.675776482E0	4.067798555E-1
5.856889028E0	6.418746710E-1	8.726025581E0	3.200400174E-1
5.865292049E0	1.495514214E-1	8.754739761E0	6.819544733E-2
5.873695070E0	-4.408775866E-1	8.830113411E0	2.392822690E-2
5.882098091E0	-8.003991842E-1	8.891729355E0	-1.196411322E-3
5.890501111E0	-7.872386575E-1	9.057432175E0	-1.668993831E-1
5.898904132E0	-5.509474277E-1	9.292527199E0	-1.411765367E-1
5.907307153E0	-2.207378894E-1	9.524032593E0	-1.872383654E-1
5.915710174E0	3.589234129E-2	9.753743172E0	-2.303091735E-1
5.924113195E0	1.782652885E-1	9.962516785E0	2.123630047E-1
5.932516216E0	5.084748268E-1	1.016530895E1	5.503492355E-1
5.940919236E0	1.218544960E0	1.065523911E1	4.893322289E-1
5.949322257E0	2.090728760E0	1.142453194E1	5.688936114E-1
5.957725278E0	2.611765862E0	1.197009563E1	9.936196208E-1
5.966128299E0	2.629113913E0	1.188096237E1	9.655039310E-1
5.974531320E0	2.285743713E0	1.145264721E1	2.667997181E-1
5.982934341E0	1.859821439E0	1.121396351E1	-1.591227055E-1
5.991337361E0	1.725823283E0	1.110509014E1	-1.202393398E-1
5.999740382E0	2.021935225E0	1.095733356E1	-5.503492057E-2
6.008143403E0	2.628515720E0	1.069113159E1	-1.351944804E-1
6.016546424E0	3.238685369E0	1.037886810E1	1.316052489E-2
6.024949445E0	3.899104595E0	1.005165005E1	-8.614161611E-2
6.033352466E0	4.676771641E0	9.523433685E0	-4.097708762E-1
6.041755486E0	5.434100151E0	8.962317467E0	-2.488535494E-1
6.050158507E0	6.031109333E0	8.398807526E0	4.785645381E-2
6.058561528E0	6.549753666E0	7.847859859E0	-1.495514158E-2
6.066964549E0	6.982256413E0	7.436892986E0	-3.565305769E-1
6.075367570E0	7.294519901E0	7.092924595E0	-6.687939167E-1
6.083770591E0	7.414160728E0	6.771090031E0	-1.162911773E0
6.092173611E0	7.210771084E0	6.573083878E0	-1.651645780E0
6.100576632E0	6.945167542E0	6.559325218E0	-1.990828395E0
6.108979653E0	6.984649181E0	7.575078487E0	-2.382653236E0
6.117382674E0	7.465606689E0	1.159262753E1	-1.810170293E0
6.125785695E0	7.485945702E0	1.823869324E1	1.455434322E0
6.134188716E0	5.636293888E0	2.290589333E1	3.554538012E0
6.142591736E0	1.402194023E0	2.090369797E1	3.382254839E0
6.150994757E0	-4.205385685E0	1.299541950E1	2.517249346E0
6.159397778E0	-8.179863930E0	5.184050083E0	-3.454039574E0
6.167800799E0	-8.703892708E0	1.881356835E0	-5.770890236E0
6.176203820E0	-6.455237389E0	3.153740168E0	-3.219542980E0
6.184606841E0	-3.342773199E0	7.182655334E0	-1.218544960E0
6.193009861E0	-4.761717021E-1	1.144367409E1	4.055834413E-1
6.201412882E0	2.516651154E0	1.368215942E1	2.322234392E0
6.209815903E0	5.528018475E0	1.306122208E1	2.171486616E0
6.218218924E0	7.585247993E0	1.064088249E1	-3.116651475E-1
6.226621945E0	7.482356548E0	8.662615776E0	-1.198205948E0
6.235024966E0	5.235496044E0	8.420342445E0	5.228317380E-1
6.243427986E0	2.328216314E0	9.580862045E0	6.981059909E-1
6.251831007E0	-2.093719840E-1	1.108475113E1	-7.268198729E-1
6.260234028E0	-2.112264156E0	1.151844978E1	-1.393819213E0
6.268637049E0	-2.701496840E0	1.053081226E1	-1.562513232E0
6.277040070E0	-1.972882271E0	9.204590797E0	-7.824530005E-1
6.285443091E0	-7.100701332E-1	8.715856552E0	6.891329288E-1
6.293846111E0	6.137589812E-1	9.117850304E0	1.642672777E0
6.302249132E0	1.699502230E0	9.747162819E0	1.850250125E0
6.310652153E0	2.343769789E0	9.999007225E0	1.742573142E0
6.319055174E0	2.409572363E0	9.993623734E0	1.528415442E0
6.327458195E0	1.901097536E0	9.885348320E0	1.424925923E0
6.335861216E0	1.095912814E0	9.753743172E0	1.108475089E0
6.344264236E0	3.894318938E-1	9.645467758E0	5.473581553E-1
6.352667257E0	2.153540403E-2	9.557532310E0	-5.443671346E-2
6.361070278E0	9.990034252E-2	9.559326172E0	-3.625126183E-1
6.369473299E0	6.041877270E-1	9.711270332E0	-1.944168359E-1
6.377876320E0	1.152742267E0	9.805189133E0	-3.948157281E-2
6.386279341E0	1.484746456E0	9.838089943E0	2.189432681E-1
6.394682361E0	1.562513232E0	9.763913155E0	3.786641955E-1
6.403085382E0	1.351944804E0	9.648459435E0	2.763710022E-1
6.411488403E0	8.614161611E-1	9.690931320E0	3.314059377E-1
6.419891424E0	2.913261652E-1	9.787242889E0	2.344966233E-1
6.428294445E0	-1.393819153E-1	9.784850121E0	-3.469592705E-2
6.436697466E0	-3.391826153E-1	9.664012909E0	-2.003988922E-1
6.445100486E0	-2.392822653E-1	9.637691498E0	-4.247260094E-2
6.453503507E0	2.297109663E-1	9.759127617E0	2.446661144E-1
6.461906528E0	7.639086246E-1	9.935597420E0	3.355933726E-1
6.470309549E0	9.523434043E-1	1.000738239E1	5.347958803E-1
6.478712570E0	7.064808607E-1	9.851250648E0	7.633104324E-1
6.487115591E0	3.816552162E-1	9.595816612E0	7.639086246E-1
6.495518611E0	2.572284341E-1	9.442078590E0	3.930211067E-1
6.503921632E0	2.662015259E-1	9.363713264E0	2.691925466E-1
6.512324653E0	3.439682424E-1	9.370891571E0	5.168496966E-1
6.520727674E0	3.110669553E-1	9.496515274E0	9.026923180E-1
6.529130695E0	2.297109663E-1	9.729815483E0	5.377869010E-1
6.537533716E0	1.728814393E-1	1.002473068E1	3.649054468E-1
6.545936736E0	1.944168359E-1	1.024666500E1	2.757728100E-1
6.554339757E0	2.961117923E-1	1.053799057E1	3.427718580E-1
6.562742778E0	5.246263742E-1	1.082512951E1	4.277170599E-1
6.571145799E0	9.355936646E-1	1.082213879E1	2.967100143E-1
6.579548820E0	1.483550072E0	1.030349445E1	1.148554832E-1
6.587951841E0	1.899302959E0	9.496515274E0	2.811566554E-2
6.596354861E0	2.048256159E0	8.876175880E0	3.050848842E-2
6.604757882E0	2.007578135E0	8.792427063E0	-3.104687333E-1
6.613160903E0	1.867598057E0	9.380462646E0	-2.620140910E-1
6.621563924E0	1.738385677E0	1.012881851E1	-2.685943544E-1
6.629966945E0	1.689931035E0	1.059063339E1	-2.273181528E-1
6.638369966E0	1.492523074E0	1.057627583E1	-1.645065546E-1
6.646772986E0	9.595218897E-1	1.037408257E1	1.417747438E-1
6.655176007E0	3.960121572E-1	1.029811001E1	4.540380836E-1
6.663579028E0	8.374879509E-2	1.032502937E1	5.150550604E-1
6.671982049E0	1.040877849E-1	1.032263660E1	2.470589429E-1
6.680385070E0	1.531406492E-1	1.047458076E1	1.357926875E-1
6.688788091E0	7.836493850E-2	1.077248764E1	-4.127619043E-2
6.697191111E0	-1.854437590E-2	1.118943691E1	-2.285145670E-1
6.705594132E0	-6.460621208E-2	1.158604717E1	-4.205385745E-1
6.713997153E0	-1.016949583E-2	1.178883934E1	-6.299105883E-1
6.722400174E0	1.100698411E-1	1.176072311E1	-5.413761139E-1
6.730803195E0	2.045863420E-1	1.159083271E1	-3.230310678E-1
6.739206216E0	3.320041299E-1	1.152562809E1	-3.349951804E-1
6.747609236E0	5.347958803E-1	1.136590767E1	-3.050848842E-1
6.756012257E0	8.135597110E-1	1.090110207E1	-3.595215976E-1
6.764415278E0	1.128814101E0	1.040279675E1	-4.211367965E-1
6.772818299E0	1.457229018E0	1.004387283E1	-2.793620527E-1
6.781221320E0	1.820937991E0	9.730413437E0	-1.854437590E-1
6.789624341E0	2.211566210E0	9.414560318E0	-1.375873089E-1
6.798027361E0	2.518445730E0	9.201599121E0	-6.939185411E-2
6.806430382E0	2.469393015E0	9.147162437E0	1.848455518E-1
6.814833403E0	1.694716692E0	9.107681274E0	4.666004181E-1
6.823236424E0	1.100698411E-1	8.668598175E0	6.323033571E-1
6.831639445E0	-1.533201098E0	8.045866013E0	-2.219343036E-1
6.840042466E0	-2.714657307E0	7.720442295E0	-6.819544435E-1
6.848445486E0	-3.136990547E0	7.799405575E0	-6.669993401E-1
6.856848507E0	-2.727817774E0	8.072187424E0	-6.699903607E-1
6.865251528E0	-1.873580098E0	8.337790489E0	-5.048855543E-1
6.873654549E0	-1.012163997E0	8.557332039E0	-3.822534084E-1
6.882057570E0	-5.808576941E-1	8.774480820E0	-3.655036688E-1
6.890460591E0	-5.904290080E-1	8.976674080E0	-4.582255483E-1
6.898863611E0	-8.829515576E-1	9.045467377E0	-3.828516304E-1
6.907266632E0	-1.214955688E0	8.952147484E0	-4.253242314E-1
6.915669653E0	-1.356132269E0	8.886344910E0	-5.641079545E-1
6.924072674E0	-1.357926846E0	8.946166039E0	-5.407779217E-1
6.932475695E0	-1.229910851E0	9.050851822E0	-3.332005441E-1
6.940878716E0	-9.236295223E-1	9.159725189E0	-1.758724600E-1
6.949281736E0	-4.169493318E-1	9.369695663E0	-1.010967568E-1
6.957684757E0	1.812563092E-1	9.674181938E0	8.494520187E-2
6.966087778E0	7.322037220E-1	9.933803558E0	3.349951804E-1
6.974490799E0	1.131206870E0	1.003908730E1	3.840480447E-1
6.982893820E0	1.316650629E0	1.004447079E1	2.973082066E-1
6.991296841E0	1.347757339E0	9.944570541E0	1.764706671E-1
6.999699861E0	1.285543919E0	9.746564865E0	1.094716340E-1
7.008102882E0	1.197009563E0	9.568299294E0	4.965107143E-2
7.016505903E0	1.130608678E0	9.529416084E0	2.333002165E-2
7.024908924E0	1.130010486E0	9.593423843E0	2.147558331E-1
7.033311945E0	1.450050473E0	9.557532310E0	1.746760458E-1
7.041714966E0	2.210369825E0	9.625128746E0	-1.956132501E-1
7.050117986E0	3.187838078E0	9.890732765E0	-2.452643216E-2
7.058521007E0	4.182653904E0	1.000678444E1	3.002992272E-1
7.066924028E0	4.972883701E0	9.798010826E0	1.046859920E-1
7.075327049E0	5.544169903E0	9.506684303E0	-9.930214286E-2
7.083730070E0	6.118447304E0	9.032905579E0	-1.286142170E-1
7.092133091E0	7.019345284E0	8.593224525E0	-1.746760458E-1
7.100536111E0	8.145766258E0	8.478368759E0	-1.465603858E-1
7.108939132E0	9.194420815E0	9.001200676E0	1.740778536E-1
7.117342153E0	1.062712383E1	1.109013462E1	1.707278967E0
7.125745174E0	1.573400497E1	1.334297752E1	-3.340380430E0
7.134148195E0	2.271566391E1	1.653978920E1	-1.212263775E1
7.142551216E0	1.705424500E1	1.700459480E1	5.736792088E-1
7.150954236E0	4.657629490E0	1.479362583E1	1.276211929E1
7.159357257E0	-7.820342541E0	9.477372169E0	9.036494255E0
7.167760278E0	-1.906182289E1	5.676971912E0	-6.765107632E0
7.176163299E0	-1.995733643E1	5.605785370E0	-1.592901993E1
7.184566320E0	-9.787840843E0	6.878168583E0	-6.368497372E0
7.192969341E0	-1.833500385E0	7.721638680E0	-2.536391914E-1
7.201372361E0	3.027518749E0	8.921639442E0	9.696913958E-1
7.209775382E0	6.608976364E0	1.120678520E1	2.734398127E0
7.218178403E0	9.425328255E0	1.268554878E1	3.397209883E0
7.226581424E0	1.062891865E1	1.162313557E1	7.495517135E-1
7.234984445E0	8.654839516E0	9.454042435E0	-3.900300860E-1
7.243387466E0	4.622933388E0	9.038887978E0	1.549950838E0
7.251790486E0	8.632107973E-1	9.677172661E0	-5.802594870E-2
7.260193507E0	-2.341377020E0	1.079641533E1	-1.850848317E0
7.268596528E0	-4.585246563E0	1.116012478E1	-1.565504193E0
7.276999549E0	-4.458426952E0	1.011625576E1	-1.140179992E0
7.285402570E0	-2.638087034E0	9.011369705E0	5.796613097E-1
7.293805591E0	-3.182454109E-1	8.645268440E0	1.935793519E0
7.302208611E0	1.847857237E0	9.009575844E0	1.984248161E0
7.310611632E0	3.428316593E0	9.571290970E0	1.858026743E0
7.319014653E0	4.152743816E0	9.924830437E0	1.469791293E0
7.327417674E0	3.857828379E0	1.005224800E1	1.214955688E0
7.335820695E0	2.637488842E0	9.936794281E0	7.429714203E-1
7.344223716E0	1.386042476E0	9.774082184E0	-9.571290761E-2
7.352626736E0	4.869394004E-1	9.778867722E0	-5.246263742E-1
7.361029757E0	8.554340899E-2	9.967901230E0	-7.674978375E-1
7.369432778E0	3.182454109E-1	1.006241703E1	-4.564309120E-1
7.377835799E0	1.016351461E0	9.827920914E0	-1.328016520E-1
7.386238820E0	1.740180254E0	9.589835167E0	3.194418252E-1
7.394641841E0	2.105684042E0	9.533005714E0	7.986045480E-1
7.403044861E0	2.124228239E0	9.535996437E0	8.464609981E-1
7.411447882E0	1.821536183E0	9.577272415E0	6.514459848E-1
7.419850903E0	1.372882009E0	9.608379364E0	5.300102234E-1
7.428253924E0	9.966106415E-1	9.536594391E0	3.547359705E-1
7.436656945E0	8.147560954E-1	9.467801094E0	1.663011760E-1
7.445059966E0	7.160521746E-1	9.644271851E0	2.063809484E-1
7.453462986E0	5.928218365E-1	9.904491425E0	3.834498227E-1
7.461866007E0	4.929214716E-1	9.904491425E0	4.211367965E-1
7.470269028E0	4.779663086E-1	9.718449593E0	2.482553422E-1
7.478672049E0	5.198407173E-1	9.588638306E0	1.860419661E-1
7.487075070E0	6.155536175E-1	9.566504478E0	2.500499785E-1
7.495478091E0	8.416753411E-1	9.528220177E0	2.781656384E-1
7.503881111E0	1.119840980E0	9.479764938E0	3.302095234E-1
7.512284132E0	1.221535921E0	9.528818130E0	4.875376225E-1
7.520687153E0	1.146162033E0	9.567701340E0	7.118647099E-1
7.529090174E0	1.001994491E0	9.661619186E0	7.663014531E-1
7.537493195E0	8.344969153E-1	9.736993790E0	5.964110494E-1
7.545896216E0	7.172485590E-1	9.646664619E0	4.893322289E-1
7.554299236E0	5.886343718E-1	9.503094673E0	5.545366406E-1
7.562702257E0	4.833501875E-1	9.530014038E0	8.039883971E-1
7.571105278E0	4.875376225E-1	9.980463028E0	1.207179070E0
7.579508299E0	6.699903607E-1	1.065583706E1	1.149751306E0
7.587911320E0	9.619147182E-1	1.109970570E1	1.033699393E0
7.596314341E0	1.210170031E0	1.129890823E1	2.069791555E-1
7.604717361E0	1.286142230E0	1.152263737E1	-5.623133183E-1
7.613120382E0	1.178465128E0	1.117986584E1	-1.216152072E0
7.621523403E0	1.045065284E0	1.041296577E1	-1.388435364E0
7.629926424E0	9.942178130E-1	1.020419216E1	-9.822536707E-1
7.638329445E0	1.021735311E0	1.100279713E1	-3.643072546E-1
7.646732466E0	1.015753269E0	1.181755257E1	8.374879137E-3
7.655135486E0	8.787640929E-1	1.229611778E1	-1.226321608E-1
7.663538507E0	3.625126183E-1	1.246361542E1	-3.242274821E-1
7.671941528E0	-3.547359705E-1	1.232901859E1	-7.160521746E-1
7.680344549E0	-9.505487680E-1	1.197188950E1	-9.541380405E-1
7.688747570E0	-1.244267821E0	1.163629627E1	-1.172483087E0
7.697150591E0	-1.079162955E0	1.134197903E1	-1.083350420E0
7.705553611E0	-5.216353536E-1	1.099681473E1	-9.667003751E-1
7.713956632E0	1.686939895E-1	1.059123135E1	-8.668000102E-1
7.722359653E0	8.973084688E-1	1.017547798E1	-5.012963414E-1
7.730762674E0	1.652842283E0	9.751948357E0	-2.027917206E-1
7.739165695E0	2.333600283E0	9.413962364E0	8.015955985E-2
7.747568716E0	2.912065268E0	9.228518486E0	6.023930907E-1
7.755971736E0	3.272783279E0	9.105886459E0	9.708877802E-1
7.764374757E0	2.867199659E0	9.011968613E0	1.093519926E0
7.772777778E0	1.318445325E0	8.641080856E0	1.232901812E0
7.781180799E0	-8.015955687E-1	7.818548203E0	7.914260626E-1
7.789583820E0	-2.593819857E0	7.207181931E0	-2.811566591E-1
7.797986841E0	-3.758526087E0	7.153941631E0	-7.148557901E-1
7.806389861E0	-4.173082829E0	7.387839794E0	-9.104689956E-1
7.814792882E0	-3.727419376E0	7.630711555E0	-6.352944374E-1
7.823195903E0	-2.708076954E0	7.783852100E0	-3.559323549E-1
7.831598924E0	-1.715653777E0	7.972885132E0	7.716853172E-2
7.840001945E0	-1.020538807E0	8.247461319E0	3.320041299E-1
7.848404966E0	-7.226324677E-1	8.518448830E0	5.700899959E-1
7.856807986E0	-6.436693072E-1	8.693722725E0	6.263213158E-1
7.865211007E0	-5.527420044E-1	8.874381065E0	4.366901219E-1
7.873614028E0	-4.313062727E-1	9.327222824E0	4.384847581E-1
7.882017049E0	-3.164508045E-1	9.847063065E0	5.569294691E-1
7.890420070E0	-1.022931710E-1	1.025204849E1	4.438686073E-1
7.898823091E0	1.752742529E-1	1.060080242E1	3.678964674E-1
7.907226111E0	4.498506486E-1	1.079222870E1	5.389832854E-1
7.915629132E0	8.237292171E-1	1.080359459E1	1.411765367E-1
7.924032153E0	1.294517040E0	1.089631653E1	-3.726821244E-1
7.932435174E0	1.716850281E0	1.104168034E1	-5.210371017E-1
7.940838195E0	2.108076811E0	1.098544884E1	-5.898307562E-1
7.949241216E0	2.596212626E0	1.061157036E1	-5.706881881E-1
7.957644236E0	3.349951744E0	9.957731247E0	-8.542376757E-1
7.966047257E0	4.378865242E0	9.497113228E0	-9.535398483E-1
7.974450278E0	5.488536835E0	9.295517921E0	-1.088734269E-1
7.982853299E0	6.679564476E0	9.122037888E0	5.688936114E-1
7.991256320E0	7.820940971E0	9.011968613E0	4.743770957E-1
7.999659341E0	8.575278282E0	8.901300430E0	1.118644550E-1
8.008062361E0	8.639883995E0	8.708678246E0	-1.680957973E-1
8.016465382E0	8.062017441E0	8.401200294E0	-2.195414752E-1
8.024868403E0	7.226324558E0	8.123034477E0	-5.168496966E-1
8.033271424E0	6.614958286E0	8.157731056E0	-1.005583763E0
8.041674445E0	6.387042046E0	8.413164139E0	-1.508674622E0
8.050077466E0	6.582654953E0	8.944371223E0	-1.764108539E0
8.058480486E0	7.394420147E0	1.039442158E1	-1.369890928E0
8.066883507E0	9.290732384E0	1.317787266E1	-2.011765718E0
8.075286528E0	1.174816132E1	1.577827263E1	-3.334398270E0
8.083689549E0	1.079821014E1	1.577348709E1	-1.124626622E-1
8.092092570E0	5.306084156E0	1.433958817E1	4.057030678E0
8.100495591E0	-1.476969719E0	1.204427242E1	6.337988853E0
8.108898611E0	-8.801400185E0	7.965108395E0	3.710669756E0
8.117301632E0	-1.314796257E1	5.170291424E0	-4.487739086E0
8.125704653E0	-1.120379353E1	5.825924873E0	-8.115258217E0
8.134107674E0	-5.490331650E0	8.416753769E0	-4.089334011E0
8.142510695E0	-5.503492355E-1	1.071924686E1	2.793620527E-1
8.150913716E0	2.599203587E0	1.152981567E1	1.710868239E0
8.159316736E0	4.573282242E0	1.120618629E1	1.583450437E0
8.167719757E0	5.577669621E0	1.031306553E1	9.601200819E-1
8.176122778E0	5.652445316E0	9.453444481E0	-4.725824669E-2
8.184525799E0	5.061418056E0	9.468997002E0	-6.281159520E-1
8.192928820E0	4.010969162E0	1.025683403E1	-5.862415433E-1
8.201331841E0	2.639881611E0	1.095733356E1	-2.829512656E-1
8.209734861E0	1.111466169E0	1.098664474E1	-3.158525825E-1
8.218137882E0	-3.032902777E-1	1.054636574E1	-3.678964674E-1
8.226540903E0	-1.409970760E0	9.925428391E0	-2.273181453E-2
8.234943924E0	-1.946561217E0	9.303893089E0	6.179464459E-1
8.243346945E0	-1.759921074E0	8.912068367E0	7.872386575E-1
8.251749966E0	-9.996016622E-1	8.974281311E0	7.142575383E-1
8.260152986E0	-1.316052489E-2	9.367302895E0	5.222335458E-1
8.268556007E0	8.380861282E-1	9.838089943E0	4.773681164E-1
8.276959028E0	1.436291814E0	1.022393322E1	7.734799385E-1
8.285362049E0	1.774876237E0	1.028674412E1	8.524430394E-1
8.293765070E0	1.801197290E0	9.997213364E0	1.011565804E0
8.302168091E0	1.465603828E0	9.641280174E0	1.103689432E0
8.310571111E0	8.512466550E-1	9.457631111E0	8.572286963E-1
8.318974132E0	1.345962733E-1	9.467801094E0	5.060819983E-1
8.327377153E0	-3.864408433E-1	9.661619186E0	3.702892959E-1
8.335780174E0	-4.935196638E-1	9.798608780E0	1.746760458E-1
8.344183195E0	-2.781656384E-1	9.812367439E0	2.811566554E-2
8.352586216E0	8.135596663E-2	9.851848602E0	1.292124242E-1
8.360989236E0	3.272185028E-1	9.907482147E0	1.752742529E-1
8.369392257E0	5.641079545E-1	9.902696609E0	2.889333367E-1
8.377795278E0	7.435696125E-1	9.760921478E0	4.935196638E-1
8.386198299E0	8.500502706E-1	9.592227936E0	5.509474277E-1
8.394601320E0	7.280163169E-1	9.542576790E0	5.467599630E-1
8.403004341E0	4.067798555E-1	9.584450722E0	5.066801906E-1
8.411407361E0	1.561316848E-1	9.652647018E0	3.840480447E-1
8.419810382E0	2.135594189E-1	9.737591743E0	3.272185028E-1
8.428213403E0	4.259224236E-1	9.816555023E0	4.426721931E-1
8.436616424E0	5.599204898E-1	9.822537422E0	5.264210105E-1
8.445019445E0	4.504488707E-1	9.783653259E0	6.903293133E-1
8.453422466E0	1.351944804E-1	9.711869240E0	7.914260626E-1
8.461825486E0	-1.950150430E-1	9.677771568E0	6.334998012E-1
8.470228507E0	-4.438686073E-1	9.714859962E0	3.098705411E-1
8.478631528E0	-5.018945336E-1	9.821938515E0	2.117647976E-1
8.487034549E0	-3.475574851E-1	9.900303841E0	2.051845491E-1
8.495437570E0	2.991028363E-3	9.897911072E0	3.104687333E-1
8.503840591E0	4.869394004E-1	9.836894035E0	5.318048596E-1
8.512243611E0	7.704889178E-1	9.704092026E0	4.791627228E-1
8.520646632E0	8.003991842E-1	9.544371605E0	4.797609448E-1
8.529049653E0	6.586244106E-1	9.489934921E0	4.169493318E-1
8.537452674E0	4.857429862E-1	9.581459999E0	2.488535494E-1
8.545855695E0	3.409772217E-1	9.698110580E0	1.920240223E-1
8.554258716E0	2.662015259E-1	9.768099785E0	2.691925466E-1
8.562661736E0	2.853440940E-1	9.853643417E0	3.972085714E-1
8.571064757E0	3.684946895E-1	9.952347755E0	4.851447940E-1
8.579467778E0	5.060819983E-1	1.006421185E1	5.473581553E-1
8.587870799E0	6.658028960E-1	1.038664532E1	8.542376757E-1
8.596273820E0	8.596215248E-1	1.098305607E1	1.249651670E0
8.604676841E0	1.157527924E0	1.134616661E1	1.335793257E0
8.613079861E0	1.418345571E0	1.091605663E1	1.231107235E0
8.621482882E0	1.527817249E0	9.855438232E0	8.685946465E-1
8.629885903E0	1.561316729E0	9.060422897E0	1.956132501E-1
8.638288924E0	1.603191137E0	9.021539688E0	-4.001995921E-1
8.646691945E0	1.846062660E0	9.551549911E0	-7.028916478E-1
8.655094966E0	2.346162558E0	1.011147022E1	-9.511470199E-1
8.663497986E0	2.812762976E0	1.046441174E1	-8.494520187E-1
8.671901007E0	2.974278450E0	1.049970531E1	-7.734799385E-1
8.680304028E0	2.708076954E0	1.029212856E1	-5.898307562E-1
8.688707049E0	2.188834429E0	1.015693378E1	-3.302095234E-1
8.697110070E0	1.780260086E0	1.014496994E1	-1.555334777E-1
8.705513091E0	1.477568030E0	1.015155029E1	-9.032905847E-2
8.713916111E0	1.180259824E0	1.018505001E1	-6.400800496E-2
8.722319132E0	9.134600163E-1	1.035135078E1	1.316052489E-2
8.730722153E0	7.980063558E-1	1.052004433E1	-5.922235921E-2
8.739125174E0	8.907282352E-1	1.061575794E1	-2.464607358E-1
8.747528195E0	1.111466169E0	1.068455124E1	-2.135594189E-1
8.755931216E0	1.357926846E0	1.074317551E1	-4.187439755E-2
8.764334236E0	1.615753531E0	1.081316566E1	-4.307080805E-2
8.772737257E0	1.765304923E0	1.089212894E1	-2.249253243E-1
8.781140278E0	1.694716692E0	1.094237804E1	-3.056831062E-1
8.789543299E0	1.555932879E0	1.086102200E1	-2.554338276E-1
8.797946320E0	1.476371527E0	1.063250732E1	-1.674975902E-1
8.806349341E0	1.500898004E0	1.035374355E1	-2.009970993E-1
8.814752361E0	1.588834286E0	1.018923664E1	-1.525424421E-1
8.823155382E0	1.764108539E0	1.007378292E1	5.204389244E-2
8.831558403E0	2.030309916E0	9.943374634E0	4.127618968E-1
8.839961424E0	2.292324066E0	9.768099785E0	7.770691514E-1
8.848364445E0	2.416750908E0	9.555138588E0	8.853443861E-1
8.856767466E0	2.199602127E0	9.510871887E0	1.016351461E0
8.865170486E0	1.355534077E0	9.439684868E0	1.237687469E0
8.873573507E0	-1.782652885E-1	9.118449211E0	1.286142230E0
8.881976528E0	-1.850848317E0	8.534600258E0	7.136593461E-1
8.890379549E0	-3.071187973E0	8.132605553E0	-1.064806059E-1
8.898782570E0	-3.576671600E0	8.026723862E0	-3.637090325E-1
8.907185591E0	-3.312264681E0	7.943572998E0	-4.342973232E-1
8.915588611E0	-2.367697954E0	7.935198307E0	-1.190429255E-1
8.923991632E0	-1.224527001E0	8.034500122E0	3.978067636E-1
8.932394653E0	-4.504488707E-1	8.199007034E0	7.387840152E-1
8.940797674E0	-2.039881349E-1	8.318648338E0	6.825526357E-1
8.949200695E0	-4.815555513E-1	8.392227173E0	2.350948304E-1
8.957603716E0	-1.077966571E0	8.456234932E0	-1.549352705E-1
8.966006736E0	-1.496112347E0	8.566903114E0	-4.001995921E-1
8.974409757E0	-1.454237938E0	8.736195564E0	-5.886343718E-1
8.982812778E0	-8.823533654E-1	8.973084450E0	-5.958128572E-1
8.991215799E0	-1.016949583E-2	9.187242508E0	-4.977070987E-1
8.999618820E0	9.308080077E-1	9.358329773E0	-4.779663086E-1
9.008021841E0	1.732403636E0	9.462417603E0	-4.779663086E-1
9.016424861E0	2.358724833E0	9.494720459E0	-4.875376225E-1
9.024827882E0	2.732005358E0	9.496515274E0	-2.476571500E-1
9.033230903E0	2.989233732E0	9.530014038E0	-1.118644550E-1
9.041633924E0	3.207578659E0	9.687940598E0	-1.076770201E-1
9.050036945E0	3.322434187E0	9.994820595E0	-2.775674164E-1
9.058439966E0	3.259024382E0	1.028614616E1	-4.223332107E-1
9.066842986E0	2.977269650E0	1.042492962E1	-4.336991012E-1
9.075246007E0	2.571087837E0	1.037049294E1	-4.965106845E-1
9.083649028E0	2.232503414E0	1.027597713E1	-5.198407173E-1
9.092052049E0	1.992024899E0	1.022752190E1	-2.799602449E-1
9.100455070E0	1.862214208E0	1.014257717E1	2.889333367E-1
9.108858091E0	2.068595171E0	1.006540871E1	3.553341627E-1
9.117261111E0	2.556132793E0	1.023948669E1	-1.196411322E-3
9.125664132E0	3.006581545E0	1.060020447E1	1.196411322E-3
9.134067153E0	3.437289715E0	1.102552891E1	1.016949583E-2
9.142470174E0	3.862015724E0	1.120020485E1	2.679961324E-1
9.150873195E0	4.388436794E0	1.101775169E1	4.486542344E-1
9.159276216E0	5.298307419E0	1.068156052E1	4.079762697E-1
9.167679236E0	6.522834301E0	1.028614616E1	4.348955154E-1
9.176082257E0	7.875975609E0	1.011745262E1	5.515456200E-1
9.184485278E0	9.322437286E0	1.024247742E1	9.918249846E-1
9.192888299E0	1.131087303E1	9.958928108E0	-8.075776696E-2
9.201291320E0	1.445683575E1	9.381659508E0	-4.591228485E0
9.209694341E0	1.636929893E1	1.014317513E1	-7.185646534E0
9.218097361E0	1.258684540E1	1.016770172E1	-1.670190215E0
9.226500382E0	5.471786976E0	9.653244972E0	3.486940861E0
9.234903403E0	-1.639083505E0	9.558728218E0	5.029713154E0
9.243306424E0	-8.830113411E0	9.628120422E0	-2.243271172E-1
9.251709445E0	-1.293260860E1	1.109372425E1	-8.729615211E0
9.260112466E0	-1.102253723E1	1.192702484E1	-9.217152596E0
9.268515486E0	-6.368497372E0	1.033400249E1	-3.188436270E0
9.276918507E0	-2.611167669E0	8.201399803E0	1.049850941E0
9.285321528E0	2.590230405E-1	7.372884750E0	1.650449395E0
9.293724549E0	2.764906645E0	8.432307243E0	2.487339020E0
9.302127570E0	5.450850010E0	1.024965572E1	2.280958176E0
9.310530591E0	7.592426300E0	1.144247818E1	7.196413875E-1
9.318933611E0	7.399804115E0	1.113858986E1	1.103689432E0
9.327336632E0	4.674977303E0	1.019761181E1	1.906481385E0
9.335739653E0	1.368694544E0	9.558728218E0	8.668000102E-1
9.344142674E0	-1.619342685E0	9.522237778E0	-1.057627559E0
9.352545695E0	-3.442075491E0	9.873982430E0	-1.836491346E0
9.360948716E0	-3.184846878E0	9.984052658E0	-1.608574986E0
9.369351736E0	-1.115055323E0	9.894321442E0	-4.971089065E-1
9.377754757E0	1.260419369E0	9.893125534E0	7.244270444E-1
9.386157778E0	2.918645382E0	9.930811882E0	1.383649707E0
9.394560799E0	3.737588882E0	9.723833084E0	1.593021631E0
9.402963820E0	3.831507206E0	9.387641907E0	1.725225091E0
9.411366841E0	3.410370588E0	9.087342262E0	1.767697692E0
9.419769861E0	2.792423964E0	9.129216194E0	1.391426325E0
9.428172882E0	2.107478619E0	9.461818695E0	9.038887620E-1
9.436575903E0	1.506281853E0	9.780662537E0	3.583251834E-1
9.444978924E0	1.176670551E0	9.989436150E0	-2.183450609E-1
9.453381945E0	1.146760225E0	1.006540871E1	-5.401797295E-1
9.461784966E0	1.517647743E0	9.976275444E0	-3.708875179E-1
9.470187986E0	2.148754835E0	9.724431038E0	2.392822690E-2
9.478591007E0	2.668595552E0	9.444471359E0	1.830509305E-1
9.486994028E0	2.836691141E0	9.351150513E0	4.199403822E-1
9.495397049E0	2.574677229E0	9.480362892E0	7.513462901E-1
9.503800070E0	2.103291035E0	9.633503914E0	7.938188910E-1
9.512203091E0	1.680359721E0	9.674779892E0	6.215356588E-1
9.520606111E0	1.377069473E0	9.594022751E0	4.169493318E-1
9.529009132E0	1.146760225E0	9.504889488E0	6.221339107E-1
9.537412153E0	1.012163997E0	9.563513756E0	9.092726111E-1
9.545815174E0	1.018744230E0	9.678369522E0	7.393822074E-1
9.554218195E0	1.034297585E0	9.674181938E0	3.924229145E-1
9.562621216E0	1.037288666E0	9.549755096E0	1.908276081E-1
9.571024236E0	1.009771109E0	9.568299294E0	6.879365444E-2
9.579427257E0	9.284151793E-1	9.681958199E0	-7.896314561E-2
9.587830278E0	8.081758618E-1	9.824331284E0	-1.435693651E-1
9.596233299E0	6.729813814E-1	9.908080101E0	-2.542374134E-1
9.604636320E0	5.306084156E-1	9.866206169E0	-4.265206456E-1
9.613039341E0	2.871387303E-1	9.835099220E0	-4.325026870E-1
9.621442361E0	-2.751746029E-2	9.969097137E0	-3.894318938E-1
9.629845382E0	-2.458625287E-1	1.004387283E1	-2.955136001E-1
9.638248403E0	-3.367897868E-1	9.966704369E0	-2.572284341E-1
9.646651424E0	-4.426721931E-1	1.009771156E1	7.357929647E-2
9.655054445E0	-4.570291340E-1	1.103509998E1	9.924231768E-1
9.663457466E0	-3.589234129E-2	1.226979637E1	1.251446247E0
9.671860486E0	3.876372576E-1	1.276391411E1	8.362914920E-1
9.680263507E0	5.503492057E-2	1.261316681E1	5.150550604E-1
9.688666528E0	-7.274180651E-1	1.288714409E1	1.770688742E-1
9.697069549E0	-1.359123230E0	1.341177082E1	-6.323033571E-1
9.705472570E0	-1.566700578E0	1.344826126E1	-1.643869162E0
9.713875591E0	-1.366899967E0	1.366301727E1	-1.540379524E0
9.722278611E0	-9.445667267E-1	1.391845131E1	-4.671986103E-1
9.730681632E0	-1.830509305E-1	1.380479240E1	-1.914258152E-1
9.739084653E0	7.298108935E-1	1.323709488E1	-7.728816867E-1
9.747487674E0	1.252044439E0	1.237328625E1	-7.513462901E-1
9.755890695E0	1.538584948E0	1.115653515E1	-5.581258535E-1
9.764293716E0	1.965703845E0	9.738788605E0	-3.966103494E-1
9.772696736E0	2.709273338E0	8.632107735E0	-4.636093974E-1
9.781099757E0	3.604787350E0	8.101499557E0	2.153540403E-1
9.789502778E0	4.356731892E0	7.870592117E0	1.260419369E0
9.797905799E0	4.532006264E0	7.758129120E0	2.019542217E0
9.806308820E0	3.593421459E0	7.594819069E0	2.218146563E0
9.814711841E0	1.761117458E0	7.237092018E0	2.002792597E0
9.823114861E0	-5.754738450E-1	6.661019802E0	8.662018180E-1
9.831517882E0	-2.976073265E0	5.998208046E0	-4.229314029E-1
9.839920903E0	-4.529613495E0	5.506483078E0	-8.362914920E-1
9.848323924E0	-4.562514782E0	5.424529076E0	-7.471588850E-1
9.856726945E0	-3.166302681E0	5.962316036E0	-2.303091735E-1
9.865129966E0	-1.383051515E0	6.707680225E0	2.249253243E-1
9.873532986E0	2.691925503E-2	7.325028419E0	3.272185028E-1
9.881936007E0	6.843472719E-1	7.682157040E0	4.558327198E-1
9.890339028E0	5.850451589E-1	7.758727551E0	2.243271172E-1
9.898742049E0	-1.854437590E-2	7.825128078E0	1.770688742E-1
9.907145070E0	-5.748756528E-1	8.023134232E0	1.244267747E-1
9.915548091E0	-7.070791125E-1	8.613563538E0	1.848455518E-1
9.923951111E0	-3.900300860E-1	9.494720459E0	4.492524564E-1
9.932354132E0	1.573280841E-1	1.049252701E1	4.325026870E-1
9.940757153E0	5.856433511E-1	1.140359497E1	8.207381964E-1
9.949160174E0	8.494520187E-1	1.187378407E1	9.840483069E-1
9.957563195E0	1.037886858E0	1.202213955E1	3.882354796E-1
9.965966216E0	1.163509965E0	1.223390388E1	-6.819544733E-2
9.974369236E0	1.227517962E0	1.240140152E1	-1.441675574E-1
9.982772257E0	1.386640668E0	1.223988628E1	-5.024927482E-2
9.991175278E0	1.755733609E0	1.176012516E1	1.597209126E-1
9.999578299E0	2.274377823E0	1.128275681E1	4.169493318E-1
1.000798132E1	2.809772015E0	1.102792168E1	7.363911867E-1
1.001638434E1	3.372683525E0	1.084606647E1	8.913264275E-1
1.002478736E1	3.889533281E0	1.040399265E1	9.541380405E-1
1.003319038E1	4.246662140E0	9.710074425E0	1.132403374E0
1.004159340E1	4.232305050E0	8.911469460E0	1.405185103E0
1.004999642E1	4.119842529E0	8.075178146E0	1.021137118E0
1.005839945E1	4.217350006E0	7.359724045E0	1.453639716E-1
1.006680247E1	4.621138573E0	6.834499836E0	-5.868397355E-1
1.007520549E1	5.185844898E0	6.376872540E0	-9.062815905E-1
1.008360851E1	5.693721294E0	5.830710411E0	-1.110867858E0
1.009201153E1	6.062814236E0	5.408975601E0	-1.318445325E0
1.010041455E1	6.326025009E0	5.199005604E0	-1.227517962E0
1.010881757E1	6.527620316E0	5.196014404E0	-1.050449133E0
1.011722059E1	6.789036274E0	5.900700569E0	-9.439685345E-1
1.012562361E1	6.887740135E0	7.357929707E0	-9.361918569E-1
1.013402663E1	6.723831654E0	1.199940777E1	-1.812563092E-1
1.014242965E1	6.802196503E0	2.193261147E1	-1.406381488E0
1.015083267E1	1.196889877E1	2.600280380E1	-8.417351723E0
1.015923570E1	1.276331615E1	1.884168434E1	-3.627519131E0
1.016763872E1	4.393820763E0	1.452323723E1	7.638488293E0
1.017604174E1	-6.410970211E0	7.233502865E0	1.056670475E1
1.018444476E1	-1.524347687E1	7.196413875E-1	1.987837434E0
1.019284778E1	-1.581536102E1	4.689932466E-1	-6.722635269E0
1.020125080E1	-7.955537319E0	5.084748268E0	-7.453044415E0
1.020965382E1	4.683950245E-1	1.106261730E1	-4.077369690E0
1.021805684E1	7.338188648E0	1.519143295E1	1.958525300E0
1.022645986E1	1.160399342E1	1.457707596E1	4.958526611E0
1.023486288E1	1.225783253E1	1.099860954E1	2.487339020E0
1.024326590E1	9.657432556E0	8.101499557E0	8.051848412E-1
1.025166892E1	5.718846321E0	7.852645874E0	3.481557071E-1
1.026007194E1	2.781058073E0	9.522835732E0	-6.161518097E-1
1.026847497E1	6.305087805E-1	1.095075321E1	-1.234696507E0
1.027687799E1	-9.613165259E-1	1.108953667E1	-1.575075507E0
1.028528101E1	-1.746760488E0	1.021137047E1	-1.416550994E0
1.029368403E1	-1.668993831E0	9.342776299E0	-7.890332937E-1
1.030208705E1	-5.569294691E-1	9.071788788E0	-3.667000830E-1
1.031049007E1	1.232901812E0	9.343972206E0	3.816552162E-1
1.031889309E1	3.068794966E0	9.650852203E0	7.549355626E-1
1.032729611E1	4.356133461E0	9.821340561E0	1.322034478E0
1.033569913E1	4.524827480E0	9.810572624E0	1.944766641E0
1.034410215E1	3.262613773E0	9.775876999E0	2.165504456E0
1.035250517E1	1.397408366E0	9.826724052E0	1.774278045E0
1.036090820E1	-1.627119333E-1	9.759725571E0	1.000798106E0
1.036931122E1	-8.482556343E-1	9.590433121E0	4.223332107E-1
1.037771424E1	-3.996013701E-1	9.450452805E0	2.404786795E-1
1.038611726E1	7.351947427E-1	9.570692062E0	4.289134443E-1
1.039452028E1	1.896910191E0	9.848259926E0	5.904290080E-1
1.040292330E1	2.682952404E0	9.975677490E0	6.616154313E-1
1.041132632E1	2.997010469E0	9.835099220E0	6.095715761E-1
1.041972934E1	2.953939438E0	9.547960281E0	4.779663086E-1
1.042813236E1	2.653042078E0	9.357132912E0	3.643072546E-1
1.043653538E1	2.237289190E0	9.315258980E0	3.595215976E-1
1.044493840E1	1.877767563E0	9.307481766E0	5.437689424E-1
1.045334142E1	1.754537225E0	9.414560318E0	6.047859192E-1
1.046174444E1	1.823330879E0	9.646664619E0	6.442674994E-1
1.047014747E1	1.999801517E0	9.668199539E0	6.867401004E-1
1.047855049E1	2.215753794E0	9.447462082E0	7.405785918E-1
1.048695351E1	2.411965132E0	9.334401131E0	7.645068169E-1
1.049535653E1	2.551347256E0	9.464211464E0	8.584251404E-1
1.050375955E1	2.533999205E0	9.482755661E0	8.273184299E-1
1.051216257E1	2.324627161E0	9.364909172E0	7.639086246E-1
1.052056559E1	1.999801517E0	9.441479683E0	6.765705943E-1
1.052896861E1	1.737189293E0	9.642477036E0	3.302095234E-1
1.053737163E1	1.444068432E0	9.762716293E0	2.422732860E-1
1.054577465E1	1.130010486E0	9.743574142E0	3.607180119E-1
1.055417767E1	9.523434043E-1	9.708279610E0	3.972085714E-1
1.056258070E1	9.810572863E-1	9.701699257E0	3.643072546E-1
1.057098372E1	1.033101201E0	9.720842361E0	5.324030519E-1
1.057938674E1	1.079761267E0	9.730413437E0	5.419743061E-1
1.058778976E1	1.121037364E0	9.707083702E0	3.050848842E-1
1.059619278E1	1.195813060E0	9.554540634E0	-9.152546525E-2
1.060459580E1	1.280160069E0	9.311669350E0	-3.888336718E-1
1.061299882E1	1.372283816E0	9.217152596E0	-4.486542344E-1
1.062140184E1	1.473978758E0	9.441479683E0	-1.555334777E-1
1.062980486E1	1.587637782E0	9.594620705E0	5.000999570E-1
1.063820788E1	1.626521230E0	9.492327690E0	8.243274093E-1
1.064661090E1	1.534397483E0	9.399007797E0	7.806583643E-1
1.065501392E1	1.198804140E0	9.376873970E0	9.379864931E-1
1.066341694E1	7.328019142E-1	9.698110580E0	1.261017561E0
1.067181997E1	7.070791125E-1	1.099920750E1	1.434497118E0
1.068022299E1	1.713261008E0	1.183131123E1	6.466603279E-1
1.068862601E1	2.648256540E0	1.098784161E1	4.821537733E-1
1.069702903E1	2.645265341E0	9.949356079E0	5.509474277E-1
1.070543205E1	1.956730723E0	9.931410789E0	5.006981492E-1
1.071383507E1	1.613360643E0	1.017248726E1	-3.906283081E-1
1.072223809E1	1.932204247E0	1.005045319E1	-9.337990284E-1
1.073064111E1	2.483151674E0	9.801001549E0	-8.428717852E-1
1.073904413E1	2.997608662E0	9.764511108E0	-8.482556343E-1
1.074744715E1	3.358924866E0	9.807581902E0	-8.775677085E-1
1.075585017E1	3.541377544E0	9.891330719E0	-6.490531564E-1
1.076425320E1	3.606581926E0	1.005165005E1	-4.259224236E-1
1.077265622E1	3.487539053E0	1.010189915E1	-2.458625287E-1
1.078105924E1	3.096312523E0	1.004028416E1	-6.580262631E-2
1.078946226E1	2.535793781E0	1.003789139E1	8.793623000E-2
1.079786528E1	2.064407825E0	1.016590691E1	8.494520187E-2
1.080626830E1	1.785045743E0	1.026281643E1	1.794616925E-3
1.081467132E1	1.695314884E0	1.027956581E1	-6.340979785E-2
1.082307434E1	1.712662816E0	1.025324535E1	-4.845465720E-2
1.083147736E1	1.844866276E0	1.015394306E1	1.555334684E-2
1.083988038E1	2.041675806E0	1.008395290E1	-4.845465720E-2
1.084828340E1	2.297708035E0	1.003489971E1	-1.345962733E-1
1.085668642E1	2.536990166E0	9.921240807E0	-7.238288224E-2
1.086508944E1	2.739183664E0	9.696315765E0	4.785645381E-2
1.087349247E1	2.854039192E0	9.521639824E0	1.914258152E-1
1.088189549E1	2.935993433E0	9.480961800E0	3.278166950E-1
1.089029851E1	2.994019270E0	9.471988678E0	4.384847581E-1
1.089870153E1	2.872583628E0	9.370293617E0	5.228317380E-1
1.090710455E1	2.457428932E0	9.198608398E0	2.925225794E-1
1.091550757E1	1.613958836E0	9.007183075E0	3.266202807E-1
1.092391059E1	4.307080805E-1	8.683553696E0	2.374876440E-1
1.093231361E1	-6.185446382E-1	8.406583786E0	-4.055834413E-1
1.094071663E1	-1.268794179E0	8.397610664E0	-4.654040039E-1
1.094911965E1	-1.263410330E0	8.480163574E0	-5.832505226E-1
1.095752267E1	-6.825526357E-1	8.626724243E0	-6.759724021E-1
1.096592570E1	1.202393398E-1	8.874979019E0	-4.683950245E-1
1.097432872E1	7.513462901E-1	9.119047165E0	-1.896311939E-1
1.098273174E1	9.451649189E-1	9.231510162E0	4.785645287E-3
1.099113476E1	7.112665176E-1	9.306883812E0	-8.075776696E-2
1.099953778E1	6.460621208E-2	9.431908607E0	-2.321037948E-1
1.100794080E1	-7.399803996E-1	9.577272415E0	-2.745763958E-1
1.101634382E1	-1.336391449E0	9.686145782E0	-4.677968323E-1
1.102474684E1	-1.521237016E0	9.816555023E0	-5.772684813E-1
1.103314986E1	-1.289133191E0	1.000020409E1	-4.648058116E-1
1.104155288E1	-6.999006271E-1	1.018505001E1	-3.547359705E-1
1.104995590E1	-6.939185411E-2	1.035553837E1	-2.165504545E-1
1.105835892E1	4.151547253E-1	1.045244789E1	-2.087737769E-1
1.106676195E1	6.317051649E-1	1.044407272E1	-1.854437590E-1
1.107516497E1	6.329016089E-1	1.029990482E1	-1.447657645E-1
1.108356799E1	5.204389095E-1	1.008933640E1	-1.280160099E-1
1.109197101E1	4.061816335E-1	9.902098656E0	-1.154536903E-1
1.110037403E1	4.247260094E-1	9.808777809E0	-9.750752151E-2
1.110877705E1	5.964110494E-1	9.763913155E0	-1.393819153E-1
1.111718007E1	9.194421172E-1	9.923633575E0	1.794617064E-2
1.112558309E1	1.333400369E0	1.014556789E1	2.207378894E-1
1.113398611E1	1.698904037E0	1.021077251E1	2.279163599E-1
1.114238913E1	1.862214208E0	1.011147022E1	2.662015259E-1
1.115079215E1	1.767099500E0	9.922437668E0	2.464607358E-1
1.115919517E1	1.531406522E0	9.781260490E0	3.110669367E-2
1.116759820E1	1.326820135E0	9.689137459E0	-1.794617027E-1
1.117600122E1	1.351346612E0	9.533603668E0	-3.182454109E-1
1.118440424E1	1.646860242E0	9.207581520E0	-3.421736360E-1
1.119280726E1	2.087737799E0	8.776275635E0	-2.901297510E-1
1.120121028E1	2.618346214E0	8.424530029E0	-1.926222295E-1
1.120961330E1	3.159722328E0	8.212765694E0	-4.366901144E-2
1.121801632E1	3.656831264E0	8.130811691E0	1.932204217E-1
1.122641934E1	3.951148272E0	8.033304214E0	4.677968323E-1
1.123482236E1	3.984647989E0	7.770691395E0	6.185446382E-1
1.124322538E1	3.857828379E0	7.484150887E0	7.304090858E-1
1.125162840E1	3.762115479E0	7.456035137E0	1.036092162E0
1.126003142E1	3.949353695E0	7.715058327E0	9.032905698E-1
1.126843444E1	4.619344234E0	8.349156380E0	4.247260094E-1
1.127683747E1	5.699703693E0	9.113064766E0	-4.773681164E-1
1.128524049E1	7.055237770E0	1.047757244E1	-1.350150228E0
1.129364351E1	8.480163574E0	1.361276817E1	-5.036891699E-1
1.130204653E1	1.181456184E1	1.760399628E1	-9.427721500E-1
1.131044955E1	2.367757797E1	1.718943977E1	-1.072702408E1
1.131885257E1	2.522513580E1	1.430608845E1	-6.134599209E0
1.132725559E1	1.276451206E1	1.106501007E1	7.645666599E0
1.133565861E1	1.329213023E0	7.789236069E0	1.092443180E1
1.134406163E1	-9.429515839E0	4.353142738E0	4.498506546E0
1.135246465E1	-1.853001785E1	5.419145107E0	-9.190832138E0
1.136086767E1	-1.863769531E1	9.805787086E0	-1.697408485E1
1.136927070E1	-9.367900848E0	1.202871990E1	-5.757131100E0
1.137767372E1	-2.577668190E0	1.025384331E1	1.590030670E0
1.138607674E1	1.603789330E0	9.175278664E0	2.927020311E0
1.139447976E1	4.657629490E0	9.707681656E0	3.470191002E0
1.140288278E1	7.174878597E0	1.028495026E1	3.511467218E0
1.141128580E1	8.822935104E0	1.008933640E1	2.860021353E0
1.141968882E1	8.659625053E0	9.299705505E0	1.113260746E0
1.142809184E1	6.076572895E0	9.075378418E0	1.310070395E0
1.143649486E1	2.926422119E0	9.373284340E0	9.266205430E-1
1.144489788E1	2.237289101E-1	9.923035622E0	-1.545763373E0
1.145330090E1	-1.844268084E0	1.059422207E1	-3.138186932E0
1.146170392E1	-2.642274380E0	1.071805096E1	-2.656631231E0
1.147010695E1	-1.819741607E0	1.015633583E1	-2.036890268E0
1.147850997E1	-2.021935135E-1	9.604789734E0	-7.088736892E-1
1.148691299E1	1.283151150E0	9.517452240E0	7.034898400E-1
1.149531601E1	2.297109842E0	9.772287369E0	1.227517962E0
1.150371903E1	2.699702263E0	9.988838196E0	1.621735573E0
1.151212205E1	2.426322222E0	9.826126099E0	1.785643935E0
1.152052507E1	1.609173179E0	9.592227936E0	1.605584025E0
1.152892809E1	7.615157962E-1	9.531808853E0	1.200598717E0
1.153733111E1	3.134597540E-1	9.509077072E0	3.930211067E-1
1.154573413E1	4.695914388E-1	9.646066666E0	4.905286431E-2
1.155413715E1	1.155135155E0	9.801599503E0	4.247260094E-2
1.156254017E1	1.960918188E0	9.824331284E0	1.328016520E-1
1.157094320E1	2.486142635E0	9.819545746E0	2.733799815E-1
1.157934622E1	2.548356056E0	9.909276962E0	5.629115105E-1
1.158774924E1	2.190030813E0	9.939187050E0	5.395814776E-1
1.159615226E1	1.673779488E0	9.853045464E0	3.326023519E-1
1.160455528E1	1.260419369E0	9.716654778E0	2.105683982E-1
1.161295830E1	1.021137118E0	9.687940598E0	2.614158690E-1
1.162136132E1	9.116654396E-1	9.734601021E0	5.210371017E-1
1.162976434E1	9.637092948E-1	9.769296646E0	5.641079545E-1
1.163816736E1	1.185643673E0	9.792626381E0	5.467599630E-1
1.164657038E1	1.418943882E0	9.734002113E0	4.474578202E-1
1.165497340E1	1.453639746E0	9.681958199E0	4.654040039E-1
1.166337642E1	1.263410330E0	9.695118904E0	3.888336718E-1
1.167177944E1	9.798609018E-1	9.661619186E0	8.614161611E-2
1.168018247E1	7.513462901E-1	9.633503914E0	-3.529413417E-2
1.168858549E1	5.760720372E-1	9.672985077E0	-4.307080805E-2
1.169698851E1	5.102694035E-1	9.763314247E0	-7.357929647E-2
1.170539153E1	5.383850932E-1	9.822537422E0	-1.944168359E-1
1.171379455E1	5.306084156E-1	9.818947792E0	-4.492524564E-1
1.172219757E1	4.396811724E-1	9.783055305E0	-4.594219327E-1
1.173060059E1	3.391826153E-1	9.802796364E0	-1.082752272E-1
1.173900361E1	2.835494876E-1	9.878767967E0	-8.733802289E-2
1.174740663E1	1.573280841E-1	1.002712345E1	-2.159522474E-1
1.175580965E1	-4.725824669E-2	1.015454102E1	3.409772366E-2
1.176421267E1	-8.973085135E-2	1.052662468E1	2.847459018E-1
1.177261570E1	6.879365444E-2	1.176072311E1	7.351947427E-1
1.178101872E1	5.270192027E-1	1.337109280E1	9.110672474E-1
1.178942174E1	1.351346612E0	1.368156147E1	8.249256015E-1
1.179782476E1	1.862812400E0	1.219143105E1	4.151547253E-1
1.180622778E1	1.505683661E0	1.041296577E1	1.351944804E-1
1.181463080E1	6.520441771E-1	9.607781410E0	6.879365444E-2
1.182303382E1	3.176472187E-1	9.981060982E0	-2.027917206E-1
1.183143684E1	6.340979934E-1	1.068574810E1	-6.843472719E-1
1.183983986E1	1.188634634E0	1.124507046E1	-1.089930773E0
1.184824288E1	1.719243050E0	1.145743275E1	-1.049850941E0
1.185664590E1	2.124826431E0	1.130489063E1	-1.073180914E0
1.186504892E1	2.367697954E0	1.093878841E1	-9.678967595E-1
1.187345195E1	2.513660192E0	1.047458076E1	-6.382854581E-1
1.188185497E1	2.617748022E0	1.000319481E1	-4.749752879E-1
1.189025799E1	2.693121910E0	9.682557106E0	-3.565305769E-1
1.189866101E1	2.775076151E0	9.552745819E0	-2.602194548E-1
1.190706403E1	2.916252613E0	9.448657990E0	-6.221338734E-2
1.191546705E1	3.142374277E0	9.236295700E0	2.309073806E-1
1.192387007E1	3.395415306E0	8.971888542E0	4.731806815E-1
1.193227309E1	3.548556089E0	8.721240044E0	7.704889178E-1
1.194067611E1	3.354737282E0	8.551948547E0	1.219741344E0
1.194907913E1	2.620140791E0	8.333004951E0	1.834098577E0
1.195748215E1	1.574477315E0	8.020143509E0	1.731207132E0
1.196588517E1	5.186443329E-1	7.775477409E0	1.182054400E0
1.197428820E1	-5.820540786E-1	7.653443336E0	1.397408366E0
1.198269122E1	-1.529611826E0	7.561319351E0	7.471588850E-1
1.199109424E1	-2.123630047E0	7.718049526E0	-1.483550072E-1
1.199949726E1	-2.268395901E0	8.173283577E0	-1.657029688E-1
1.200790028E1	-1.963909149E0	8.545368195E0	-3.332005441E-1
1.201630330E1	-1.412363529E0	8.750552177E0	-2.291127741E-1
1.202470632E1	-8.458628058E-1	8.807381630E0	1.794617064E-2
1.203310934E1	-4.073780477E-1	8.860622406E0	3.074777126E-1
1.204151236E1	-1.489532143E-1	8.966505051E0	4.755735099E-1
1.204991538E1	-3.828516230E-2	9.088538170E0	4.133601189E-1
1.205831840E1	1.555334684E-2	9.291928291E0	1.788634956E-1
1.206672142E1	4.666004330E-2	9.580264091E0	1.082752272E-1
1.207512444E1	1.316052526E-1	9.801001549E0	1.106680483E-1
1.208352747E1	2.213360965E-1	9.879366875E0	4.606183618E-2
1.209193049E1	2.847459018E-1	9.891330719E0	1.196411345E-2
1.210033351E1	3.278166950E-1	9.882955551E0	9.212367237E-2
1.210873653E1	3.822534084E-1	9.861420631E0	1.692921966E-1
1.211713955E1	4.911268353E-1	9.765707016E0	2.279163599E-1
1.212554257E1	6.053841114E-1	9.649655342E0	3.349951804E-1
1.213394559E1	8.512466550E-1	9.632905960E0	3.924229145E-1
1.214234861E1	1.172483087E0	9.732208252E0	3.224328458E-1
1.215075163E1	1.479960799E0	9.966106415E0	2.602194548E-1
1.215915465E1	1.701895118E0	1.012343407E1	2.596212626E-1
1.216755767E1	1.825723648E0	1.010010433E1	1.932204217E-1
1.217596070E1	1.844866276E0	9.902696609E0	1.986042857E-1
1.218436372E1	1.811964989E0	9.616754532E0	2.398804724E-1
1.219276674E1	1.840678811E0	9.351150513E0	2.488535494E-1
1.220116976E1	1.993221283E0	9.147761345E0	1.692921966E-1
1.220957278E1	2.270190477E0	9.049057007E0	1.328016520E-1
1.221797580E1	2.615953445E0	9.197412491E0	1.854437590E-1
1.222637882E1	2.937189817E0	9.460622787E0	4.061816335E-1
1.223478184E1	3.273979664E0	9.778867722E0	6.017948985E-1
1.224318486E1	3.570689678E0	1.005105114E1	5.054838061E-1
1.225158788E1	3.662813187E0	1.020957565E1	4.055834413E-1
1.225999090E1	3.614358664E0	1.028614616E1	5.982056856E-1
1.226839392E1	3.584448338E0	1.018923664E1	1.079162955E0
1.227679695E1	3.686741590E0	1.032263660E1	1.426720500E0
1.228519997E1	3.984049797E0	1.124566841E1	1.884945989E0
1.229360299E1	4.853840828E0	1.295534039E1	1.943570137E0
1.230200601E1	7.489534855E0	1.415234947E1	6.107679605E-1
1.231040903E1	1.283031464E1	1.332443333E1	-2.359323025E0
1.231881205E1	1.882433510E1	1.102911758E1	-4.588237286E0
1.232721507E1	2.106102753E1	8.626125336E0	-4.159922123E0
1.233561809E1	1.638365746E1	6.673582554E0	-1.185045362E0
1.234402111E1	9.680762291E0	5.612963676E0	8.757730722E-1
1.235242413E1	4.244269371E0	6.180062771E0	1.187438250E0
1.236082715E1	-3.589234054E-1	8.476573944E0	8.500502706E-1
1.236923017E1	-5.289334297E0	1.236969662E1	-6.478567123E-1
1.237763320E1	-8.966505051E0	1.543609905E1	-4.590032101E0
1.238603622E1	-8.628518105E0	1.465783310E1	-6.299703598E0
1.239443924E1	-5.940780640E0	1.067557812E1	-2.453241348E0
1.240284226E1	-3.471387386E0	7.392625332E0	-7.926225066E-1
1.241124528E1	-1.204187989E0	6.470192432E0	-1.015753269E0
1.241964830E1	9.942178130E-1	7.774280548E0	6.047859192E-1
1.242805132E1	3.562912941E0	9.538389206E0	2.040479422E0
1.243645434E1	6.253642082E0	1.066002464E1	1.546959877E0
1.244485736E1	7.950751305E0	1.097228813E1	2.137388945E0
1.245326038E1	7.125825882E0	1.037408257E1	3.071187973E0
1.246166340E1	4.244867325E0	9.839286804E0	2.257628202E0
1.247006642E1	9.092726111E-1	9.765707016E0	5.874379873E-1
1.247846944E1	-1.929811478E0	9.878170013E0	-1.217946768E0
1.248687247E1	-3.384049416E0	9.975079536E0	-1.742573142E0
1.249527549E1	-2.997608662E0	9.955338478E0	-1.025922656E0
1.250367851E1	-1.237089276E0	9.899705887E0	-3.170489892E-2
1.251208153E1	6.083751321E-1	9.869196892E0	6.849454641E-1
1.252048455E1	1.842473388E0	9.841081619E0	1.223330617E0
1.252888757E1	2.446063042E0	9.619745255E0	1.654038668E0
1.253729059E1	2.480160713E0	9.400801659E0	1.557727575E0
1.254569361E1	1.965105653E0	9.636494637E0	1.149751306E0
1.255409663E1	1.283151150E0	9.872786522E0	6.741777658E-1
1.256249965E1	6.825526357E-1	9.848857880E0	2.596212626E-1
1.257090267E1	3.272185028E-1	9.774680138E0	2.494517565E-1
1.257930570E1	3.732803464E-1	9.748957634E0	4.863412082E-1
1.258770872E1	8.327022791E-1	9.722636223E0	4.396811724E-1
1.259611174E1	1.253839016E0	9.842277527E0	4.295116663E-1
1.260451476E1	1.269990563E0	1.009531879E1	5.132604837E-1
1.261291778E1	1.105484009E0	1.012104130E1	3.936193287E-1
1.262132080E1	9.098708034E-1	9.886545181E0	2.608176768E-1
1.262972382E1	7.902296782E-1	9.662816048E0	2.787638307E-1
1.263812684E1	7.004988194E-1	9.557532310E0	4.486542344E-1
1.264652986E1	6.855437160E-1	9.564111710E0	6.448656917E-1
1.265493288E1	7.914260626E-1	9.564111710E0	5.353940725E-1
1.266333590E1	8.685946465E-1	9.545567513E0	4.348955154E-1
1.267173892E1	8.476574421E-1	9.517452240E0	4.319044948E-1
1.268014194E1	7.914260626E-1	9.505488396E0	4.779663086E-1
1.268854497E1	7.800601721E-1	9.568299294E0	5.802595019E-1
1.269694799E1	8.303094506E-1	9.591629982E0	6.514459848E-1
1.270535101E1	9.661021233E-1	9.522237778E0	5.880361795E-1
1.271375403E1	1.136590719E0	9.372088432E0	4.785645306E-1
1.272215705E1	1.323230863E0	9.214161873E0	4.803591371E-1
1.273056007E1	1.542174220E0	9.224929810E0	5.688936114E-1
1.273896309E1	1.633699656E0	9.373882294E0	6.346961856E-1
1.274736611E1	1.567897081E0	9.560523033E0	6.951149702E-1
1.275576913E1	1.369890928E0	9.600004196E0	6.251249313E-1
1.276417215E1	1.063011408E0	9.512666702E0	5.790630579E-1
1.277257517E1	7.537391186E-1	9.421140671E0	4.354937077E-1
1.278097820E1	5.228317380E-1	9.422337532E0	5.030909777E-1
1.278938122E1	6.269195080E-1	9.558728218E0	-7.178467698E-3
1.279778424E1	9.846464992E-1	1.015813065E1	-2.913261652E-1
1.280618726E1	1.413560033E0	1.151605701E1	1.686939895E-1
1.281459028E1	2.120639086E0	1.271785259E1	3.690928817E-1
1.282299330E1	3.163909674E0	1.154417324E1	3.966103494E-1
1.283139632E1	3.646661758E0	9.314062119E0	6.897311211E-1
1.283979934E1	3.247060299E0	8.370692253E0	6.089733839E-1
1.284820236E1	2.577668190E0	8.943773270E0	7.471588850E-1
1.285660538E1	2.416152716E0	9.437891006E0	1.016949583E-2
1.286500840E1	2.670390129E0	9.499505997E0	-2.374876440E-1
1.287341142E1	2.851646423E0	9.507282257E0	1.824527234E-1
1.288181445E1	2.713460922E0	9.917053223E0	3.104687333E-1
1.289021747E1	2.416750908E0	1.074616623E1	2.853440940E-1
1.289862049E1	2.082353830E0	1.151246834E1	1.381855011E-1
1.290702351E1	1.724626899E0	1.169013500E1	7.836493850E-2
1.291542653E1	1.346560955E0	1.149571800E1	2.021935135E-1
1.292382955E1	9.882357717E-1	1.128754234E1	3.020938635E-1
1.293223257E1	7.214360237E-1	1.124566841E1	9.870393574E-2
1.294063559E1	6.430711150E-1	1.134736347E1	-2.374876440E-1
1.294903861E1	7.411768436E-1	1.133958626E1	-6.281159520E-1
1.295744163E1	8.841479421E-1	1.119242764E1	-8.913264275E-1
1.296584465E1	1.002592683E0	1.098425198E1	-1.016949654E0
1.297424767E1	1.182054400E0	1.080718327E1	-1.010967612E0
1.298265070E1	1.475175142E0	1.061994553E1	-9.212366939E-1
1.299105372E1	1.898704767E0	1.045184898E1	-6.669993401E-1
1.299945674E1	2.444866419E0	1.026760197E1	-4.043870270E-1
1.300785976E1	3.019144058E0	1.010369396E1	-2.428714931E-1
1.301626278E1	3.533002615E0	9.976275444E0	-6.161518395E-2
1.302466580E1	3.891327858E0	9.885348320E0	2.219343036E-1
1.303306882E1	4.072584152E0	9.771689415E0	3.212364316E-1
1.304147184E1	4.039084435E0	9.674181938E0	2.703889608E-1
1.304987486E1	3.379263878E0	9.647860527E0	5.431707501E-1
1.305827788E1	1.552343726E0	9.371489525E0	1.399203062E0
1.306668090E1	-8.841479421E-1	8.745168686E0	8.949156404E-1
1.307508392E1	-3.361317635E0	8.085946083E0	-1.944168359E-1
1.308348694E1	-5.283950806E0	7.596015453E0	-7.363911867E-1
1.309188997E1	-5.819942951E0	7.459026337E0	-9.930213690E-1
1.310029299E1	-4.929812908E0	7.755138397E0	-7.764709592E-1
1.310869601E1	-3.291925669E0	8.160123825E0	-1.950150430E-1
1.311709903E1	-1.628315806E0	8.352147102E0	-7.178467698E-3
1.312550205E1	-3.684946895E-1	8.571090698E0	2.081755698E-1
1.313390507E1	3.804588020E-1	8.902496338E0	2.859423161E-1
1.314230809E1	6.089733839E-1	9.202198029E0	4.319044948E-1
1.315071111E1	4.743770957E-1	9.305088997E0	1.525424421E-1
1.315911413E1	2.225325108E-1	9.321240425E0	-5.563312769E-2
1.316751715E1	5.563312769E-2	9.385847092E0	-1.298106313E-1
1.317592017E1	1.758724600E-1	9.506086349E0	-1.597209126E-1
1.318432320E1	5.461617708E-1	9.634101868E0	-8.315058798E-2
1.319272622E1	1.071984529E0	9.723235130E0	-1.220339537E-1
1.320112924E1	1.634297848E0	9.744172096E0	-1.579262912E-1
1.320953226E1	2.102094650E0	9.675378799E0	-9.332008660E-2
1.321793528E1	2.474178553E0	9.515059471E0	2.093719877E-2
1.322633830E1	2.749951363E0	9.323035240E0	3.469592705E-2
1.323474132E1	2.993421078E0	9.259625435E0	1.196411345E-2
1.324314434E1	3.241078377E0	9.330213547E0	1.932204217E-1
1.325154736E1	3.449851990E0	9.365508080E0	2.500499785E-1
1.325995038E1	3.570091486E0	9.399605751E0	2.273181528E-1
1.326835340E1	3.575475216E0	9.622138023E0	2.584248483E-1
1.327675642E1	3.515654564E0	9.915857315E0	1.531406492E-1
1.328515945E1	3.453441381E0	1.011206818E1	-3.397808075E-1
1.329356247E1	3.424129248E0	1.017308521E1	-7.501499057E-1
1.330196549E1	3.369094372E0	1.012403297E1	-6.532405615E-1
1.331036851E1	3.445664644E0	1.003669453E1	-7.842476368E-1
1.331877153E1	3.671786308E0	9.952347755E0	-1.080957651E0
1.332717455E1	3.998406649E0	9.969097137E0	-9.296116233E-1
1.333557757E1	4.683950424E0	9.752547264E0	-5.162515044E-1
1.334398059E1	5.798407555E0	9.446864128E0	-5.330012441E-1
1.335238361E1	7.107879639E0	9.601201057E0	-3.942175210E-1
1.336078663E1	8.438288689E0	1.039023399E1	2.949153781E-1
1.336918965E1	1.027537823E1	1.199402332E1	6.550351977E-1
1.337759267E1	1.374856091E1	1.406740475E1	9.272187948E-2
1.338599570E1	2.122194481E1	1.366361523E1	-3.854238987E0
1.339439872E1	2.556491661E1	1.138923740E1	-5.337191105E0
1.340280174E1	1.763510323E1	8.264809608E0	1.694716692E0
1.341120476E1	6.875177860E0	7.466803074E0	5.137390137E0
1.341960778E1	-1.761117458E0	9.838688850E0	5.286343575E0
1.342801080E1	-1.719063568E1	1.167517948E1	5.718247890E0
1.343641382E1	-2.736611366E1	1.212144089E1	-4.232305050E0
1.344481684E1	-2.031506348E1	8.532207489E0	-1.116969585E1
1.345321986E1	-8.734400749E0	6.927221775E0	-7.122236729E0
1.346162288E1	-7.154539824E-1	7.671389580E0	-6.263213158E-1
1.347002590E1	4.182055950E0	9.151947975E0	4.017549038E0
1.347842892E1	7.925626755E0	1.072642612E1	4.289134502E0
1.348683194E1	1.045962620E1	1.133420277E1	2.571087837E0
1.349523497E1	1.079103184E1	1.074616623E1	1.012762189E0
1.350363799E1	8.854042053E0	9.720842361E0	7.830511928E-1
1.351204101E1	5.790630817E0	9.480362892E0	2.673979402E-1
1.352044403E1	2.581855536E0	9.888339996E0	-1.070189953E0
1.352884705E1	-6.023930907E-1	1.061157036E1	-2.411366940E0
1.353725007E1	-3.519842148E0	1.112901783E1	-2.801397085E0
1.354565309E1	-5.266602516E0	1.070728302E1	-2.693720102E0
1.355405611E1	-5.151148796E0	9.596415520E0	-1.613360643E0
1.356245913E1	-3.304488182E0	8.802596092E0	-1.435693540E-2
1.357086215E1	-9.188438654E-1	8.917451859E0	1.274776220E0
1.357926517E1	1.193420291E0	9.415159225E0	2.000998020E0
1.358766820E1	2.751745939E0	9.801599503E0	2.152343988E0
1.359607122E1	3.472583771E0	9.929615974E0	2.140978098E0
1.360447424E1	3.160320520E0	9.885947227E0	2.054238319E0
1.361287726E1	2.069791555E0	9.812965393E0	1.695913076E0
1.362128028E1	8.075776696E-1	9.811769485E0	8.745766878E-1
1.362968330E1	-1.298106313E-1	9.829715729E0	-6.041877344E-2
1.363808632E1	-5.802595019E-1	9.841081619E0	-4.558327198E-1
1.364648934E1	-3.906283081E-1	9.800403595E0	-6.257231236E-1
1.365489236E1	3.864408433E-1	9.747760773E0	-4.127618968E-1
1.366329538E1	1.359721422E0	9.763913155E0	-2.129612118E-1
1.367169840E1	2.145763636E0	9.822537422E0	1.345962733E-1
1.368010142E1	2.551347256E0	9.802198410E0	5.670989752E-1
1.368850445E1	2.487937450E0	9.707083702E0	8.482556343E-1
1.369690747E1	1.979462504E0	9.644271851E0	9.194421172E-1
1.370531049E1	1.250249863E0	9.642477036E0	6.041877270E-1
1.371371351E1	5.712863803E-1	9.647860527E0	4.241278172E-1
1.372211653E1	1.926222295E-1	9.594022751E0	4.103690982E-1
1.373051955E1	1.830509305E-1	9.561120987E0	2.871387303E-1
1.373892257E1	4.713860750E-1	9.654440880E0	1.716850251E-1
1.374732559E1	7.992027402E-1	9.830911636E0	1.220339537E-1
1.375572861E1	1.001994491E0	9.921838760E0	5.982056633E-2
1.376413163E1	1.042672515E0	9.866206169E0	-1.627119333E-1
1.377253465E1	9.756734371E-1	9.689735413E0	-4.049852192E-1
1.378093767E1	8.458628058E-1	9.568299294E0	-4.695914388E-1
1.378934070E1	7.872386575E-1	9.601799011E0	-2.805584669E-1
1.379774372E1	9.116654396E-1	9.587442398E0	1.657029688E-1
1.380614674E1	1.280160069E0	9.321838379E0	7.651050687E-1
1.381454976E1	1.744367719E0	8.917451859E0	1.113858938E0
1.382295278E1	2.048256159E0	8.605786324E0	1.307079315E0
1.383135580E1	1.983649969E0	8.468199730E0	1.454237938E0
1.383975882E1	1.602592945E0	8.545966148E0	1.333998680E0
1.384816184E1	1.088136077E0	8.885149002E0	1.083350420E0
1.385656486E1	6.729813814E-1	9.562317848E0	6.047859192E-1
1.386496788E1	4.749752879E-1	1.044108200E1	6.400800496E-2
1.387337090E1	4.660021961E-1	1.105065346E1	-2.620140910E-1
1.388177392E1	5.503492355E-1	1.134855938E1	-3.535395563E-1
1.389017694E1	5.730810165E-1	1.173559856E1	5.383851007E-2
1.389857997E1	5.760720372E-1	1.214716434E1	3.918247223E-1
1.390698299E1	6.801598072E-1	1.202213955E1	3.224328458E-1
1.391538601E1	7.902296782E-1	1.138863945E1	1.495514158E-2
1.392378903E1	6.334998012E-1	1.061396313E1	-3.349951655E-2
1.393219205E1	5.318048596E-1	1.014377308E1	-3.349951804E-1
1.394059507E1	6.891329288E-1	1.013539886E1	-6.394818425E-1
1.394899809E1	1.130608678E0	1.043749237E1	-8.536394835E-1
1.395740111E1	1.668395638E0	1.079282665E1	-7.974081635E-1
1.396580413E1	2.045863390E0	1.098365402E1	-2.799602449E-1
1.397420715E1	2.346760750E0	1.107039356E1	2.327020019E-1
1.398261017E1	2.569293261E0	1.124207878E1	2.763710022E-1
1.399101320E1	2.572284460E0	1.142393398E1	7.298108935E-2
1.399941622E1	2.166102648E0	1.134018517E1	-1.674975827E-2
1.400781924E1	1.630110383E0	1.087597752E1	-1.316052489E-2
1.401622226E1	1.383649707E0	1.035673428E1	-1.680957973E-1
1.402462528E1	1.517647743E0	1.005583763E1	-3.332005441E-1
1.403302830E1	1.871785522E0	9.894919395E0	-4.283152521E-1
1.404143132E1	2.358724833E0	9.718449593E0	-3.224328458E-1
1.404983434E1	2.854039192E0	9.382257462E0	-1.076770201E-1
1.405823736E1	3.262015581E0	8.958129883E0	1.142572835E-1
1.406664038E1	3.543172121E0	8.596813202E0	3.170489967E-1
1.407504340E1	3.624528170E0	8.334200859E0	6.257231236E-1
1.408344642E1	3.638286829E0	8.292326927E0	4.085744619E-1
1.409184945E1	3.574877024E0	8.578866959E0	8.129615188E-1
1.410025247E1	3.281157970E0	8.830712318E0	1.093519926E0
1.410865549E1	2.460419893E0	8.794221878E0	1.113260746E0
1.411705851E1	1.144367456E0	8.526225090E0	1.071984529E0
1.412546153E1	-3.104687333E-1	8.102097511E0	6.281159520E-1
1.413386455E1	-1.581057549E0	7.776075363E0	-1.339980662E-1
1.414226757E1	-2.395813704E0	7.839485168E0	-5.946164131E-1
1.415067059E1	-2.580060959E0	8.106285095E0	-5.455635786E-1
1.415907361E1	-2.012363911E0	8.371290207E0	-4.073780477E-1
1.416747663E1	-8.578268886E-1	8.647661209E0	-1.716850251E-1
1.417587965E1	2.416750938E-1	8.977272034E0	3.212364316E-1
1.418428267E1	9.810572863E-1	9.287740707E0	8.291130662E-1
1.419268570E1	1.236491084E0	9.469595909E0	9.397810698E-1
1.420108872E1	9.050851464E-1	9.468399048E0	7.004988194E-1
1.420949174E1	1.585244983E-1	9.357730865E0	4.205385745E-1
1.421789476E1	-5.994020700E-1	9.287740707E0	1.363908947E-1
1.422629778E1	-1.082752228E0	9.344570160E0	5.982056633E-2
1.423470080E1	-1.042074203E0	9.438488960E0	-1.704886109E-1
1.424310382E1	-5.443671346E-1	9.641879082E0	-1.525424421E-1
1.425150684E1	1.615155339E-1	9.859625816E0	5.084748194E-2
1.425990986E1	8.751748800E-1	1.004865837E1	1.453639716E-1
1.426831288E1	1.439282775E0	1.020778179E1	2.404786795E-1
1.427671590E1	1.764108539E0	1.029571724E1	4.223332107E-1
1.428511892E1	1.859821439E0	1.029930687E1	5.611169338E-1
1.429352194E1	1.676770449E0	1.024546814E1	6.849454641E-1
1.430192497E1	1.289731383E0	1.014676476E1	5.814558864E-1
1.431032799E1	8.237292171E-1	1.002473068E1	2.650051117E-1
1.431873101E1	4.295116663E-1	9.934999466E0	-2.033899166E-2
1.432713403E1	2.548356056E-1	9.860821724E0	-1.004985496E-1
1.433553705E1	3.625126183E-1	9.845867157E0	-1.124626622E-1
1.434394007E1	7.375875711E-1	9.925428391E0	-1.459621787E-1
1.435234309E1	1.207179070E0	1.002054310E1	-1.854437590E-1
1.436074611E1	1.525424480E0	1.003968525E1	-7.597211748E-2
1.436914913E1	1.724626899E0	9.963115692E0	4.283152521E-1
1.437755215E1	1.975873351E0	9.664610863E0	5.341976285E-1
1.438595517E1	2.350948334E0	9.481559753E0	2.452643216E-2
1.439435820E1	2.587239504E0	9.652647018E0	-1.495514214E-1
1.440276122E1	2.503490686E0	9.795618057E0	3.828516230E-2
1.441116424E1	2.150549412E0	9.548559189E0	1.872383654E-1
1.441956726E1	1.876571178E0	9.128020287E0	-4.187439568E-3
1.442797028E1	1.886740685E0	8.989236832E0	-2.901297510E-1
1.443637330E1	2.246262312E0	9.309874535E0	-3.200400174E-1
1.444477632E1	2.929413080E0	9.808179855E0	-3.649054468E-1
1.445317934E1	3.908675671E0	1.029332447E1	-8.386843204E-1
1.446158236E1	5.104488850E0	1.094536877E1	-9.667003751E-1
1.446998538E1	6.649055958E0	1.178166008E1	-2.530409992E-1
1.447838840E1	9.536594391E0	1.245942783E1	8.895317912E-1
1.448679142E1	1.575673676E1	1.188215923E1	-3.337987661E-1
1.449519445E1	2.431227493E1	1.056490993E1	-7.857431412E0
1.450359747E1	2.560559464E1	1.084905815E1	-8.982656479E0
1.451200049E1	1.679103470E1	9.935597420E0	1.590628862E0
1.452040351E1	6.796214581E0	8.307880402E0	6.243472576E0
1.452880653E1	-5.479564071E-1	8.117650986E0	6.333203316E0
1.453720955E1	-1.149571800E1	8.310871124E0	5.920441628E0
1.454561257E1	-1.865743637E1	1.063908768E1	-4.865206718E0
1.455401559E1	-1.069950676E1	1.159083271E1	-1.714218140E1
1.456241861E1	-1.172243786E1	1.205862999E1	-6.127420425E0
1.457082163E1	-7.576274872E0	1.145803165E1	-4.785645287E-3
1.457922465E1	-3.996013880E0	8.350951195E0	1.100698411E-1
1.458762767E1	-1.794616925E-3	7.280761242E0	-1.910668850E0
1.459603070E1	4.113860130E0	8.417949677E0	2.429313183E0
1.460443372E1	7.599604607E0	9.672985077E0	4.141975880E0
1.461283674E1	9.878767967E0	1.048833942E1	1.378265858E0
1.462123976E1	9.438488960E0	1.042672443E1	1.413560033E0
1.462964278E1	6.088537216E0	9.531808853E0	1.744367719E0
1.463804580E1	2.501696110E0	9.132207870E0	-1.322034448E-1
1.464644882E1	-4.205385745E-1	9.709476471E0	-1.573280931E0
1.465485184E1	-2.550748825E0	1.057807064E1	-1.917249203E0
1.466325486E1	-3.503690481E0	1.102971554E1	-2.051845312E0
1.467165788E1	-2.994617462E0	1.063250732E1	-1.262812138E0
1.468006090E1	-1.458425403E0	9.735198975E0	-1.357926875E-1
1.468846392E1	5.802594870E-2	9.204590797E0	7.627122402E-1
1.469686695E1	1.140179992E0	9.217152596E0	1.606780410E0
1.470526997E1	1.749153376E0	9.533005714E0	1.902294040E0
1.471367299E1	1.881955028E0	9.731011391E0	1.771286964E0
1.472207601E1	1.476371527E0	9.742377281E0	1.388435364E0
1.473047903E1	7.435696125E-1	9.725028992E0	1.006181955E0
1.473888205E1	4.905286431E-2	9.699306488E0	9.852447510E-1
1.474728507E1	-2.368894368E-1	9.724431038E0	6.125625968E-1
1.475568809E1	-1.244267747E-1	9.799206734E0	2.847459018E-1
1.476409111E1	1.645065546E-1	9.884152412E0	2.961117923E-1
1.477249413E1	4.325026870E-1	9.911071777E0	8.638089895E-1
1.478089715E1	7.100701332E-1	9.887741089E0	6.873382926E-1
1.478930017E1	8.979067206E-1	9.888339996E0	3.732803464E-1
1.479770320E1	9.798609018E-1	9.864411354E0	5.682953596E-1
1.480610622E1	1.083350420E0	9.698708534E0	7.130611539E-1
1.481450924E1	1.300499082E0	9.568299294E0	8.159525394E-1
1.482291226E1	1.560718536E0	9.509077072E0	7.734799385E-1
1.483131528E1	1.730608940E0	9.510871887E0	6.891329288E-1
1.483971830E1	1.761117458E0	9.617352486E0	6.029912829E-1
1.484812132E1	1.628315806E0	9.716654778E0	5.072783828E-1
1.485652434E1	1.433898926E0	9.730413437E0	4.175475538E-1
1.486492736E1	1.303490162E0	9.782457352E0	3.481557071E-1
1.487333038E1	1.313061476E0	9.844670296E0	5.186443329E-1
1.488173340E1	1.338186026E0	9.859625816E0	6.454638839E-1
1.489013642E1	1.251446247E0	9.797411919E0	7.238288522E-1
1.489853944E1	1.006780148E0	9.756135941E0	7.274180651E-1
1.490694247E1	7.363911867E-1	9.699306488E0	5.742774606E-1
1.491534549E1	5.389832854E-1	9.617950439E0	4.396811724E-1
1.492374851E1	4.887340367E-1	9.571290970E0	4.582255483E-1
1.493215153E1	5.754738450E-1	9.533603668E0	4.576273263E-1
1.494055455E1	7.310073376E-1	9.511469841E0	3.224328458E-1
1.494895757E1	8.189435601E-1	9.581459999E0	2.476571500E-1
1.495736059E1	6.861419082E-1	9.711270332E0	3.936193287E-1
1.496576361E1	4.001995921E-1	9.718449593E0	4.372883439E-1
1.497416663E1	1.082752272E-1	9.577870369E0	3.978067636E-1
1.498256965E1	-1.489532143E-1	9.467801094E0	2.506481707E-1
1.499097267E1	-3.726821244E-1	9.528220177E0	1.184447184E-1
1.499937570E1	-5.222335458E-1	9.672985077E0	1.124626622E-1
1.500777872E1	-7.034898400E-1	9.747162819E0	4.283152521E-1
1.501618174E1	-7.543373108E-1	9.773484230E0	2.979064286E-1
1.502458476E1	-7.190431952E-1	9.798010826E0	4.043870270E-1
1.503298778E1	-5.766702294E-1	9.868598938E0	5.455635786E-1
1.504139080E1	-3.774677813E-1	1.035613632E1	1.020538807E0
1.504979382E1	-8.673982322E-2	1.142572784E1	1.584048629E0
1.505819684E1	4.145565331E-1	1.173440266E1	1.459023595E0
1.506659986E1	9.912267923E-1	1.068933678E1	1.077966571E0
1.507500288E1	1.244866014E0	9.518050194E0	4.450650215E-1
1.508340590E1	1.216152072E0	9.133403778E0	2.644068897E-1
1.509180892E1	1.307677627E0	9.281759262E0	1.752742529E-1
1.510021195E1	1.738385677E0	9.693324089E0	-1.381855011E-1
1.510861497E1	2.260020971E0	1.020359421E1	7.776673418E-3
1.511701799E1	2.581855536E0	1.061037350E1	1.627119333E-1
1.512542101E1	2.520838737E0	1.094297600E1	2.225325108E-1
1.513382403E1	2.115255117E0	1.130848026E1	5.144568533E-2
1.514222705E1	1.466202021E0	1.168116188E1	1.022931710E-1
1.515063007E1	8.327022791E-1	1.179183006E1	-1.860419661E-1
1.515903309E1	4.025924206E-1	1.165005493E1	-5.712863803E-1
1.516743611E1	2.458625287E-1	1.151426220E1	-9.451649338E-2
1.517583913E1	3.631108403E-1	1.135633659E1	-3.176472187E-1
1.518424215E1	7.148557901E-1	1.160818100E1	-8.410771489E-1
1.519264517E1	9.050851464E-1	1.171346474E1	1.549352705E-1
1.520104820E1	1.062413216E0	1.131266689E1	-3.433700502E-1
1.520945122E1	1.155135155E0	1.094357395E1	-5.282155871E-1
1.521785424E1	1.319043517E0	1.057627583E1	-4.516452849E-1
1.522625726E1	1.569093466E0	1.022213840E1	-2.853440940E-1
1.523466028E1	1.898106575E0	9.869794846E0	-3.409772366E-2
1.524306330E1	2.304886341E0	9.583254814E0	-4.187439568E-3
1.525146632E1	2.618346214E0	9.394820213E0	-1.519442350E-1
1.525986934E1	2.038684845E0	9.143573761E0	3.050848842E-2
1.526827236E1	4.055834413E-1	8.593822479E0	6.939185411E-2
1.527667538E1	-1.623530149E0	7.894520283E0	-4.959124923E-1
1.528507840E1	-3.232703447E0	7.667201996E0	-1.190429211E0
1.529348142E1	-4.133002758E0	7.844270706E0	-1.354935765E0
1.530188444E1	-4.054039955E0	7.979465485E0	-1.412961721E0
1.531028747E1	-2.856431961E0	8.021339417E0	-1.194018483E0
1.531869049E1	-1.232901812E0	8.200202942E0	-9.128618240E-1
1.532709351E1	1.244267747E-1	8.552546501E0	-5.665007830E-1
1.533549653E1	9.786644578E-1	8.932407379E0	-1.465603858E-1
1.534389955E1	1.278365493E0	9.063413620E0	-1.196411345E-2
1.535230257E1	1.070189953E0	9.003593445E0	2.153540403E-2
1.536070559E1	5.186443329E-1	8.905488014E0	8.793623000E-2
1.536910861E1	-5.144568533E-2	8.872586250E0	5.862415582E-2
1.537751163E1	-4.384847581E-1	8.927620888E0	-1.357926875E-1
1.538591465E1	-5.653043389E-1	9.059824944E0	-1.657029688E-1
1.539431767E1	-3.278166950E-1	9.209376335E0	5.563312769E-2
1.540272070E1	2.769692242E-1	9.372088432E0	2.685943544E-1
1.541112372E1	1.018146038E0	9.556933403E0	4.007977843E-1
1.541952674E1	1.638485312E0	9.769894600E0	4.887340367E-1
1.542792976E1	1.971685886E0	9.958928108E0	4.319044948E-1
1.543633278E1	1.973480463E0	1.003310490E1	2.727817893E-1
1.544473580E1	1.754537225E0	9.919445992E0	9.990034252E-2
1.545313882E1	1.489532113E0	9.710074425E0	-3.589233849E-3
1.546154184E1	1.331605792E0	9.510871887E0	-1.854437590E-2
1.546994486E1	1.468594909E0	9.425328255E0	5.742774159E-2
1.547834788E1	1.901695848E0	9.393025398E0	2.608176768E-1
1.548675090E1	2.608176708E0	9.378069878E0	3.714857101E-1
1.549515392E1	3.419343472E0	9.553942680E0	5.294120312E-1
1.550355695E1	3.967898130E0	9.714859962E0	8.452646136E-1
1.551195997E1	4.051048756E0	9.678967476E0	1.118046403E0
1.552036299E1	3.727419376E0	9.404391289E0	1.065404296E0
1.552876601E1	3.267399311E0	9.158528328E0	5.078766346E-1
1.553716903E1	3.009572744E0	9.200403214E0	-8.673982322E-2
1.554557205E1	3.042474031E0	9.310472488E0	-1.746760458E-1
1.555397507E1	3.406781197E0	9.327222824E0	-2.021935135E-1
1.556237809E1	4.024727821E0	9.729815483E0	-9.870393574E-2
1.557078111E1	5.397011280E0	1.123370457E1	4.486542344E-1
1.557918413E1	8.864809990E0	1.416909885E1	1.782054663E0
1.558758715E1	1.954038811E1	1.358166122E1	-3.629911900E0
1.559599017E1	2.867977333E1	1.232184029E1	-7.793423176E0
1.560439320E1	2.352264214E1	1.102911758E1	3.899702787E0
1.561279622E1	1.049073315E1	8.966505051E0	9.429515839E0
1.562119924E1	1.503290772E0	7.719843864E0	4.641477585E0
1.562960226E1	-8.157132149E0	7.478767395E0	2.346162558E0
1.563800528E1	-1.846122551E1	1.029033375E1	-5.268995285E0
1.564640830E1	-2.073739815E1	1.331486130E1	-1.202213955E1
1.565481132E1	-1.361755371E1	1.132164001E1	-4.514657974E0
1.566321434E1	-5.274379253E0	7.916055679E0	-1.393221021E0
1.567161736E1	5.940182209E-1	7.099504948E0	-1.914856315E0
1.568002038E1	5.240281582E0	8.809176445E0	-3.553341627E-1
1.568842340E1	8.565707207E0	1.071984577E1	2.109273195E0
1.569682642E1	1.023888779E1	1.127258778E1	1.542174220E0
1.570522944E1	9.932606697E0	1.048116112E1	7.914260626E-1
1.571363247E1	7.432705402E0	9.528220177E0	1.191027522E0
1.572203549E1	4.279563427E0	9.400801659E0	-2.045863420E-1
1.573043851E1	1.237089276E0	1.008574772E1	-1.097707391E0
1.573884153E1	-1.526022673E0	1.054756260E1	-1.224527001E0
1.574724455E1	-3.458825111E0	1.041356373E1	-1.276570916E0
1.575564757E1	-3.937987804E0	9.846465111E0	-8.673982024E-1
1.576405059E1	-2.666202545E0	9.152546883E0	-1.477568001E-1
1.577245361E1	-4.941178858E-1	9.000602722E0	6.287141442E-1
1.578085663E1	1.591825247E0	9.339784622E0	1.201795220E0
1.578925965E1	3.091526747E0	9.806983948E0	1.380060434E0
1.579766267E1	3.617947817E0	1.012821960E1	1.404586911E0
1.580606570E1	3.143570662E0	1.014496994E1	1.499701619E0
1.581446872E1	2.100300074E0	9.941579819E0	1.238285661E0
1.582287174E1	1.048056364E0	9.692726135E0	7.627122402E-1
1.583127476E1	4.181457460E-1	9.497711182E0	4.061816335E-1
1.583967778E1	2.967100143E-1	9.486943245E0	1.525424421E-1
1.584808080E1	7.010970116E-1	9.597013474E0	8.374879137E-3
1.585648382E1	1.454237938E0	9.667601585E0	8.913264424E-2
1.586488684E1	2.166700840E0	9.689735413E0	1.986042857E-1
1.587328986E1	2.678765059E0	9.720243454E0	3.894318938E-1
1.588169288E1	2.840878725E0	9.690333366E0	5.288137794E-1
1.589009590E1	2.608774900E0	9.618548393E0	5.335994363E-1
1.589849892E1	2.182852507E0	9.488140106E0	4.396811724E-1
1.590690195E1	1.794616938E0	9.337391853E0	2.608176768E-1
1.591530497E1	1.634297848E0	9.309874535E0	2.584248483E-1
1.592370799E1	1.644467354E0	9.469595909E0	2.763710022E-1
1.593211101E1	1.689332843E0	9.788438797E0	4.851447940E-1
1.594051403E1	1.642672777E0	1.004327488E1	5.682953596E-1
1.594891705E1	1.538584948E0	1.002951622E1	4.540380836E-1
1.595732007E1	1.408774376E0	9.893125534E0	3.505485058E-1
1.596572309E1	1.333998680E0	9.823135376E0	3.284149170E-1
1.597412611E1	1.387837172E0	9.781859398E0	2.865405083E-1
1.598252913E1	1.447059512E0	9.684949875E0	2.709871531E-1
1.599093215E1	1.501496196E0	9.576674461E0	3.643072546E-1
1.599933517E1	1.579262972E0	9.506684303E0	4.217349887E-1
1.600773820E1	1.695314884E0	9.503094673E0	3.864408433E-1
1.601614122E1	1.759322882E0	9.473783493E0	3.804588020E-1
1.602454424E1	1.774876237E0	9.370891571E0	3.714857101E-1
1.603294726E1	1.797608018E0	9.302098274E0	2.638086975E-1
1.604135028E1	1.780260086E0	9.406186104E0	8.973085135E-2
1.604975330E1	1.710269928E0	9.468997002E0	1.974078640E-2
1.605815632E1	1.593021631E0	9.355338097E0	4.307080805E-2
1.606655934E1	1.479960799E0	9.260822296E0	2.392822690E-2
1.607496236E1	1.376471281E0	9.382257462E0	1.094716340E-1
1.608336538E1	1.329213023E0	9.583254814E0	1.782652885E-1
1.609176840E1	1.326221943E0	9.686145782E0	2.207378894E-1
1.610017142E1	1.133001566E0	9.472586632E0	2.883351147E-1
1.610857445E1	8.374879360E-1	9.215357780E0	2.937189937E-1
1.611697747E1	6.532405615E-1	9.304491043E0	2.871387303E-1
1.612538049E1	5.856433511E-1	9.836296082E0	2.865405083E-1
1.613378351E1	5.060819983E-1	1.092383385E1	2.416750938E-1
1.614218653E1	6.550351977E-1	1.239362526E1	-3.589234129E-2
1.615058955E1	1.085743308E0	1.310728455E1	-3.583251834E-1
1.615899257E1	1.367498159E0	1.226381397E1	-6.466603279E-1
1.616739559E1	1.261017561E0	1.110748291E1	-7.794619799E-1
1.617579861E1	9.930213690E-1	1.024247742E1	-1.214357495E0
1.618420163E1	9.218349457E-1	9.681958199E0	-1.768894196E0
1.619260465E1	1.296311617E0	9.571888924E0	-1.773679733E0
1.620100767E1	1.986641049E0	9.839286804E0	-1.494317770E0
1.620941070E1	2.705085993E0	1.025264645E1	-8.452646136E-1
1.621781372E1	3.166302681E0	1.066780186E1	-3.649054468E-1
1.622621674E1	3.269193888E0	1.105005455E1	-2.243271172E-1
1.623461976E1	3.008974552E0	1.127557850E1	-9.750752151E-2
1.624302278E1	2.477169752E0	1.122233772E1	-1.202393398E-1
1.625142580E1	1.856232166E0	1.098664474E1	-7.896314561E-2
1.625982882E1	1.341177106E0	1.076052380E1	-1.064806059E-1
1.626823184E1	1.031306505E0	1.060259724E1	3.409772366E-2
1.627663486E1	1.016351461E0	1.041236782E1	3.625126183E-1
1.628503788E1	1.250249863E0	1.024187946E1	6.107679605E-1
1.629344090E1	1.581655741E0	1.012582684E1	8.362914920E-1
1.630184392E1	1.905285001E0	1.002413273E1	9.505487680E-1
1.631024694E1	2.225325108E0	9.832108498E0	9.056833982E-1
1.631864997E1	2.488535643E0	9.541379929E0	8.500502706E-1
1.632705299E1	2.724826813E0	9.195018768E0	8.931210637E-1
1.633545601E1	2.978466034E0	8.866005898E0	1.054038405E0
1.634385903E1	3.238087177E0	8.655437469E0	1.134197950E0
1.635226205E1	3.326023579E0	8.570492744E0	1.218544960E0
1.636066507E1	2.852842808E0	8.491529465E0	1.429711580E0
1.636906809E1	1.740778446E0	8.261817932E0	1.534397483E0
1.637747111E1	4.905286431E-1	7.949554920E0	6.502495408E-1
1.638587413E1	-5.353940725E-1	7.886145115E0	-2.440679073E-1
1.639427715E1	-1.244866014E0	8.033902168E0	-5.874379873E-1
1.640268017E1	-1.367498159E0	8.130212784E0	-7.076773047E-1
1.641108320E1	-8.715856671E-1	8.093124390E0	-5.497509837E-1
1.641948622E1	-8.374879137E-3	8.043473244E0	-2.602194548E-1
1.642788924E1	8.404789567E-1	8.104490280E0	3.469592705E-2
1.643629226E1	1.394417405E0	8.325227737E0	2.697907388E-1
1.644469528E1	1.467398524E0	8.599205971E0	3.912265003E-1
1.645309830E1	1.013958573E0	8.746364594E0	2.955136001E-1
1.646150132E1	2.961117923E-1	8.730213165E0	3.409772366E-2
1.646990434E1	-3.912265003E-1	8.668598175E0	-1.651047617E-1
1.647830736E1	-8.225327730E-1	8.674580574E0	-3.696911037E-1
1.648671038E1	-8.117650747E-1	8.806783676E0	-4.737788737E-1
1.649511340E1	-3.355933726E-1	9.013164520E0	-4.187439680E-1
1.650351642E1	4.199403822E-1	9.284152031E0	-4.528416991E-1
1.651191944E1	1.223928809E0	9.588638306E0	-2.949153781E-1
1.652032247E1	1.981257200E0	9.876974106E0	-1.268195957E-1
1.652872549E1	2.590230465E0	1.014437199E1	9.930214286E-2
1.653712851E1	3.059821844E0	1.040279675E1	1.716850251E-1
1.654553153E1	3.274577856E0	1.072223854E1	3.152543902E-1
1.655393455E1	3.082553864E0	1.090828037E1	4.079762697E-1
1.656233757E1	2.459821701E0	1.083170986E1	2.572284341E-1
1.657074059E1	1.584646821E0	1.061097240E1	2.691925503E-2
1.657914361E1	7.076773047E-1	1.041535854E1	-2.261217386E-1
1.658754663E1	2.452643216E-2	1.027956581E1	-4.450650215E-1
1.659594965E1	-3.290131092E-1	1.010608673E1	-5.389832854E-1
1.660435267E1	-3.696911037E-1	9.863813400E0	-4.474578202E-1
1.661275570E1	2.392822690E-2	9.625128746E0	-3.942175210E-1
1.662115872E1	6.927221417E-1	9.494122505E0	-3.038884699E-1
1.662956174E1	1.469193101E0	9.415159225E0	-1.932204217E-1
1.663796476E1	2.179861546E0	9.296115875E0	-6.939185411E-2
1.664636778E1	2.740978241E0	9.166305542E0	-1.974078640E-2
1.665477080E1	3.182454109E0	9.098110199E0	-9.272187948E-2
1.666317382E1	3.524627686E0	9.181260109E0	-4.893322289E-1
1.667157684E1	3.661616802E0	9.239884377E0	-6.406782866E-1
1.667997986E1	3.637090445E0	9.066405296E0	-6.580262184E-1
1.668838288E1	3.543172121E0	8.733204842E0	-7.830511928E-1
1.669678590E1	3.377469063E0	8.513663292E0	-9.020941257E-1
1.670518892E1	3.259024382E0	8.530412674E0	-8.662018180E-1
1.671359194E1	3.229712248E0	8.779864311E0	-8.273184299E-1
1.672199497E1	3.141177893E0	9.336195946E0	-8.961120844E-1
1.673039799E1	2.969492912E0	1.059482002E1	-5.126622319E-1
1.673880101E1	3.259024382E0	1.325324631E1	8.799605370E-1
1.674720403E1	5.497509956E0	1.670369720E1	4.721039295E0
1.675560705E1	1.471825218E1	1.487438393E1	3.201596737E0
1.676401007E1	2.472144699E1	1.137488079E1	-1.206461143E1
1.677241309E1	2.181895256E1	9.818947792E0	-7.032505512E0
1.678081611E1	1.271845055E1	9.045467377E0	6.982854843E0
1.678921913E1	4.055236340E0	6.215356827E0	8.537590981E0
1.679762215E1	-2.179861546E0	5.171487808E0	4.789832592E0
1.680602517E1	-8.324031830E0	7.453642368E0	-2.592623234E0
1.681442820E1	-1.263290691E1	1.318983650E1	-1.126062298E1
1.682283122E1	-1.214118195E1	1.584706593E1	-7.524828911E0
1.683123424E1	-8.487341881E0	1.262632656E1	4.671986103E-1
1.683963726E1	-3.787838221E0	8.523234367E0	2.306082726E0
1.684804028E1	-9.631111473E-2	6.511468410E0	5.000999570E-1
1.685644330E1	2.672184706E0	6.658627033E0	-1.207777262E0
1.686484632E1	4.363312244E0	8.464012146E0	1.174277663E0
1.687324934E1	5.328217983E0	1.061396313E1	3.482155085E0
1.688165236E1	5.730810165E0	1.161476135E1	9.577272534E-1
1.689005538E1	4.954937458E0	1.145862961E1	-5.132604837E-1
1.689845840E1	2.925823927E0	1.063490009E1	2.673979402E-1
1.690686142E1	5.132604837E-1	9.870991707E0	-2.979064286E-1
1.691526445E1	-1.645663738E0	9.624530792E0	-1.350150228E0
1.692366747E1	-3.235694408E0	9.686145782E0	-9.272187948E-1
1.693207049E1	-3.796811342E0	9.722038269E0	-3.463610709E-1
1.694047351E1	-3.060420275E0	9.588040352E0	-1.016949583E-2
1.694887653E1	-1.668993831E0	9.430712700E0	8.787640929E-1
1.695727955E1	-2.967100143E-1	9.355338097E0	1.526620865E0
1.696568257E1	8.213363886E-1	9.431908607E0	1.530808330E0
1.697408559E1	1.508674622E0	9.625128746E0	1.321436286E0
1.698248861E1	1.743171334E0	9.837491989E0	9.188438654E-1
1.699089163E1	1.540977836E0	9.978668213E0	6.376872063E-1
1.699929465E1	1.093519926E0	1.002293587E1	5.700899959E-1
1.700769767E1	6.472585201E-1	9.877572060E0	1.752742529E-1
1.701610070E1	2.925225794E-1	9.748359680E0	-4.348955154E-1
1.702450372E1	1.268195957E-1	9.820143700E0	-5.964110494E-1
1.703290674E1	3.290131092E-1	9.911669731E0	-3.924229145E-1
1.704130976E1	7.597211599E-1	9.873384476E0	2.392822644E-3
1.704971278E1	1.290329576E0	9.763913155E0	1.746760458E-1
1.705811580E1	1.684547186E0	9.648459435E0	3.972085714E-1
1.706651882E1	1.806581140E0	9.607781410E0	8.476574421E-1
1.707492184E1	1.636092424E0	9.655637741E0	9.678967595E-1
1.708332486E1	1.231705427E0	9.733404160E0	9.900303483E-1
1.709172788E1	7.692924738E-1	9.729216576E0	7.788637877E-1
1.710013090E1	4.055834413E-1	9.645467758E0	4.516452849E-1
1.710853392E1	2.261217386E-1	9.519247055E0	2.667997181E-1
1.711693695E1	2.811566591E-1	9.501300812E0	1.567298770E-1
1.712533997E1	5.186443329E-1	9.631709099E0	2.123630047E-1
1.713374299E1	8.321040869E-1	9.720243454E0	3.846462369E-1
1.714214601E1	1.136590719E0	9.693324089E0	3.792623878E-1
1.715054903E1	1.241276741E0	9.698708534E0	3.714857101E-1
1.715895205E1	1.082154036E0	9.710074425E0	3.242274821E-1
1.716735507E1	7.549355626E-1	9.729815483E0	3.086741269E-1
1.717575809E1	4.366901219E-1	9.804591179E0	2.428714931E-1
1.718416111E1	2.853440940E-1	9.882955551E0	2.458625287E-1
1.719256413E1	3.487538993E-1	9.812367439E0	4.869394004E-1
1.720096715E1	6.263213158E-1	9.664610863E0	6.831508875E-1
1.720937017E1	9.008977413E-1	9.635896683E0	6.574280262E-1
1.721777320E1	1.024726272E0	9.745966911E0	6.849454641E-1
1.722617622E1	1.020538807E0	9.864411354E0	5.593222976E-1
1.723457924E1	9.768698215E-1	9.993623734E0	3.930211067E-1
1.724298226E1	9.601200819E-1	1.027358437E1	3.457628787E-1
1.725138528E1	9.684949517E-1	1.084307575E1	4.707878530E-1
1.725978830E1	1.085145116E0	1.144487095E1	6.993024349E-1
1.726819132E1	1.371087432E0	1.114098263E1	4.929214716E-1
1.727659434E1	1.406381488E0	1.018983555E1	5.347958803E-1
1.728499736E1	9.565308690E-1	9.999606133E0	4.773681164E-1
1.729340038E1	4.588237405E-1	1.041476059E1	4.648058116E-1
1.730180340E1	8.327022791E-1	1.040040398E1	3.565305769E-1
1.731020642E1	1.805982947E0	1.015753174E1	-3.092723191E-1
1.731860944E1	2.494517565E0	1.029751205E1	-7.477571070E-2
1.732701247E1	2.761915445E0	1.077727318E1	3.194418252E-1
1.733541549E1	2.642274380E0	1.119781208E1	3.050848842E-2
1.734381851E1	2.215155602E0	1.144427204E1	1.381855011E-1
1.735222153E1	1.597209096E0	1.135932732E1	3.230310678E-1
1.736062455E1	1.035493970E0	1.115055370E1	4.552344978E-1
1.736902757E1	7.130611539E-1	1.107757282E1	2.673979402E-1
1.737743059E1	5.934200287E-1	1.119900799E1	5.982056633E-2
1.738583361E1	6.562315822E-1	1.137667561E1	-2.153540403E-2
1.739423663E1	7.830511928E-1	1.144905853E1	-2.883351147E-1
1.740263965E1	9.146564603E-1	1.130608654E1	-3.577269912E-1
1.741104267E1	1.067797065E0	1.090170002E1	-2.267199457E-1
1.741944570E1	1.342971683E0	1.035254669E1	-4.845465720E-2
