"Time (s)"	"Gyroscope x (rad/s)"	"Gyroscope y (rad/s)"	"Gyroscope z (rad/s)"
4.199861100E-2	5.497625098E-3	3.268032894E-2	-1.191152167E-2
5.040163200E-2	4.581354558E-3	2.458660305E-2	-3.817795310E-3
5.880465300E-2	1.068982761E-3	1.114796288E-2	9.926267900E-3
6.720767400E-2	7.635590737E-4	1.527118147E-3	1.817270555E-2
7.561069500E-2	4.123218823E-3	-3.817795310E-3	1.710372418E-2
8.401371600E-2	2.290677279E-3	-1.374406368E-2	1.282779220E-2
9.241673600E-2	4.581354442E-4	-6.413896102E-3	1.389677543E-2
1.008197570E-1	6.261184346E-3	2.458660305E-2	1.481304597E-2
1.092227780E-1	5.955760833E-3	5.085303262E-2	1.695101149E-2
1.176257990E-1	7.330167107E-3	4.474456236E-2	1.954711229E-2
1.260288200E-1	8.093725890E-3	2.031067200E-2	2.076880634E-2
1.344318410E-1	9.162709117E-3	-2.748812549E-3	1.954711229E-2
1.428348610E-1	8.246437646E-3	-1.145338640E-2	1.832541823E-2
1.512378820E-1	5.497625098E-3	-1.313321572E-2	1.817270555E-2
1.596409030E-1	6.872031838E-3	-4.734066315E-3	1.832541823E-2
1.680439240E-1	6.719320081E-3	1.328592747E-2	1.832541823E-2
1.764469450E-1	7.941014133E-3	3.558185324E-2	1.557660475E-2
1.848499660E-1	7.941014133E-3	4.825693369E-2	1.267508045E-2
1.932529860E-1	9.926267900E-3	4.474456236E-2	1.007897966E-2
2.016560070E-1	1.023169141E-2	3.206948191E-2	1.206423342E-2
2.100590280E-1	8.399149403E-3	8.704573847E-3	1.359135192E-2
2.184620490E-1	5.192201585E-3	-1.343864016E-2	1.588202827E-2
2.268650700E-1	6.719320081E-3	-2.794626169E-2	1.695101149E-2
2.352680910E-1	8.857285604E-3	-2.672456764E-2	1.710372418E-2
2.436711110E-1	9.773556143E-3	-1.664558798E-2	1.786728203E-2
2.520741320E-1	1.160609815E-2	-7.177455351E-3	1.572931744E-2
2.604771530E-1	1.160609815E-2	-2.901524538E-3	1.466033421E-2
2.688801740E-1	1.160609815E-2	1.832541777E-3	1.328592747E-2
2.772831950E-1	1.160609815E-2	8.246437646E-3	1.221694518E-2
2.856862160E-1	1.023169141E-2	1.695101149E-2	1.343864016E-2
2.940892360E-1	8.093725890E-3	2.000524849E-2	1.252236869E-2
3.024922570E-1	1.023169141E-2	7.177455351E-3	1.282779220E-2
3.108952780E-1	1.053711493E-2	-9.315420873E-3	1.496575773E-2
3.192982990E-1	1.068982668E-2	-2.397575416E-2	1.695101149E-2
3.277013200E-1	7.635590620E-3	-2.977880463E-2	2.076880634E-2
3.361043410E-1	7.635590620E-3	-3.115320951E-2	2.031067200E-2
3.445073610E-1	1.068982668E-2	-3.161134571E-2	1.832541823E-2
3.529103820E-1	1.053711493E-2	-2.015795931E-2	1.832541823E-2
3.613134030E-1	1.145338640E-2	-2.748812549E-3	2.015795931E-2
3.697164240E-1	1.145338640E-2	1.603474095E-2	2.092151903E-2
3.781194450E-1	1.130067464E-2	2.748812735E-2	1.985253580E-2
3.865224660E-1	1.969982497E-2	4.718795046E-2	1.740914769E-2
3.949254860E-1	2.031067200E-2	4.856235534E-2	1.282779220E-2
4.033285070E-1	1.221694518E-2	3.038965166E-2	1.389677543E-2
4.117315280E-1	1.023169141E-2	1.618745178E-2	1.893626526E-2
4.201345490E-1	1.756185852E-2	4.810422286E-2	1.985253580E-2
4.285375700E-1	2.596100792E-2	8.872556686E-2	2.000524849E-2
4.369405910E-1	2.412846684E-2	8.338065445E-2	2.244863659E-2
4.453436110E-1	1.893626526E-2	4.810422286E-2	3.145863488E-2
4.537466320E-1	1.771457121E-2	2.214321308E-2	4.107947648E-2
4.621496530E-1	1.924168877E-2	9.009997360E-3	4.291202128E-2
4.705526740E-1	2.672456764E-2	4.886778072E-3	4.306473210E-2
4.789556950E-1	2.718270384E-2	-2.443389036E-3	4.428642616E-2
4.873587160E-1	2.367033064E-2	-1.496575773E-2	4.779879749E-2
4.957617360E-1	2.122694254E-2	-2.199050039E-2	5.390727147E-2
5.041647570E-1	2.458660305E-2	-1.618745178E-2	5.360184610E-2
5.125677780E-1	2.596100792E-2	2.137965523E-3	5.467082933E-2
5.209707990E-1	2.596100792E-2	1.908897609E-2	5.528167635E-2
5.293738200E-1	2.565558441E-2	3.695625812E-2	5.421269313E-2
5.377768410E-1	2.550287358E-2	4.627167806E-2	5.573981255E-2
5.461798610E-1	2.825168520E-2	5.054761097E-2	5.512896553E-2
5.545828820E-1	2.901524492E-2	5.436540768E-2	5.818320066E-2
5.629859030E-1	3.100049868E-2	6.902574003E-2	6.352811307E-2
5.713889240E-1	3.359659761E-2	8.200624585E-2	6.780404598E-2
5.797919450E-1	3.436015919E-2	9.223793447E-2	7.360709459E-2
5.881949660E-1	3.329117596E-2	9.529217333E-2	7.879929990E-2
5.965979860E-1	3.466558084E-2	9.132166207E-2	8.047912270E-2
6.050010070E-1	3.268032894E-2	8.490777016E-2	8.353336155E-2
6.134040280E-1	3.222219273E-2	7.879929990E-2	8.903098851E-2
6.218070490E-1	3.115320951E-2	7.238540053E-2	9.651386738E-2
6.302100700E-1	3.222219273E-2	7.223268598E-2	1.006370857E-1
6.386130910E-1	3.115320951E-2	8.002099395E-2	1.020114943E-1
6.470161110E-1	3.313846514E-2	1.014006436E-1	1.032331884E-1
6.554191320E-1	3.359659761E-2	1.331647038E-1	1.053711548E-1
6.638221530E-1	3.542914242E-2	1.565296054E-1	1.082726792E-1
6.722251740E-1	3.848337755E-2	1.699682474E-1	1.097997949E-1
6.806281950E-1	3.619270027E-2	1.814216375E-1	1.130067408E-1
6.890312160E-1	3.542914242E-2	1.884463727E-1	1.262926757E-1
6.974342360E-1	2.932066843E-2	1.989834905E-1	1.397313178E-1
7.058372570E-1	3.023693897E-2	2.370087355E-1	1.537808031E-1
7.142402780E-1	3.283303976E-2	2.802261710E-1	1.583621502E-1
7.226432990E-1	3.542914242E-2	3.217637837E-1	1.623326540E-1
7.310463200E-1	3.588727489E-2	3.578037918E-1	1.756185889E-1
7.394493410E-1	3.206948191E-2	3.990359604E-1	1.936385781E-1
7.478523610E-1	4.001049697E-2	4.295783341E-1	2.098260373E-1
7.562553820E-1	5.039490014E-2	4.321744442E-1	2.195995897E-1
7.646584030E-1	5.589252338E-2	4.004103839E-1	2.296785712E-1
7.730614240E-1	5.222744122E-2	3.568875194E-1	2.432699203E-1
7.814644450E-1	4.535540938E-2	3.381039500E-1	2.550287247E-1
7.898674660E-1	4.642439261E-2	3.271087110E-1	2.640387416E-1
7.982704860E-1	5.436540768E-2	2.875563502E-1	2.593046725E-1
8.066735070E-1	6.994201243E-2	1.882936656E-1	2.429644912E-1
8.150765280E-1	7.238540053E-2	6.184828654E-2	2.339545041E-1
8.234795490E-1	6.291726977E-2	-7.910472155E-2	2.635805905E-1
8.318825700E-1	4.642439261E-2	-1.759240031E-1	3.272614181E-1
8.402855910E-1	2.428117767E-2	-1.705790907E-1	3.920112252E-1
8.486886110E-1	1.038440317E-2	-1.192679256E-1	4.382829070E-1
8.570916320E-1	1.374406274E-3	-8.903098851E-2	4.741701782E-1
8.654946530E-1	-9.009996802E-2	-5.803048983E-2	4.642439187E-1
8.738976740E-1	-1.569877416E-1	-6.536065787E-2	4.066715539E-1
8.823006950E-1	-4.275930673E-2	-1.721062213E-1	4.306473136E-1
8.907037160E-1	3.619270027E-2	-1.853921413E-1	5.311316848E-1
8.991067360E-1	-2.580829710E-2	-6.948387623E-2	6.152759194E-1
9.075097570E-1	-8.063183725E-2	1.099525020E-2	6.409314871E-1
9.159127780E-1	-6.658235192E-2	6.306997687E-2	6.142069101E-1
9.243157990E-1	-5.024218559E-2	1.443126649E-1	5.774033666E-1
9.327188200E-1	-3.588727489E-2	2.066190839E-1	5.754181147E-1
9.411218410E-1	-4.871506989E-2	2.392994165E-1	6.048914790E-1
9.495248610E-1	-8.307522535E-2	2.654131353E-1	6.186355352E-1
9.579278820E-1	-9.956810623E-2	2.761029601E-1	5.754181147E-1
9.663309030E-1	-9.040539712E-2	2.996205688E-1	4.825693369E-1
9.747339240E-1	-8.215895295E-2	3.156553209E-1	3.749074936E-1
9.831369450E-1	-8.872556686E-2	3.054236174E-1	2.956500649E-1
9.915399660E-1	-8.490777016E-2	2.098260373E-1	2.829749882E-1
9.999429860E-1	-1.006370857E-1	8.399149776E-2	2.874036431E-1
1.008346007E0	-1.061347127E-1	1.058292910E-1	2.473931462E-1
1.016749028E0	-8.872556686E-2	2.241809368E-1	1.530172378E-1
1.025152049E0	-6.978929788E-2	2.614426315E-1	3.222219273E-2
1.033555070E0	-5.543438718E-2	2.102841735E-1	-8.460234851E-2
1.041958091E0	-5.039490014E-2	1.099525094E-1	-1.675248593E-1
1.050361111E0	-5.222744122E-2	-4.260659590E-2	-1.989834905E-1
1.058764132E0	-4.566083103E-2	-2.727433145E-1	-1.902789176E-1
1.067167153E0	-4.489727318E-2	-5.129590034E-1	-1.783674061E-1
1.075570174E0	-7.070557028E-2	-5.775560737E-1	-2.041756958E-1
1.083973195E0	-9.009996802E-2	-4.697415531E-1	-2.357870489E-1
1.092376216E0	-7.605048269E-2	-3.210002482E-1	-2.548760176E-1
1.100779236E0	-6.047387794E-2	-1.881409585E-1	-2.791571915E-1
1.109182257E0	-4.947862774E-2	-6.505523622E-2	-3.075616062E-1
1.117585278E0	-4.428642616E-2	-9.009997360E-3	-3.087832928E-1
1.125988299E0	-4.810422286E-2	-6.826218218E-2	-2.605263591E-1
1.134391320E0	-5.573981255E-2	-2.131856978E-1	-1.882936656E-1
1.142794341E0	-6.581879407E-2	-3.594835997E-1	-1.447708011E-1
1.151197361E0	-7.314895838E-2	-4.723376334E-1	-1.423274130E-1
1.159600382E0	-7.482878864E-2	-5.213581324E-1	-1.707318127E-1
1.168003403E0	-6.215370819E-2	-4.808894992E-1	-2.296785712E-1
1.176406424E0	-6.352811307E-2	-3.823903799E-1	-3.038965166E-1
1.184809445E0	-8.231166750E-2	-3.138227761E-1	-3.603998721E-1
1.193212466E0	-7.956285775E-2	-3.455868363E-1	-3.877353072E-1
1.201615486E0	-9.101624042E-2	-3.860554695E-1	-3.883461356E-1
1.210018507E0	-1.705790907E-1	-3.739912212E-1	-2.811424434E-1
1.218421528E0	-2.867927849E-1	-3.999522328E-1	2.580829710E-2
1.226824549E0	-3.298575282E-1	-6.390989423E-1	5.375455618E-1
1.235227570E0	-3.177932799E-1	-9.637642503E-1	8.867974877E-1
1.243630591E0	-2.284568697E-1	-6.777350307E-1	6.862868667E-1
1.252033611E0	-1.325538605E-1	3.556658030E-1	1.267508119E-1
1.260436632E0	-5.848862603E-2	1.372879267E0	-2.921377122E-1
1.268839653E0	-2.733541466E-2	1.663489819E0	-2.264716178E-1
1.277242674E0	-1.139230132E-1	1.056613088E0	2.761029601E-1
1.285645695E0	-2.417428046E-1	-2.076880634E-2	7.107207775E-1
1.294048716E0	-2.945810854E-1	-7.094991207E-1	7.172874212E-1
1.302451736E0	-2.816005945E-1	-7.823426127E-1	4.743228853E-1
1.310854757E0	-2.414373755E-1	-5.523586273E-1	2.530434728E-1
1.319257778E0	-2.206685692E-1	-3.098522723E-1	1.986780763E-1
1.327660799E0	-2.102841735E-1	-7.727217674E-2	2.353289127E-1
1.336063820E0	-1.905843467E-1	1.777565479E-1	2.330382317E-1
1.344466841E0	-1.748550236E-1	3.753656447E-1	1.580567211E-1
1.352869861E0	-1.713426560E-1	4.196520746E-1	9.804098308E-2
1.361272882E0	-1.786728203E-1	3.344388604E-1	1.062874198E-1
1.369675903E0	-2.006633282E-1	1.925695986E-1	1.872246861E-1
1.378078924E0	-2.009687424E-1	1.290414780E-1	2.580829561E-1
1.386481945E0	-1.889045089E-1	8.017370105E-2	2.728960216E-1
1.394884966E0	-1.846285909E-1	-7.421794534E-2	2.748812735E-1
1.403287986E0	-2.078407854E-1	-2.257080674E-1	2.932066917E-1
1.411691007E0	-2.087570578E-1	-1.846285909E-1	3.013004065E-1
1.420094028E0	-1.849340051E-1	-6.612421572E-2	3.031329513E-1
1.428497049E0	-1.737860441E-1	-4.581354442E-4	2.919849753E-1
1.436900070E0	-1.630962193E-1	6.047387794E-2	2.655658424E-1
1.445303091E0	-1.455343664E-1	1.168245375E-1	2.594573796E-1
1.453706111E0	-1.357607991E-1	1.273616552E-1	2.774773538E-1
1.462109132E0	-1.252236813E-1	9.269607067E-2	2.970244884E-1
1.470512153E0	-1.214058921E-1	2.779355086E-2	2.962609231E-1
1.478915174E0	-1.151447073E-1	-1.527118124E-2	2.838912606E-1
1.487318195E0	-1.052184403E-1	-1.801999472E-2	2.718270421E-1
1.495721216E0	-1.091889441E-1	-4.062134400E-2	2.747285664E-1
1.504124236E0	-1.171299592E-1	-6.917845458E-2	2.852656841E-1
1.512527257E0	-1.127013192E-1	-8.903098851E-2	2.712161839E-1
1.520930278E0	-1.049130186E-1	-1.279724985E-1	2.134911120E-1
1.529333299E0	-1.015533581E-1	-1.756185889E-1	1.696628332E-1
1.537736320E0	-9.498675168E-2	-1.930277348E-1	1.803526580E-1
1.546139341E0	-9.269607067E-2	-1.728697717E-1	2.211267054E-1
1.554542361E0	-7.757759839E-2	-1.125486046E-1	2.432699203E-1
1.562945382E0	-5.512896553E-2	-4.428642616E-2	2.279987335E-1
1.571348403E0	-3.451287001E-2	-1.924168877E-2	2.139492482E-1
1.579751424E0	-1.908897609E-2	-2.031067200E-2	2.185306102E-1
1.588154445E0	-6.872031838E-3	-9.162708884E-4	2.273878902E-1
1.596557466E0	6.413896102E-3	1.557660475E-2	2.249445021E-1
1.604960486E0	1.954711229E-2	2.107422985E-2	2.160872221E-1
1.613363507E0	3.222219273E-2	2.290677279E-2	2.037175596E-1
1.621766528E0	4.367557913E-2	1.496575773E-2	1.875301152E-1
1.630169549E0	5.131116882E-2	2.199050039E-2	1.676775664E-1
1.638572570E0	5.421269313E-2	4.840964451E-2	1.756185889E-1
1.646975591E0	6.505523622E-2	8.948912472E-2	2.052446753E-1
1.655378611E0	7.559234649E-2	9.513945878E-2	2.312056869E-1
1.663781632E0	8.307522535E-2	4.443913698E-2	2.451024652E-1
1.672184653E0	7.834116369E-2	-2.794626169E-2	2.609844804E-1
1.680587674E0	6.917845458E-2	-7.040014863E-2	2.907632887E-1
1.688990695E0	5.894676223E-2	-7.864658535E-2	3.210002482E-1
1.697393716E0	4.657710344E-2	-7.131642103E-2	3.478775024E-1
1.705796736E0	4.230117425E-2	-7.452336699E-2	3.678827584E-1
1.714199757E0	3.222219273E-2	-7.482878864E-2	4.056025743E-1
1.722602778E0	2.397575416E-2	-4.077405483E-2	4.793623984E-1
1.731005799E0	2.367033064E-2	4.275930673E-2	5.906893015E-1
1.739408820E0	5.299099907E-2	1.890572309E-1	7.195780873E-1
1.747811841E0	9.422318637E-2	2.797680497E-1	8.307522535E-1
1.756214861E0	1.017060652E-1	1.963873953E-1	8.857285380E-1
1.764617882E0	7.773031294E-2	2.443389036E-3	9.090934396E-1
1.773020903E0	4.337015375E-2	-1.291942000E-1	9.498674870E-1
1.781423924E0	1.481304597E-2	-2.063136548E-1	1.010952234E0
1.789826945E0	-6.566607859E-3	-2.782409191E-1	1.080130696E0
1.798229966E0	-2.550287358E-2	-2.848075330E-1	1.123958945E0
1.806632986E0	-2.229592577E-2	-2.012741715E-1	1.149003744E0
1.815036007E0	-3.665083554E-3	-9.086353332E-2	1.171146870E0
1.823439028E0	2.641914412E-2	-8.857285604E-3	1.183974743E0
1.831842049E0	6.032116711E-2	5.314370990E-2	1.161220670E0
1.840245070E0	8.215895295E-2	1.049130186E-1	1.118461370E0
1.848648091E0	8.475505561E-2	1.459924877E-1	1.079977989E0
1.857051111E0	9.177979827E-2	2.099787444E-1	1.050657272E0
1.865454132E0	9.834641218E-2	3.023693860E-1	9.987352490E-1
1.873857153E0	1.137702987E-1	3.849864900E-1	8.567132950E-1
1.882260174E0	1.719534993E-1	5.247178078E-1	5.195255876E-1
1.890663195E0	2.466295809E-1	7.953231335E-1	3.390202299E-2
1.899066216E0	2.707580328E-1	9.129112363E-1	-3.287885487E-1
1.907469236E0	2.525853515E-1	6.972821355E-1	-4.576773047E-1
1.915872257E0	2.593046725E-1	3.370349705E-1	-4.645493329E-1
1.924275278E0	2.644968629E-1	8.322793990E-2	-5.268557668E-1
1.932678299E0	2.580829561E-1	-2.412846684E-2	-6.710157394E-1
1.941081320E0	2.661767006E-1	-6.887302548E-2	-8.499939442E-1
1.949484341E0	2.626643181E-1	-5.803048983E-2	-1.039662004E0
1.957887361E0	2.619007528E-1	-2.596100792E-3	-1.216349602E0
1.966290382E0	2.696890533E-1	7.146912813E-2	-1.368450522E0
1.974693403E0	2.686200738E-1	1.392731816E-1	-1.478555799E0
1.983096424E0	2.545706034E-1	1.589729935E-1	-1.528187156E0
1.991499445E0	2.334963679E-1	1.345391124E-1	-1.539945960E0
1.999902466E0	2.185306102E-1	9.804098308E-2	-1.541167617E0
2.008305486E0	2.104368806E-1	6.230641901E-2	-1.545443535E0
2.016708507E0	2.125748396E-1	2.947338112E-2	-1.554300904E0
2.025111528E0	2.070772201E-1	1.068982668E-2	-1.567892194E0
2.033514549E0	2.005106062E-1	2.107422985E-2	-1.574458838E0
2.041917570E0	2.070772201E-1	-2.061609551E-2	-1.538724303E0
2.050320591E0	1.823379099E-1	-1.029277667E-1	-1.508181930E0
2.058723611E0	1.511846930E-1	-1.447708011E-1	-1.510930657E0
2.067126632E0	1.278197914E-1	-2.447970361E-1	-1.502073407E0
2.075529653E0	9.300149232E-2	-4.422534108E-1	-1.463131905E0
2.083932674E0	6.673506647E-2	-6.306998134E-1	-1.411973476E0
2.092335695E0	4.810422286E-2	-7.661551833E-1	-1.350277901E0
2.100738716E0	1.435491070E-2	-8.609892130E-1	-1.266286373E0
2.109141736E0	-3.634541109E-2	-9.251281619E-1	-1.178171635E0
2.117544757E0	-8.567132801E-2	-9.866710305E-1	-1.080741525E0
2.125947778E0	-8.842013776E-2	-1.030346632E0	-9.917105436E-1
2.134350799E0	-7.559234649E-2	-1.041647315E0	-9.303203821E-1
2.142753820E0	-6.474980712E-2	-1.116170645E0	-8.455653191E-1
2.151156841E0	-5.024218559E-2	-1.309351087E0	-6.905628443E-1
2.159559861E0	-6.536065787E-2	-1.519329786E0	-4.456130862E-1
2.167962882E0	-3.863608837E-2	-1.761225343E0	-7.956285775E-2
2.176365903E0	-1.068982761E-3	-2.026180267E0	3.958290219E-1
2.184768924E0	-5.848862603E-2	-2.203936815E0	8.985562921E-1
2.193171945E0	-2.489202619E-1	-1.896833420E0	1.140146375E0
2.201574966E0	-4.352286756E-1	-7.658497691E-1	9.097042680E-1
2.209977986E0	-4.943281412E-1	8.996253014E-1	3.633013964E-1
2.218381007E0	-3.581092060E-1	2.320914268E0	-2.078407854E-1
2.226784028E0	-1.007898003E-1	2.879686594E0	-5.091412067E-1
2.235187049E0	1.006370857E-1	2.594115496E0	-3.544441164E-1
2.243590070E0	6.856760383E-2	1.703042150E0	2.073826492E-1
2.251993091E0	-1.536280811E-1	5.853443742E-1	7.498149872E-1
2.260396111E0	-2.814478874E-1	-4.075878263E-1	9.717052579E-1
2.268799132E0	-2.976353168E-1	-1.118155956E0	9.715525508E-1
2.277202153E0	-2.838912606E-1	-1.397007704E0	8.941276670E-1
2.285605174E0	-2.794626355E-1	-1.131289124E0	7.953231335E-1
2.294008195E0	-2.580829561E-1	-4.818057716E-1	6.798729897E-1
2.302411216E0	-1.974563748E-1	2.542651594E-1	5.390726924E-1
2.310814236E0	-1.433963925E-1	7.424848676E-1	3.781144619E-1
2.319217257E0	-1.342336833E-1	9.462023973E-1	2.461714447E-1
2.327620278E0	-1.270562261E-1	9.872818589E-1	1.931804419E-1
2.336023299E0	-9.009996802E-2	9.524635673E-1	2.441861928E-1
2.344426320E0	-8.124268800E-2	7.934905887E-1	3.579564989E-1
2.352829341E0	-1.043021679E-1	4.333961308E-1	4.607315361E-1
2.361232361E0	-1.328592747E-1	-6.765133142E-2	5.027272701E-1
2.369635382E0	-1.579040140E-1	-4.398100376E-1	4.737120569E-1
2.378038403E0	-1.502684206E-1	-4.970769584E-1	4.201101959E-1
2.386441424E0	-1.157555580E-1	-3.492519259E-1	3.723114133E-1
2.394844445E0	-6.994201243E-2	-1.420219839E-1	3.327590525E-1
2.403247466E0	-3.237490356E-2	3.329117596E-2	2.887780368E-1
2.411650486E0	-1.160609815E-2	1.377460510E-1	2.464768738E-1
2.420053507E0	3.970507067E-3	1.664558798E-1	2.273878902E-1
2.428456528E0	9.620844387E-3	1.337755471E-1	2.295258641E-1
2.436859549E0	5.650337320E-3	5.192201585E-2	2.347180545E-1
2.445262570E0	8.551862091E-3	-5.405998230E-2	2.287622988E-1
2.453665591E0	1.374406368E-2	-1.293469071E-1	2.046338320E-1
2.462068611E0	2.550287358E-2	-1.406475753E-1	1.742441803E-1
2.470471632E0	4.001049697E-2	-1.185043678E-1	1.455343664E-1
2.478874653E0	4.856235534E-2	-1.073564067E-1	1.288887709E-1
2.487277674E0	4.642439261E-2	-1.235438585E-1	1.236965731E-1
2.495680695E0	3.878879920E-2	-1.296523362E-1	1.316375881E-1
2.504083716E0	3.359659761E-2	-1.302631795E-1	1.432436854E-1
2.512486736E0	2.748812735E-2	-1.627907902E-1	1.556133330E-1
2.520889757E0	1.939439960E-2	-2.177670449E-1	1.649287641E-1
2.529292778E0	2.031067200E-2	-2.301367074E-1	1.725643575E-1
2.537695799E0	2.244863659E-2	-2.063136548E-1	1.795890927E-1
2.546098820E0	2.183778957E-2	-1.913478971E-1	1.924168915E-1
2.554501841E0	2.076880634E-2	-2.023431510E-1	2.150182426E-1
2.562904861E0	2.321219631E-2	-1.957765520E-1	2.507528067E-1
2.571307882E0	3.038965166E-2	-1.688992679E-1	3.009949923E-1
2.579710903E0	3.497100621E-2	-1.551551968E-1	3.611634374E-1
2.588113924E0	3.939964995E-2	-1.850867122E-1	4.167505503E-1
2.596516945E0	4.611896724E-2	-2.278460264E-1	4.666872919E-1
2.604919966E0	6.108472496E-2	-2.451024652E-1	5.097520351E-1
2.613322986E0	8.872556686E-2	-2.318165302E-1	5.566345453E-1
2.621726007E0	1.198787764E-1	-1.944021434E-1	5.981721878E-1
2.630129028E0	1.461452097E-1	-1.750077456E-1	6.233696342E-1
2.638532049E0	1.730224788E-1	-2.032594234E-1	6.010736823E-1
2.646935070E0	1.820324808E-1	-2.603736520E-1	5.253286362E-1
2.655338091E0	1.803526580E-1	-3.206948042E-1	4.923428893E-1
2.663741111E0	1.676775664E-1	-3.619270027E-1	5.265503526E-1
2.672144132E0	1.496575773E-1	-3.413109183E-1	5.974085927E-1
2.680547153E0	1.409530044E-1	-3.038965166E-1	6.742226481E-1
2.688950174E0	1.382041872E-1	-2.774773538E-1	7.375980616E-1
2.697353195E0	1.420219839E-1	-2.799207568E-1	7.808154821E-1
2.705756216E0	1.519482583E-1	-2.693836391E-1	8.131904006E-1
2.714159236E0	1.592784226E-1	-2.325800955E-1	8.461761475E-1
2.722562257E0	1.690519750E-1	-1.922641695E-1	8.832851648E-1
2.730965278E0	1.779092699E-1	-1.705790907E-1	9.289459586E-1
2.739368299E0	1.922641695E-1	-8.994726092E-2	9.587247968E-1
2.747771320E0	2.057028115E-1	3.405473381E-2	9.773555994E-1
2.756174341E0	2.205158621E-1	1.565296054E-1	9.846857786E-1
2.764577361E0	2.315111160E-1	2.615953386E-1	9.784246087E-1
2.772980382E0	2.434226274E-1	3.518480062E-1	9.613208771E-1
2.781383403E0	2.513636351E-1	4.306473136E-1	9.379559755E-1
2.789786424E0	2.446443290E-1	4.990622103E-1	9.086353183E-1
2.798189445E0	2.296785712E-1	5.635066032E-1	8.719844818E-1
2.806592466E0	2.087570578E-1	6.132906675E-1	8.249492049E-1
2.814995486E0	1.887518018E-1	6.325323582E-1	7.423321605E-1
2.823398507E0	1.789782494E-1	6.536065936E-1	5.509842038E-1
2.831801528E0	2.084516287E-1	7.469134927E-1	2.476985604E-1
2.840204549E0	2.180724740E-1	8.564078808E-1	-6.276455522E-2
2.848607570E0	1.853921413E-1	8.128849864E-1	-2.675510943E-1
2.857010591E0	1.765348613E-1	6.258130074E-1	-4.013266563E-1
2.865413611E0	1.908897758E-1	3.767400384E-1	-5.280774832E-1
2.873816632E0	1.870719790E-1	1.324011385E-1	-6.754443645E-1
2.882219653E0	1.963873953E-1	-4.886778072E-2	-8.548807502E-1
2.890622674E0	2.070772201E-1	-1.714953631E-1	-1.039356589E0
2.899025695E0	2.202104330E-1	-2.528907657E-1	-1.217113137E0
2.907428716E0	2.313583940E-1	-3.122956753E-1	-1.387234092E0
2.915831736E0	2.267770469E-1	-3.573456407E-1	-1.528339863E0
2.924234757E0	2.084516287E-1	-4.092676640E-1	-1.627907991E0
2.932637778E0	1.789782494E-1	-4.538595080E-1	-1.699071646E0
2.941040799E0	1.415638477E-1	-4.537068009E-1	-1.745190620E0
2.949443820E0	8.780929446E-2	-3.939964771E-1	-1.764279604E0
2.957846841E0	3.252761811E-2	-2.942756712E-1	-1.765806675E0
2.966249861E0	-1.236965694E-2	-1.789782494E-1	-1.767639279E0
2.974652882E0	-5.176930502E-2	-7.391251624E-2	-1.792836666E0
2.983055903E0	-8.948912472E-2	3.863608837E-2	-1.824600816E0
2.991458924E0	-1.284306347E-1	1.560714692E-1	-1.849950910E0
2.999861945E0	-1.502684206E-1	2.400629669E-1	-1.840024710E0
3.008264966E0	-1.620272398E-1	2.008160353E-1	-1.763057947E0
3.016667986E0	-1.780619770E-1	3.237490356E-2	-1.643637300E0
3.025071007E0	-1.945548505E-1	-1.412584335E-1	-1.515817523E0
3.033474028E0	-1.962346882E-1	-2.669402659E-1	-1.376086116E0
3.041877049E0	-1.824906170E-1	-3.684936166E-1	-1.209172130E0
3.050280070E0	-1.678302884E-1	-4.598152637E-1	-1.039814711E0
3.058683091E0	-1.731752008E-1	-5.251759291E-1	-9.110786915E-1
3.067086111E0	-1.950129867E-1	-5.686988235E-1	-8.371661901E-1
3.075489132E0	-1.805053651E-1	-6.781931520E-1	-7.730271816E-1
3.083892153E0	-1.516428292E-1	-8.368607163E-1	-7.070556879E-1
3.092295174E0	-1.829487532E-1	-9.538379908E-1	-6.497887969E-1
3.100698195E0	-2.287622988E-1	-1.048061132E0	-5.737382770E-1
3.109101216E0	-2.512109280E-1	-1.121821046E0	-4.714213610E-1
3.117504236E0	-2.423536479E-1	-1.136023164E0	-3.617742956E-1
3.125907257E0	-2.620534599E-1	-1.027903199E0	-2.460187376E-1
3.134310278E0	-2.693836391E-1	-7.539382577E-1	-7.437065244E-2
3.142713299E0	-1.702736765E-1	-4.491254389E-1	2.449497581E-1
3.151116320E0	-1.675248593E-1	-1.508792788E-1	6.742226481E-1
3.159519341E0	-2.362451702E-1	3.775036037E-1	9.295567870E-1
3.167922361E0	-2.486148328E-1	1.204590797E0	7.747070193E-1
3.176325382E0	-1.869192570E-1	2.229592562E0	2.738122940E-1
3.184728403E0	-8.017370105E-2	3.116695404E0	-2.779355049E-1
3.193131424E0	6.658235192E-2	3.376305580E0	-4.535540938E-1
3.201534445E0	8.826743066E-2	2.730945349E0	-6.154286116E-2
3.209937466E0	-1.701209545E-1	1.243226886E0	5.960342288E-1
3.218340486E0	-3.877353072E-1	-3.371876776E-1	9.770501852E-1
3.226743507E0	-4.046863019E-1	-1.288735032E0	1.021336675E0
3.235146528E0	-3.400892019E-1	-1.506349325E0	8.812998533E-1
3.243549549E0	-3.092414141E-1	-1.188403368E0	6.942279339E-1
3.251952570E0	-2.809897363E-1	-5.908420086E-1	5.289937258E-1
3.260355591E0	-1.963873953E-1	8.307522535E-2	4.081986845E-1
3.268758611E0	-1.052184403E-1	6.514685750E-1	3.309265077E-1
3.277161632E0	-1.064401343E-1	9.358180165E-1	2.837385535E-1
3.285564653E0	-1.328592747E-1	9.759812355E-1	2.585411072E-1
3.293967674E0	-1.417165697E-1	8.214368224E-1	2.683146596E-1
3.302370695E0	-1.627907902E-1	4.779879749E-1	3.051182032E-1
3.310773716E0	-2.075353563E-1	6.398624927E-2	3.353551328E-1
3.319176736E0	-2.333436459E-1	-2.128802687E-1	3.440597057E-1
3.327579757E0	-2.304421216E-1	-2.669402659E-1	3.428380191E-1
3.335982778E0	-1.995943487E-1	-1.698155403E-1	3.446705639E-1
3.344385799E0	-1.658450365E-1	-2.855710872E-2	3.361186981E-1
3.352788820E0	-1.388150454E-1	6.536065787E-2	3.051182032E-1
3.361191841E0	-1.093416587E-1	1.055238619E-1	2.603736520E-1
3.369594861E0	-7.666133344E-2	1.024696305E-1	2.276933193E-1
3.377997882E0	-5.528167635E-2	4.230117425E-2	2.189887464E-1
3.386400903E0	-4.337015375E-2	-4.535540938E-2	2.226538211E-1
3.394803924E0	-3.542914242E-2	-1.094943732E-1	2.124221325E-1
3.403206945E0	-2.840439789E-2	-1.386623234E-1	1.922641695E-1
3.411609966E0	-2.596100792E-2	-1.421747059E-1	1.688992679E-1
3.420012986E0	-2.733541466E-2	-1.148392856E-1	1.466033459E-1
3.428416007E0	-2.183778957E-2	-5.848862603E-2	1.253764033E-1
3.436819028E0	-1.634016447E-2	-2.504473738E-2	1.108687744E-1
3.445222049E0	-1.542389300E-2	-3.436015919E-2	1.030804738E-1
3.453625070E0	-6.719320081E-3	-6.459710002E-2	9.880454093E-2
3.462028091E0	-1.832541777E-3	-8.735115826E-2	1.064401343E-1
3.470431111E0	-3.665083554E-3	-1.087308154E-1	1.284306347E-1
3.478834132E0	-5.344913341E-3	-1.337755471E-1	1.496575773E-1
3.487237153E0	-9.315420873E-3	-1.707318127E-1	1.524063945E-1
3.495640174E0	-1.374406368E-2	-2.058555335E-1	1.412584335E-1
3.504043195E0	-1.664558798E-2	-2.409792393E-1	1.362189353E-1
3.512446216E0	-1.527118124E-2	-2.724378705E-1	1.415638477E-1
3.520849236E0	-5.192201585E-3	-2.942756712E-1	1.438545287E-1
3.529252257E0	-1.832541777E-3	-3.064926267E-1	1.481304616E-1
3.537655278E0	-4.123218823E-3	-3.237490356E-1	1.699682474E-1
3.546058299E0	-1.252236869E-2	-3.268032968E-1	2.218902707E-1
3.554461320E0	-5.344913341E-3	-2.796153426E-1	2.872509360E-1
3.562864341E0	3.817795310E-3	-2.229592502E-1	3.582619131E-1
3.571267361E0	4.123218823E-3	-2.102841735E-1	4.286620617E-1
3.579670382E0	2.443389036E-3	-2.328855246E-1	5.016583204E-1
3.588073403E0	9.162708884E-4	-2.327328026E-1	5.752654076E-1
3.596476424E0	6.719320081E-3	-1.818797737E-1	6.409314871E-1
3.604879445E0	3.466558084E-2	-1.041494608E-1	6.859814525E-1
3.613282466E0	7.543963939E-2	-1.710372418E-2	7.192726731E-1
3.621685486E0	1.180462316E-1	3.100049868E-2	7.449282408E-1
3.630088507E0	1.441599578E-1	1.756185852E-2	7.641699314E-1
3.638491528E0	1.395785958E-1	-5.665608495E-2	7.701256871E-1
3.646894549E0	1.046075895E-1	-1.728697717E-1	7.780666947E-1
3.655297570E0	4.917320609E-2	-2.742704153E-1	8.338065147E-1
3.663700591E0	1.328592747E-2	-2.473931462E-1	9.423846006E-1
3.672103611E0	-3.054236295E-3	-1.302631795E-1	1.048672080E0
3.680506632E0	-7.482878864E-3	-5.803048983E-2	1.125027895E0
3.688909653E0	-1.695101149E-2	-5.467082933E-2	1.161678791E0
3.697312674E0	-7.635590620E-3	-1.740914769E-2	1.178629756E0
3.705715695E0	1.527118147E-4	3.054236248E-2	1.207339644E0
3.714118716E0	-1.985253533E-3	4.062134400E-2	1.249793530E0
3.722521736E0	1.068982668E-2	1.649287529E-2	1.289651275E0
3.730924757E0	3.115320951E-2	1.389677543E-2	1.299730301E0
3.739327778E0	4.337015375E-2	4.810422286E-2	1.286902428E0
3.747730799E0	5.971032009E-2	8.078455180E-2	1.264606595E0
3.756133820E0	7.681404054E-2	8.796200156E-2	1.237576604E0
3.764536841E0	8.444963396E-2	9.254335612E-2	1.207950473E0
3.772939861E0	9.468132257E-2	1.154501289E-1	1.172215939E0
3.781342882E0	1.111742035E-1	1.747023165E-1	1.122889996E0
3.789745903E0	1.244601309E-1	2.605263591E-1	1.063943267E0
3.798148924E0	1.423274130E-1	3.611634374E-1	9.848384857E-1
3.806551945E0	1.675248593E-1	4.437805414E-1	8.652651310E-1
3.814954966E0	2.105895877E-1	5.233433843E-1	6.331431866E-1
3.823357986E0	2.672456801E-1	6.832326651E-1	2.967190444E-1
3.831761007E0	2.970244884E-1	7.718055248E-1	1.801999472E-2
3.840164028E0	2.658712566E-1	6.209262609E-1	-9.345962852E-2
3.848567049E0	2.365505993E-1	3.542914093E-1	-1.191152185E-1
3.856970070E0	2.319692522E-1	2.040229887E-1	-2.060082406E-1
3.865373091E0	2.399102598E-1	1.847812980E-1	-3.633013964E-1
3.873776111E0	2.464768738E-1	1.904316396E-1	-5.335750580E-1
3.882179132E0	2.530434728E-1	2.018850148E-1	-6.972821355E-1
3.890582153E0	2.722851634E-1	2.788517773E-1	-8.739697337E-1
3.898985174E0	2.968717813E-1	4.062134326E-1	-1.056154966E0
3.907388195E0	3.129065037E-1	4.833329022E-1	-1.198940516E0
3.915791216E0	3.028275371E-1	4.563029110E-1	-1.273769259E0
3.924194236E0	2.895416021E-1	3.865135908E-1	-1.312558055E0
3.932597257E0	2.750339806E-1	2.964136302E-1	-1.351957679E0
3.941000278E0	2.536543310E-1	1.798945218E-1	-1.402352571E0
3.949403299E0	2.313583940E-1	5.909947306E-2	-1.457481503E0
3.957806320E0	2.041756958E-1	-3.573456407E-2	-1.516275644E0
3.966209341E0	1.779092699E-1	-9.132166207E-2	-1.571557283E0
3.974612361E0	1.517955512E-1	-1.353026628E-1	-1.612789512E0
3.983015382E0	1.221694499E-1	-1.808107942E-1	-1.643790007E0
3.991418403E0	9.055810422E-2	-2.176143378E-1	-1.676164865E0
3.999821424E0	6.688777357E-2	-2.640387416E-1	-1.721978426E0
4.008224445E0	4.230117425E-2	-3.436015844E-1	-1.773900390E0
4.016627466E0	1.068982668E-2	-4.668400288E-1	-1.807191610E0
4.025030486E0	-1.206423342E-2	-6.206207871E-1	-1.802610278E0
4.033433507E0	-3.054236248E-2	-8.108997345E-1	-1.773289561E0
4.041836528E0	-5.726693198E-2	-9.684983492E-1	-1.750230074E0
4.050239549E0	-8.506047726E-2	-1.063485026E0	-1.738623977E0
4.058642570E0	-1.195733473E-1	-1.117545009E0	-1.723963618E0
4.067045591E0	-1.588202864E-1	-1.152668834E0	-1.706401825E0
4.075448611E0	-2.024958730E-1	-1.159235358E0	-1.679371834E0
4.083851632E0	-2.247917950E-1	-1.133121610E0	-1.636307120E0
4.092254653E0	-2.257080674E-1	-1.061499834E0	-1.593700528E0
4.100657674E0	-2.301367074E-1	-9.468132257E-1	-1.536280870E0
4.109060695E0	-2.562504113E-1	-8.651124239E-1	-1.432894945E0
4.117463716E0	-2.709107697E-1	-8.670976758E-1	-1.288735032E0
4.125866736E0	-2.780882120E-1	-8.932114244E-1	-1.097539783E0
4.134269757E0	-3.060344756E-1	-8.608365059E-1	-7.592831254E-1
4.142672778E0	-2.510582209E-1	-8.913788795E-1	-5.558710173E-2
4.151075799E0	6.688777357E-2	-1.415791273E0	1.299730301E0
4.159478820E0	1.884463727E-1	-1.754964232E0	2.410556078E0
4.167881841E0	-4.234698713E-1	-7.589777112E-1	1.888739705E0
4.176284861E0	-5.062396526E-1	1.563921690E0	5.138752460E-1
4.184687882E0	-2.535016090E-2	4.014946461E0	-6.974348426E-1
4.193090903E0	4.126273096E-1	5.854512691E0	-1.437323570E0
4.201493924E0	4.818057716E-1	6.144360065E0	-9.694145918E-1
4.209896945E0	-4.504998401E-2	3.617284775E0	2.550287247E-1
4.218299966E0	-4.541649222E-1	-4.611896724E-2	1.107771516E0
4.226702986E0	-4.268295169E-1	-2.177365065E0	1.157708287E0
4.235106007E0	-2.777827978E-1	-2.545400620E0	9.009997249E-1
4.243509028E0	-3.365768492E-1	-2.309155464E0	6.902574301E-1
4.251912049E0	-4.315635860E-1	-1.784132123E0	5.441122055E-1
4.260315070E0	-3.425326049E-1	-9.484930634E-1	4.219427407E-1
4.268718091E0	-1.679829955E-1	-1.649287529E-2	3.452814221E-1
4.277121111E0	-8.903098851E-2	6.878139973E-1	2.780882120E-1
4.285524132E0	-7.559234649E-2	1.165954709E0	1.866138428E-1
4.293927153E0	-7.574506104E-2	1.450914979E0	8.658760041E-2
4.302330174E0	-9.681928903E-2	1.427702785E0	2.412846684E-2
4.310733195E0	-1.324011385E-1	1.080894232E0	4.734066129E-2
4.319136216E0	-1.725643575E-1	5.248705149E-1	1.605001241E-1
4.327539236E0	-2.015796006E-1	-1.099525020E-2	2.849602401E-1
4.335942257E0	-2.076880634E-1	-3.422271907E-1	3.364241421E-1
4.344345278E0	-2.003578991E-1	-4.495835900E-1	3.251234591E-1
4.352748299E0	-1.898207814E-1	-4.104893506E-1	2.924431264E-1
4.361151320E0	-1.780619770E-1	-3.361186981E-1	2.606790662E-1
4.369554341E0	-1.490467340E-1	-2.446443290E-1	2.331909388E-1
4.377957361E0	-1.035386100E-1	-9.452861547E-2	2.073826492E-1
4.386360382E0	-5.176930502E-2	1.166718230E-1	1.866138428E-1
4.394763403E0	-1.527118124E-2	2.293731421E-1	1.843231618E-1
4.403166424E0	-8.246437646E-3	1.794363856E-1	2.052446753E-1
4.411569445E0	-1.740914769E-2	3.894151375E-2	2.319692522E-1
4.419972466E0	-1.542389300E-2	-7.727217674E-2	2.510582209E-1
4.428375486E0	-1.374406368E-2	-1.296523362E-1	2.661767006E-1
4.436778507E0	-9.468132630E-3	-1.240019947E-1	2.690782249E-1
4.445181528E0	-9.009997360E-3	-8.521319181E-2	2.605263591E-1
4.453584549E0	-1.756185852E-2	-7.024743408E-2	2.458660156E-1
4.461987570E0	-2.153236605E-2	-5.558710173E-2	2.281514555E-1
4.470390591E0	-2.275406010E-2	-1.435491070E-2	2.142546773E-1
4.478793611E0	-1.817270555E-2	5.222744122E-2	2.076880634E-1
4.487196632E0	-9.162709117E-3	8.338065445E-2	2.144073844E-1
4.495599653E0	-7.788302377E-3	4.367557913E-2	2.281514555E-1
4.504002674E0	-5.955760833E-3	-3.985778242E-2	2.470877171E-1
4.512405695E0	-5.039489828E-3	-1.140757278E-1	2.696890533E-1
4.520808716E0	-4.123218823E-3	-1.514901221E-1	3.025220931E-1
4.529211736E0	-4.581354558E-3	-1.415638477E-1	3.393256664E-1
4.537614757E0	-7.177455351E-3	-9.849911928E-2	3.742966652E-1
4.546017778E0	-9.468132630E-3	-8.154810965E-2	4.069769979E-1
4.554420799E0	-1.298050396E-2	-8.002099395E-2	4.483618736E-1
4.562823820E0	-1.511846948E-2	-5.925218388E-2	5.015056133E-1
4.571226841E0	-1.511846948E-2	-2.412846684E-2	5.647283196E-1
4.579629861E0	-1.771457121E-2	-2.443389036E-2	6.226060390E-1
4.588032882E0	-2.061609551E-2	-6.047387794E-2	6.717792749E-1
4.596435903E0	-2.367033064E-2	-1.024696305E-1	7.114843726E-1
4.604838924E0	-2.321219631E-2	-1.198787764E-1	7.466080785E-1
4.613241945E0	-2.092151903E-2	-9.132166207E-2	7.835643291E-1
4.621644966E0	-1.695101149E-2	-3.054236248E-2	8.281561732E-1
4.630047986E0	-1.435491070E-2	1.267508045E-2	8.883246183E-1
4.638451007E0	-1.618745178E-2	2.809897438E-2	9.625425935E-1
4.646854028E0	-8.246437646E-3	4.199574888E-2	1.047603011E0
4.655257049E0	2.626643144E-2	7.956285775E-2	1.140451789E0
4.663660070E0	8.826743066E-2	1.259872466E-1	1.196191669E0
4.672063091E0	1.296523362E-1	5.161659420E-2	1.180156946E0
4.680466111E0	1.097997949E-1	-2.437280566E-1	1.103801012E0
4.688869132E0	3.817795217E-2	-5.728220344E-1	1.017671585E0
4.697272153E0	-1.908897609E-2	-6.481089592E-1	9.770501852E-1
4.705675174E0	-4.230117425E-2	-4.993676245E-1	1.030957460E0
4.714078195E0	-5.604523420E-2	-2.893888950E-1	1.140604496E0
4.722481216E0	-3.084778599E-2	-1.989834905E-1	1.204896212E0
4.730884236E0	1.068982761E-3	-1.774511337E-1	1.211004734E0
4.739287257E0	9.620844387E-3	-1.186570823E-1	1.186418056E0
4.747690278E0	1.786728203E-2	-1.863084175E-2	1.203521848E0
4.756093299E0	4.169032723E-2	6.978929788E-2	1.247808218E0
4.764496320E0	6.322269142E-2	1.591257155E-1	1.276670814E0
4.772899341E0	7.986827940E-2	2.383831441E-1	1.267049909E0
4.781302361E0	1.001789495E-1	3.298575282E-1	1.212989926E0
4.789705382E0	1.140757278E-1	4.239279926E-1	1.127471328E0
4.798108403E0	1.278197914E-1	4.703523815E-1	1.001942158E0
4.806511424E0	1.588202864E-1	5.050179958E-1	7.269082665E-1
4.814914445E0	2.101314515E-1	6.916317940E-1	3.101576865E-1
4.823317466E0	2.553341687E-1	7.690566778E-1	-3.558185324E-2
4.831720486E0	2.502946556E-1	6.157340407E-1	-2.295258641E-1
4.840123507E0	2.414373755E-1	4.314108789E-1	-3.356605768E-1
4.848526528E0	2.739650011E-1	1.524063945E-1	-4.098785222E-1
4.856929549E0	2.594573796E-1	-2.641914412E-2	-5.505260825E-1
4.865332570E0	2.680092454E-1	-3.359660041E-3	-7.719582319E-1
4.873735591E0	3.046600819E-1	7.299624383E-2	-1.011715770E0
4.882138611E0	3.234436214E-1	1.495048702E-1	-1.252389550E0
4.890541632E0	3.374931216E-1	2.405211031E-1	-1.480082870E0
4.898944653E0	3.443651497E-1	3.474193811E-1	-1.657839417E0
4.907347674E0	3.423798978E-1	4.266768098E-1	-1.762599707E0
4.915750695E0	3.370349705E-1	4.634803534E-1	-1.818797708E0
4.924153716E0	3.293993771E-1	4.712686539E-1	-1.847660303E0
4.932556736E0	3.104631305E-1	4.876088202E-1	-1.871941447E0
4.940959757E0	2.974826097E-1	5.412106514E-1	-1.889655948E0
4.949362778E0	2.869454920E-1	5.693096519E-1	-1.896833420E0
4.957765799E0	2.683146596E-1	5.360184908E-1	-1.898207903E0
4.966168820E0	2.519744933E-1	4.840964675E-1	-1.906301618E0
4.974571841E0	2.422009408E-1	4.005630910E-1	-1.904316306E0
4.982974861E0	2.295258641E-1	2.544178963E-1	-1.853157878E0
4.991377882E0	2.107423097E-1	5.360184610E-2	-1.746717691E0
4.999780903E0	1.904316396E-1	-1.443126649E-1	-1.630045891E0
5.008183924E0	1.739387512E-1	-3.185568452E-1	-1.526507258E0
5.016586945E0	1.479777545E-1	-4.877615273E-1	-1.425259352E0
5.024989966E0	9.376505762E-2	-6.346703172E-1	-1.319277406E0
5.033392986E0	3.878879920E-2	-7.056813240E-1	-1.218182087E0
5.041796007E0	7.024743594E-3	-6.673506498E-1	-1.127776742E0
5.050199028E0	2.473931387E-2	-5.402944088E-1	-1.064859509E0
5.058602049E0	4.917320609E-2	-3.666610718E-1	-1.033400893E0
5.067005070E0	4.810422286E-2	-2.582356930E-1	-1.002247691E0
5.075408091E0	1.695101149E-2	-3.213056624E-1	-9.385668039E-1
5.083811111E0	-3.512371704E-2	-5.248705149E-1	-8.550334573E-1
5.092214132E0	-8.674030751E-2	-7.427902818E-1	-7.708892226E-1
5.100617153E0	-1.360662282E-1	-9.255862832E-1	-6.558972597E-1
5.109020174E0	-1.582094431E-1	-1.105175376E0	-4.472928941E-1
5.117423195E0	-2.211267054E-1	-1.243379593E0	-1.087308154E-1
5.125826216E0	-2.646495700E-1	-1.309503794E0	4.138490260E-1
5.134229236E0	-1.627907902E-1	-1.459924936E0	1.192068458E0
5.142632257E0	-1.265980899E-1	-1.519024372E0	1.767181158E0
5.151035278E0	-2.067717910E-1	-6.658235192E-1	1.391968250E0
5.159438299E0	-1.714953631E-1	1.059819937E0	5.257867575E-1
5.167841320E0	-1.012479365E-1	3.031176805E0	-2.594573796E-1
5.176244341E0	4.581354558E-3	4.186747074E0	-6.516213417E-1
5.184647361E0	1.740914732E-1	3.884377718E0	-3.840702176E-1
5.193050382E0	1.128540337E-1	2.233104944E0	3.483356535E-1
5.201453403E0	-1.702736765E-1	2.970244884E-1	8.351809382E-1
5.209856424E0	-2.244863659E-1	-8.774821162E-1	8.742751479E-1
5.218259445E0	-1.554606259E-1	-1.321568012E0	7.742488980E-1
5.226662466E0	-1.968455315E-1	-1.387386799E0	7.088882327E-1
5.235065486E0	-2.725905776E-1	-1.187181592E0	6.595623493E-1
5.243468507E0	-2.591519356E-1	-7.146912813E-1	5.706840754E-1
5.251871528E0	-1.635543555E-1	-9.498675168E-2	4.165978432E-1
5.260274549E0	-1.117850468E-1	4.384356141E-1	2.341072112E-1
5.268677570E0	-9.972081333E-2	7.710419297E-1	1.194206402E-1
5.277080591E0	-8.628217876E-2	9.417737722E-1	9.055810422E-2
5.285483611E0	-9.223793447E-2	9.266552925E-1	1.473668963E-1
5.293886632E0	-1.033858955E-1	6.157340407E-1	2.773246467E-1
5.302289653E0	-1.333174109E-1	1.714953631E-1	3.997995257E-1
5.310692674E0	-1.501157135E-1	-1.982199401E-1	4.610369802E-1
5.319095695E0	-1.438545287E-1	-4.249969721E-1	4.752391577E-1
5.327498716E0	-1.423274130E-1	-4.918847680E-1	4.683671296E-1
5.335901736E0	-1.301104724E-1	-4.088095427E-1	4.556920528E-1
5.344304757E0	-9.758284688E-2	-2.657185495E-1	4.343124032E-1
5.352707778E0	-7.696675509E-2	-1.524063945E-1	4.004103839E-1
5.361110799E0	-5.482354015E-2	-7.253811508E-2	3.558185399E-1
5.369513820E0	-4.138490185E-2	-2.382304333E-2	3.275668323E-1
5.377916841E0	-3.848337755E-2	-2.076880634E-2	3.217637837E-1
5.386319861E0	-3.771981969E-2	-5.482354015E-2	3.234436214E-1
5.394722882E0	-3.680354729E-2	-8.185353130E-2	3.174878657E-1
5.403125903E0	-2.916795574E-2	-8.414421231E-2	3.078670204E-1
5.411528924E0	-2.611372061E-2	-8.368607610E-2	2.976353168E-1
5.419931945E0	-1.450762246E-2	-1.038440317E-1	2.812951505E-1
5.428334966E0	-6.566607859E-3	-1.128540337E-1	2.634278834E-1
5.436737986E0	5.497625098E-3	-9.269607067E-2	2.492256761E-1
5.445141007E0	1.710372418E-2	-8.093725890E-2	2.484621257E-1
5.453544028E0	2.031067200E-2	-1.068982705E-1	2.564031482E-1
5.461947049E0	1.557660475E-2	-1.501157135E-1	2.574721277E-1
5.470350070E0	9.315420873E-3	-1.754658818E-1	2.594573796E-1
5.478753091E0	2.901524538E-3	-1.890572309E-1	2.687727809E-1
5.487156111E0	-2.596100792E-3	-1.950129867E-1	2.776300907E-1
5.495559132E0	-6.108472589E-3	-1.904316396E-1	2.855710983E-1
5.503962153E0	-1.389677543E-2	-1.922641695E-1	3.098522723E-1
5.512365174E0	-2.504473738E-2	-2.101314515E-1	3.532224298E-1
5.520768195E0	-3.634541109E-2	-2.316638231E-1	4.033119082E-1
5.529171216E0	-5.268557742E-2	-2.264716178E-1	4.576773047E-1
5.537574236E0	-6.337540597E-2	-2.141019702E-1	5.062396526E-1
5.545977257E0	-7.330167294E-2	-2.226538211E-1	5.520532131E-1
5.554380278E0	-7.070557028E-2	-2.331909388E-1	5.943543911E-1
5.562783299E0	-4.642439261E-2	-2.063136548E-1	6.462764144E-1
5.571186320E0	-4.382828996E-2	-1.930277348E-1	7.056813240E-1
5.579589341E0	-4.734066129E-2	-2.583884001E-1	7.655443549E-1
5.587992361E0	-3.252761811E-2	-3.671191931E-1	8.232693672E-1
5.596395382E0	7.482878864E-3	-4.071297050E-1	8.632798791E-1
5.604798403E0	5.299099907E-2	-4.222481549E-1	8.521319032E-1
5.613201424E0	7.757759839E-2	-5.317425132E-1	7.826480269E-1
5.621604445E0	6.520794332E-2	-7.615737915E-1	6.777350307E-1
5.630007466E0	1.053711493E-2	-9.245173335E-1	6.394043565E-1
5.638410486E0	-2.855710872E-2	-9.011524320E-1	7.082774043E-1
5.646813507E0	-6.429167092E-2	-7.597413063E-1	8.680139780E-1
5.655216528E0	-9.773556143E-2	-6.661289334E-1	1.046381354E0
5.663619549E0	-1.119377613E-1	-6.219952106E-1	1.146865726E0
5.672022570E0	-9.605573118E-2	-5.760289431E-1	1.170536041E0
5.680425591E0	-6.749862432E-2	-4.865398407E-1	1.165038466E0
5.688828611E0	-2.901524492E-2	-3.597890437E-1	1.188403368E0
5.697231632E0	1.740914769E-2	-2.322746664E-1	1.229635477E0
5.705634653E0	6.459710002E-2	-9.223793447E-2	1.257887244E0
5.714037674E0	1.067455560E-1	4.672981426E-2	1.254222155E0
5.722440695E0	1.385096163E-1	1.682884246E-1	1.228566527E0
5.730843716E0	1.656923145E-1	2.904578745E-1	1.198787689E0
5.739246736E0	1.995943487E-1	4.143071473E-1	1.176339149E0
5.747649757E0	2.194468826E-1	5.341859460E-1	1.141673565E0
5.756052778E0	2.386885732E-1	6.198572516E-1	1.052184463E0
5.764455799E0	2.673983872E-1	6.939224601E-1	8.751913905E-1
5.772858820E0	2.730487287E-1	7.966975570E-1	6.218425035E-1
5.781261841E0	3.255815804E-1	9.787300229E-1	3.263451457E-1
5.789664861E0	3.849864900E-1	1.004080176E0	7.696675509E-2
5.798067882E0	3.655920923E-1	8.200624585E-1	-9.284878522E-2
5.806470903E0	3.481829464E-1	6.074876189E-1	-2.328855246E-1
5.814873924E0	3.640649617E-1	4.558447599E-1	-3.770454824E-1
5.823276945E0	3.657447994E-1	3.506263196E-1	-5.355603099E-1
5.831679966E0	3.532224298E-1	2.774773538E-1	-7.221741676E-1
5.840082986E0	3.471139669E-1	3.013004065E-1	-9.501729012E-1
5.848486007E0	3.506263196E-1	4.085040987E-1	-1.202911019E0
5.856889028E0	3.561239541E-1	5.143333673E-1	-1.446639061E0
5.865292049E0	3.550549746E-1	5.438067913E-1	-1.639972210E0
5.873695070E0	3.448232710E-1	5.256340504E-1	-1.779703498E0
5.882098091E0	3.417690396E-1	4.752391577E-1	-1.879729748E0
5.890501111E0	3.316900730E-1	3.605526090E-1	-1.943868637E0
5.898904132E0	3.229855001E-1	2.168507725E-1	-1.999608517E0
5.907307153E0	3.127537966E-1	7.101099193E-2	-2.064816475E0
5.915710174E0	2.956500649E-1	-7.177454978E-2	-2.139034271E0
5.924113195E0	2.845021188E-1	-1.748550236E-1	-2.216612101E0
5.932516216E0	2.632751763E-1	-2.483094037E-1	-2.251583099E0
5.940919236E0	2.156290859E-1	-3.226800561E-1	-2.224858522E0
5.949322257E0	1.580567211E-1	-3.897205591E-1	-2.181488276E0
5.957725278E0	1.206423342E-1	-3.561239541E-1	-2.193552494E0
5.966128299E0	1.194206402E-1	-2.730487287E-1	-2.238449812E0
5.974531320E0	1.149920002E-1	-2.606790662E-1	-2.243947506E0
5.982934341E0	8.047912270E-2	-3.454341292E-1	-2.161024809E0
5.991337361E0	3.970507160E-2	-4.330907166E-1	-2.007244110E0
5.999740382E0	1.038440317E-2	-4.986040890E-1	-1.840330124E0
6.008143403E0	-2.046338283E-2	-5.688515306E-1	-1.693268657E0
6.016546424E0	-4.993676394E-2	-6.702521443E-1	-1.572168112E0
6.024949445E0	-7.009471953E-2	-7.974610925E-1	-1.442210436E0
6.033352466E0	-1.038440317E-1	-9.431481957E-1	-1.298966646E0
6.041755486E0	-1.400367320E-1	-1.040425539E0	-1.161067963E0
6.050158507E0	-1.727170646E-1	-1.016907930E0	-1.027139664E0
6.058561528E0	-1.818797737E-1	-9.512419105E-1	-8.626690507E-1
6.066964549E0	-1.701209545E-1	-9.048175216E-1	-6.728482842E-1
6.075367570E0	-1.443126649E-1	-8.466343284E-1	-5.024218559E-1
6.083770591E0	-1.087308154E-1	-7.832589149E-1	-3.558185399E-1
6.092173611E0	-7.986827940E-2	-6.916317940E-1	-2.272351831E-1
6.100576632E0	-5.558710173E-2	-5.544965863E-1	-9.239064902E-2
6.108979653E0	-1.004843712E-1	-3.576510847E-1	1.064401343E-1
6.117382674E0	-5.606050491E-1	7.910472155E-2	4.475983381E-1
6.125785695E0	-1.075549364E0	7.441646457E-1	9.323056340E-1
6.134188716E0	-6.971294284E-1	1.254069448E0	1.298966646E0
6.142591736E0	1.711899489E-1	1.775274873E0	1.039814711E0
6.150994757E0	5.166240931E-1	3.043393850E0	3.471139669E-1
6.159397778E0	3.145863414E-1	3.848337650E0	1.969982497E-2
6.167800799E0	-9.819369763E-2	2.743467808E0	4.005630910E-1
6.176203820E0	-3.042019308E-1	5.868715048E-1	1.028208613E0
6.184606841E0	-3.626905680E-1	-1.322026134E0	1.456412554E0
6.193009861E0	-4.315635860E-1	-1.807802439E0	1.445111871E0
6.201412882E0	-3.849864900E-1	-1.037829518E0	1.125027895E0
6.209815903E0	-2.079934925E-1	-8.826743066E-2	7.837170362E-1
6.218218924E0	-1.004843712E-1	2.567085624E-1	5.696150661E-1
6.226621945E0	-1.829487532E-1	7.666133344E-2	4.721849263E-1
6.235024966E0	-2.418955117E-1	1.082726792E-1	3.862081766E-1
6.243427986E0	-2.090624720E-1	5.613686442E-1	2.913741469E-1
6.251831007E0	-1.904316396E-1	9.732323885E-1	2.353289127E-1
6.260234028E0	-1.808107942E-1	8.831323981E-1	2.780882120E-1
6.268637049E0	-1.753131598E-1	4.237752855E-1	3.608580232E-1
6.277040070E0	-2.070772201E-1	-1.252236813E-1	3.897205591E-1
6.285443091E0	-2.255553454E-1	-4.862344265E-1	3.526115716E-1
6.293846111E0	-2.104368806E-1	-6.016845703E-1	3.144336343E-1
6.302249132E0	-1.811162084E-1	-5.544965863E-1	2.947337925E-1
6.310652153E0	-1.366770715E-1	-4.190412164E-1	2.806843221E-1
6.319055174E0	-9.040539712E-2	-2.218902707E-1	2.475458533E-1
6.327458195E0	-5.115845799E-2	1.068982761E-3	1.927223057E-1
6.335861216E0	-1.908897609E-2	1.806580722E-1	1.481304616E-1
6.344264236E0	-6.719320081E-3	2.266243398E-1	1.302631795E-1
6.352667257E0	-1.023169141E-2	1.354553849E-1	1.395785958E-1
6.361070278E0	-2.137965336E-2	-6.872031838E-3	1.522536725E-1
6.369473299E0	-2.855710872E-2	-1.227803007E-1	1.345391124E-1
6.377876320E0	-3.405473381E-2	-1.925695986E-1	9.697200358E-2
6.386279341E0	-3.374931216E-2	-1.916533262E-1	7.635590434E-2
6.394682361E0	-2.641914412E-2	-1.073564067E-1	6.887302548E-2
6.403085382E0	-2.199050039E-2	-1.206423342E-2	7.024743408E-2
6.411488403E0	-2.305948362E-2	3.787253052E-2	7.711946964E-2
6.419891424E0	-2.489202656E-2	3.726168349E-2	8.842013776E-2
6.428294445E0	-3.436015919E-2	-2.901524492E-2	1.053711548E-1
6.436697466E0	-4.504998401E-2	-1.334701329E-1	1.342336833E-1
6.445100486E0	-5.619794875E-2	-2.131856978E-1	1.739387512E-1
6.453503507E0	-5.879404768E-2	-2.460187376E-1	2.136438340E-1
6.461906528E0	-5.161659420E-2	-2.531961799E-1	2.374668717E-1
6.470309549E0	-4.352286831E-2	-2.443388999E-1	2.406738251E-1
6.478712570E0	-3.329117596E-2	-1.945548505E-1	2.391466945E-1
6.487115591E0	-2.153236605E-2	-1.394258887E-1	2.431172132E-1
6.495518611E0	-1.801999472E-2	-1.688992679E-1	2.599155009E-1
6.503921632E0	-2.275406010E-2	-2.528907657E-1	2.887780368E-1
6.512324653E0	-1.924168877E-2	-2.896943092E-1	3.176405728E-1
6.520727674E0	3.665083554E-3	-2.507528067E-1	3.549022675E-1
6.529130695E0	2.993151546E-2	-1.731752008E-1	4.129327536E-1
6.537533716E0	4.611896724E-2	-1.119377613E-1	4.669927359E-1
6.545936736E0	8.292251825E-2	-8.185353130E-2	5.167768002E-1
6.554339757E0	1.130067408E-1	-8.261708915E-2	5.549547076E-1
6.562742778E0	1.539335102E-1	-1.091889441E-1	5.801522136E-1
6.571145799E0	1.829487532E-1	-1.695101112E-1	5.760289431E-1
6.579548820E0	1.927223057E-1	-2.777827978E-1	5.386145711E-1
6.587951841E0	1.745496094E-1	-3.840702176E-1	4.766135812E-1
6.596354861E0	1.606528312E-1	-4.129327536E-1	4.175141156E-1
6.604757882E0	1.449235082E-1	-3.831539452E-1	3.839175105E-1
6.613160903E0	1.269035190E-1	-3.190149665E-1	3.878880143E-1
6.621563924E0	1.316375881E-1	-2.716743052E-1	4.124746025E-1
6.629966945E0	1.450762302E-1	-2.652604282E-1	4.107947946E-1
6.638369966E0	1.572931707E-1	-3.069507480E-1	3.712424338E-1
6.646772986E0	1.673721522E-1	-3.674246371E-1	3.523061574E-1
6.655176007E0	1.768402755E-1	-3.654393852E-1	3.976615667E-1
6.663579028E0	1.849340051E-1	-3.051182032E-1	4.822639227E-1
6.671982049E0	1.863084137E-1	-2.480039895E-1	5.702258945E-1
6.680385070E0	1.797417998E-1	-2.205158621E-1	6.284091473E-1
6.688788091E0	1.698155403E-1	-1.915006191E-1	6.688777208E-1
6.697191111E0	1.565296054E-1	-1.721062213E-1	7.212579250E-1
6.705594132E0	1.475196183E-1	-1.575985998E-1	7.791357040E-1
6.713997153E0	1.420219839E-1	-1.424801201E-1	8.252546191E-1
6.722400174E0	1.314848661E-1	-1.032331884E-1	8.631271720E-1
6.730803195E0	1.339282542E-1	-4.016320780E-2	9.103151560E-1
6.739206216E0	1.392731816E-1	5.635065958E-2	9.604045749E-1
6.747609236E0	1.380514801E-1	1.626380831E-1	9.927794933E-1
6.756012257E0	1.305686086E-1	2.240282297E-1	1.017213345E0
6.764415278E0	1.177408099E-1	2.231119573E-1	1.048672080E0
6.772818299E0	1.035386100E-1	2.226538211E-1	1.074327588E0
6.781221320E0	9.468132257E-2	2.605263591E-1	1.087308168E0
6.789624341E0	9.391776472E-2	3.170297146E-1	1.083948493E0
6.798027361E0	9.910997003E-2	3.778090179E-1	1.053558826E0
6.806430382E0	1.044548824E-1	4.760027230E-1	9.451334476E-1
6.814833403E0	1.101052165E-1	6.447492838E-1	7.250757217E-1
6.823236424E0	1.490467340E-1	8.409839869E-1	4.320217371E-1
6.831639445E0	1.630962193E-1	9.213103652E-1	1.892099380E-1
6.840042466E0	1.511846930E-1	8.623636365E-1	4.550812021E-2
6.848445486E0	1.491994411E-1	7.597413063E-1	-4.092676565E-2
6.856848507E0	1.527118087E-1	6.922426820E-1	-1.354553849E-1
6.865251528E0	1.655396074E-1	6.361974478E-1	-2.652604282E-1
6.873654549E0	1.896680743E-1	5.552601814E-1	-4.303418994E-1
6.882057570E0	2.174616307E-1	4.801259339E-1	-6.221479177E-1
6.890460591E0	2.371614426E-1	4.280512035E-1	-8.134958148E-1
6.898863611E0	2.538070381E-1	3.970507085E-1	-9.808679819E-1
6.907266632E0	2.661767006E-1	3.513898849E-1	-1.119988441E0
6.915669653E0	2.658712566E-1	2.588465214E-1	-1.243226886E0
6.924072674E0	2.515163720E-1	1.378987730E-1	-1.359135151E0
6.932475695E0	2.344126403E-1	2.962609194E-2	-1.471836448E0
6.940878716E0	2.137965411E-1	-5.512896553E-2	-1.566365123E0
6.949281736E0	1.777565479E-1	-1.331647038E-1	-1.637986898E0
6.957684757E0	1.342336833E-1	-1.826433241E-1	-1.705485582E0
6.966087778E0	9.941539168E-2	-2.038702667E-1	-1.777565479E0
6.974490799E0	7.299624383E-2	-2.209739983E-1	-1.855906725E0
6.982893820E0	4.795150831E-2	-2.550287247E-1	-1.924626946E0
6.991296841E0	1.985253580E-2	-3.197785318E-1	-1.964790225E0
6.999699861E0	-1.114796288E-2	-4.129327536E-1	-1.975327373E0
7.008102882E0	-4.291202128E-2	-5.224271417E-1	-1.963568568E0
7.016505903E0	-7.284353673E-2	-6.404733658E-1	-1.946159363E0
7.024908924E0	-8.796200156E-2	-7.608102560E-1	-1.920656443E0
7.033311945E0	-1.035386100E-1	-8.692356348E-1	-1.867970943E0
7.041714966E0	-1.508792788E-1	-1.023321867E0	-1.752520800E0
7.050117986E0	-2.031067163E-1	-1.157402873E0	-1.611720443E0
7.058521007E0	-2.087570578E-1	-1.194206357E0	-1.486954927E0
7.066924028E0	-1.777565479E-1	-1.124569774E0	-1.385401607E0
7.075327049E0	-1.629435122E-1	-9.793408513E-1	-1.267813444E0
7.083730070E0	-1.562241912E-1	-8.211314082E-1	-1.091889501E0
7.092133091E0	-1.644706279E-1	-6.730009913E-1	-8.568660021E-1
7.100536111E0	-1.818797737E-1	-5.100574493E-1	-5.741963983E-1
7.108939132E0	-1.754658818E-1	-3.074088693E-1	-2.298312783E-1
7.117342153E0	-2.217375487E-1	-4.016320780E-2	3.523061574E-1
7.125745174E0	-4.001049697E-2	-3.035911024E-1	1.769471765E0
7.134148195E0	-2.137965411E-1	-1.046839476E0	2.690629482E0
7.142551216E0	-5.967977643E-1	-1.243074164E-1	1.681204319E0
7.150954236E0	-1.424801201E-1	2.452093601E0	-1.496575773E-2
7.159357257E0	5.349494815E-1	5.048500061E0	-1.305838704E0
7.167760278E0	4.537068009E-1	5.344760895E0	-1.046075940E0
7.176163299E0	-2.232646793E-1	2.724073410E0	4.898995161E-1
7.184566320E0	-4.859289825E-1	-9.790354371E-1	1.734348059E0
7.192969341E0	-3.800997138E-1	-2.806995869E0	1.814369082E0
7.201372361E0	-4.248442650E-1	-2.899844646E0	1.417623758E0
7.209775382E0	-4.842491746E-1	-1.898513317E0	9.457442760E-1
7.218178403E0	-3.367295563E-1	-5.665608048E-1	5.902311802E-1
7.226581424E0	-1.673721522E-1	1.259872466E-1	4.801259339E-1
7.234984445E0	-1.727170646E-1	3.368822634E-1	4.663818777E-1
7.243387466E0	-1.873773932E-1	7.146912813E-1	3.565820754E-1
7.251790486E0	-1.456870735E-1	1.096318126E0	2.142546773E-1
7.260193507E0	-1.808107942E-1	1.037218690E0	1.771457046E-1
7.268596528E0	-1.939440072E-1	5.967977643E-1	2.887780368E-1
7.276999549E0	-2.018850148E-1	7.941014133E-3	4.563029110E-1
7.285402570E0	-2.215848416E-1	-4.320217371E-1	5.450284481E-1
7.293805591E0	-2.098260373E-1	-5.868715048E-1	5.526640415E-1
7.302208611E0	-1.907370538E-1	-5.622848868E-1	5.289937258E-1
7.310611632E0	-1.519482583E-1	-4.805840850E-1	4.915793240E-1
7.319014653E0	-9.956810623E-2	-3.341334462E-1	4.259132445E-1
7.327417674E0	-4.963133857E-2	-1.047603041E-1	3.361186981E-1
7.335820695E0	-3.359660041E-3	1.539335102E-1	2.582356930E-1
7.344223716E0	2.596100792E-3	2.988570333E-1	2.267770469E-1
7.352626736E0	-1.252236869E-2	2.562504113E-1	2.338017821E-1
7.361029757E0	-2.901524492E-2	1.043021679E-1	2.516690791E-1
7.369432778E0	-4.169032723E-2	-3.115320951E-2	2.496838123E-1
7.377835799E0	-4.596625641E-2	-1.279724985E-1	2.299840003E-1
7.386238820E0	-4.932591692E-2	-1.934858710E-1	2.064663768E-1
7.394641841E0	-4.443913698E-2	-1.766875684E-1	1.789782494E-1
7.403044861E0	-3.145863488E-2	-9.529217333E-2	1.455343664E-1
7.411447882E0	-2.046338283E-2	-3.909422457E-2	1.200314835E-1
7.419850903E0	-1.267508045E-2	-1.374406368E-2	1.102579311E-1
7.428253924E0	-6.413896102E-3	3.206948051E-3	1.039967462E-1
7.436656945E0	-8.399149403E-3	-1.924168877E-2	1.085781008E-1
7.445059966E0	-1.435491070E-2	-7.207997888E-2	1.314848661E-1
7.453462986E0	-1.298050396E-2	-9.345962852E-2	1.586675793E-1
7.461866007E0	-7.024743594E-3	-6.474980712E-2	1.801999360E-1
7.470269028E0	-5.803049076E-3	-7.284353673E-2	2.067717910E-1
7.478672049E0	-8.704573847E-3	-1.220167428E-1	2.377723008E-1
7.487075070E0	-8.704573847E-3	-1.539335102E-1	2.680092454E-1
7.495478091E0	-1.068982668E-2	-1.672194302E-1	2.889307439E-1
7.503881111E0	-1.267508045E-2	-1.910424829E-1	3.042019308E-1
7.512284132E0	-1.374406368E-2	-2.052446753E-1	3.147390485E-1
7.520687153E0	-1.572931744E-2	-1.510319859E-1	3.240544796E-1
7.529090174E0	-7.635590620E-3	-6.795676053E-2	3.468085229E-1
7.537493195E0	-3.817795310E-3	-1.817270555E-2	3.752129376E-1
7.545896216E0	-1.374406274E-3	-2.641914412E-2	4.046863019E-1
7.554299236E0	3.817795310E-3	-6.520794332E-2	4.349232614E-1
7.562702257E0	1.053711493E-2	-7.635590434E-2	4.712686539E-1
7.571105278E0	3.359659761E-2	-4.275930673E-2	5.230379701E-1
7.579508299E0	6.658235192E-2	1.130067464E-2	5.711421967E-1
7.587911320E0	9.407047927E-2	4.688252881E-2	5.943543911E-1
7.596314341E0	1.127013192E-1	5.650337320E-3	5.839699507E-1
7.604717361E0	1.084253863E-1	-1.226275861E-1	5.596888065E-1
7.613120382E0	1.006370857E-1	-3.049654961E-1	5.464028716E-1
7.621523403E0	7.513421029E-2	-4.491254389E-1	5.619794726E-1
7.629926424E0	3.985778242E-2	-4.874561131E-1	5.932853818E-1
7.638329445E0	1.343864016E-2	-3.700207174E-1	6.310052276E-1
7.646732466E0	2.214321308E-2	-1.948602796E-1	6.766660213E-1
7.655135486E0	4.199574888E-2	-6.536065787E-2	7.330167294E-1
7.663538507E0	6.200099736E-2	-1.603474095E-2	7.898254991E-1
7.671941528E0	7.559234649E-2	-1.832541823E-2	8.707627654E-1
7.680344549E0	7.528692484E-2	-3.588727489E-2	9.871291518E-1
7.688747570E0	6.230641901E-2	-5.176930502E-2	1.114338160E0
7.697150591E0	3.924693540E-2	-4.596625641E-2	1.227955699E0
7.705553611E0	3.161134571E-2	-6.978929788E-2	1.314848781E0
7.713956632E0	2.611372061E-2	-8.032641560E-2	1.364480019E0
7.722359653E0	2.779355086E-2	-3.344388679E-2	1.390135646E0
7.730762674E0	4.260659590E-2	3.939964995E-2	1.398076653E0
7.739165695E0	6.154286116E-2	1.068982705E-1	1.384943485E0
7.747568716E0	6.093201414E-2	2.075353563E-1	1.339740753E0
7.755971736E0	8.108997345E-2	3.133646548E-1	1.246891975E0
7.764374757E0	1.325538605E-1	3.965925872E-1	1.035538793E0
7.772777778E0	2.084516287E-1	5.686988235E-1	7.069029808E-1
7.781180799E0	2.849602401E-1	7.869240046E-1	3.602471650E-1
7.789583820E0	3.281776905E-1	8.698465228E-1	1.039967462E-1
7.797986841E0	3.520007432E-1	8.086090684E-1	-7.971556485E-2
7.806389861E0	3.820849657E-1	6.879667044E-1	-2.524326444E-1
7.814792882E0	3.985778391E-1	5.657972693E-1	-4.408790171E-1
7.823195903E0	4.008685052E-1	4.445441067E-1	-6.520794630E-1
7.831598924E0	3.994941115E-1	3.445178568E-1	-8.832851648E-1
7.840001945E0	3.918585181E-1	3.011476994E-1	-1.138466597E0
7.848404966E0	3.816268146E-1	2.925958335E-1	-1.400214672E0
7.856807986E0	3.794888556E-1	2.780882120E-1	-1.627602577E0
7.865211007E0	3.683409095E-1	2.055501044E-1	-1.807497025E0
7.873614028E0	3.498627543E-1	9.254335612E-2	-1.960819721E0
7.882017049E0	3.319954872E-1	-2.260134928E-2	-2.104368925E0
7.890420070E0	3.061871827E-1	-1.459924877E-1	-2.220429897E0
7.898823091E0	2.677038014E-1	-2.756448388E-1	-2.295869350E0
7.907226111E0	2.240282297E-1	-3.776563108E-1	-2.336643457E0
7.915629132E0	1.915006191E-1	-4.995203316E-1	-2.337254286E0
7.924032153E0	1.359135211E-1	-6.604785919E-1	-2.323662996E0
7.932435174E0	7.116370648E-2	-8.096780181E-1	-2.306711912E0
7.940838195E0	2.565558441E-2	-9.506310225E-1	-2.272046328E0
7.949241216E0	5.039489828E-3	-1.086697221E0	-2.217680931E0
7.957644236E0	-2.107422985E-2	-1.234827757E0	-2.133689404E0
7.966047257E0	-8.078455180E-2	-1.408461094E0	-2.010145664E0
7.974450278E0	-1.351499557E-1	-1.449387789E0	-1.861404300E0
7.982853299E0	-1.406475753E-1	-1.319582820E0	-1.705638289E0
7.991256320E0	-1.223221645E-1	-1.110062122E0	-1.549719453E0
7.999659341E0	-9.804098308E-2	-9.176452756E-1	-1.398534775E0
8.008062361E0	-8.002099395E-2	-7.511894107E-1	-1.254069448E0
8.016465382E0	-7.666133344E-2	-5.926745534E-1	-1.096470833E0
8.024868403E0	-6.612421572E-2	-4.923428893E-1	-9.126058221E-1
8.033271424E0	-5.558710173E-2	-5.002838969E-1	-7.256865501E-1
8.041674445E0	-6.154286116E-2	-5.418215394E-1	-5.628957748E-1
8.050077466E0	-9.071081877E-2	-5.842754245E-1	-3.791834414E-1
8.058480486E0	-1.333174109E-1	-6.077930331E-1	-6.169557199E-2
8.066883507E0	-2.632751763E-1	-6.281036735E-1	5.577035546E-1
8.075286528E0	-4.312581718E-1	-6.232169271E-1	1.269646049E0
8.083689549E0	-4.911212027E-1	-5.803048983E-2	1.335006714E0
8.092092570E0	-3.203893900E-1	1.276670814E0	6.149705052E-1
8.100495591E0	-1.679830020E-3	2.926110983E0	-3.703261614E-1
8.108898611E0	2.475458533E-1	4.031897545E0	-9.681929350E-1
8.117301632E0	1.579040140E-1	3.746173620E0	-6.105418205E-1
8.125704653E0	-2.263189107E-1	1.717702508E0	4.653128982E-1
8.134107674E0	-4.297310412E-1	-5.845808387E-1	1.302173615E0
8.142510695E0	-4.036173224E-1	-1.839719176E0	1.474738002E0
8.150913716E0	-2.953446507E-1	-1.866443753E0	1.140299082E0
8.159316736E0	-2.275405973E-1	-1.313016176E0	7.079719901E-1
8.167719757E0	-1.921114624E-1	-7.334748507E-1	4.066715539E-1
8.176122778E0	-1.798945218E-1	-3.483356535E-1	3.135173619E-1
8.184525799E0	-2.041756958E-1	-1.039967462E-1	3.600944579E-1
8.192928820E0	-2.154763639E-1	1.731752008E-1	3.666610718E-1
8.201331841E0	-2.002051920E-1	4.866925478E-1	2.646495700E-1
8.209734861E0	-1.789782494E-1	6.945333481E-1	1.261399537E-1
8.218137882E0	-1.609582454E-1	7.012526393E-1	5.726693198E-2
8.226540903E0	-1.566823274E-1	5.679352283E-1	7.437065244E-2
8.234943924E0	-1.568350345E-1	3.695625961E-1	1.491994411E-1
8.243346945E0	-1.588202864E-1	1.450762302E-1	2.341072112E-1
8.251749966E0	-1.644706279E-1	-9.147437662E-2	2.796153426E-1
8.260152986E0	-1.685938388E-1	-2.663294077E-1	2.712161839E-1
8.268556007E0	-1.730224788E-1	-3.196258247E-1	2.415900975E-1
8.276959028E0	-1.455343664E-1	-2.415900975E-1	2.261662036E-1
8.285362049E0	-1.130067408E-1	-6.780404598E-2	2.066190839E-1
8.293765070E0	-8.948912472E-2	1.241547018E-1	1.713426560E-1
8.302168091E0	-6.810946763E-2	2.542651594E-1	1.235438585E-1
8.310571111E0	-5.589252338E-2	2.770192325E-1	8.383878320E-2
8.318974132E0	-5.161659420E-2	2.156290859E-1	6.948387623E-2
8.327377153E0	-4.886778072E-2	1.353026628E-1	7.650861889E-2
8.335780174E0	-4.886778072E-2	4.550812021E-2	9.758284688E-2
8.344183195E0	-5.146388337E-2	-7.253811508E-2	1.317902952E-1
8.352586216E0	-5.054761097E-2	-1.562241912E-1	1.591257155E-1
8.360989236E0	-4.367557913E-2	-1.488940120E-1	1.718007922E-1
8.369392257E0	-4.245388508E-2	-9.193251282E-2	1.725643575E-1
8.377795278E0	-3.649812192E-2	-4.978405312E-2	1.710372269E-1
8.386198299E0	-3.191677108E-2	-5.467082933E-2	1.663031727E-1
8.394601320E0	-3.145863488E-2	-7.925742865E-2	1.560714692E-1
8.403004341E0	-2.901524492E-2	-8.307522535E-2	1.476723254E-1
8.411407361E0	-2.443389036E-2	-6.719319522E-2	1.589729935E-1
8.419810382E0	-2.702999115E-2	-5.283828825E-2	1.876828223E-1
8.428213403E0	-2.458660305E-2	-6.139015034E-2	2.159345001E-1
8.436616424E0	-1.756185852E-2	-5.879404768E-2	2.263189107E-1
8.445019445E0	-1.114796288E-2	-2.672456764E-2	2.250972092E-1
8.453422466E0	1.068982761E-3	8.399149403E-3	2.408265322E-1
8.461825486E0	1.236965694E-2	1.557660475E-2	2.761029601E-1
8.470228507E0	1.328592747E-2	-3.206948051E-3	3.185568452E-1
8.478631528E0	1.160609815E-2	-5.207473040E-2	3.613161445E-1
8.487034549E0	1.343864016E-2	-9.284878522E-2	3.987305462E-1
8.495437570E0	1.114796288E-2	-1.224748790E-1	4.275930822E-1
8.503840591E0	1.328592747E-2	-1.485885978E-1	4.492781460E-1
8.512243611E0	1.557660475E-2	-1.779092699E-1	4.598152637E-1
8.520646632E0	1.160609815E-2	-1.679829955E-1	4.651601911E-1
8.529049653E0	9.620844387E-3	-1.238492802E-1	4.833329022E-1
8.537452674E0	6.719320081E-3	-7.543963939E-2	5.187620521E-1
8.545855695E0	5.955760833E-3	-5.360184610E-2	5.648810267E-1
8.554258716E0	1.084253844E-2	-6.856760383E-2	6.102364063E-1
8.562661736E0	1.374406368E-2	-1.017060652E-1	6.514685750E-1
8.571064757E0	2.031067200E-2	-1.427855492E-1	6.850652099E-1
8.579467778E0	3.084778599E-2	-1.867665499E-1	7.159129977E-1
8.587870799E0	5.070032179E-2	-2.151709497E-1	7.467607856E-1
8.596273820E0	9.254335612E-2	-2.047865391E-1	7.739434838E-1
8.604676841E0	1.394258887E-1	-1.724116355E-1	7.855495811E-1
8.613079861E0	1.757712960E-1	-1.666085869E-1	7.679877281E-1
8.621482882E0	1.850867122E-1	-1.840177327E-1	7.264500856E-1
8.629885903E0	1.650814712E-1	-2.392994165E-1	6.867450476E-1
8.638288924E0	1.284306347E-1	-3.309265077E-1	6.743753552E-1
8.646691945E0	1.000262350E-1	-4.045335948E-1	6.812474132E-1
8.655094966E0	9.819369763E-2	-4.494308829E-1	6.843016148E-1
8.663497986E0	1.046075895E-1	-4.515688419E-1	6.413896084E-1
8.671901007E0	1.163664013E-1	-4.123218954E-1	5.430431962E-1
8.680304028E0	1.273616552E-1	-3.567348123E-1	4.581354558E-1
8.688707049E0	1.415638477E-1	-2.921377122E-1	4.489727318E-1
8.697110070E0	1.540862173E-1	-2.000524700E-1	4.914266169E-1
8.705513091E0	1.623326540E-1	-1.530172378E-1	5.515950918E-1
8.713916111E0	1.623326540E-1	-1.568350345E-1	6.053496599E-1
8.722319132E0	1.536280811E-1	-1.634016484E-1	6.449019909E-1
8.730722153E0	1.490467340E-1	-1.798945218E-1	6.801784039E-1
8.739125174E0	1.470614821E-1	-2.353289127E-1	7.203416228E-1
8.747528195E0	1.461452097E-1	-2.858765125E-1	7.562289238E-1
8.755931216E0	1.517955512E-1	-2.612899244E-1	7.766922712E-1
8.764334236E0	1.663031727E-1	-1.959292591E-1	7.895200849E-1
8.772737257E0	1.847812980E-1	-1.285833418E-1	8.087617755E-1
8.781140278E0	2.038702667E-1	-7.360709459E-2	8.388460279E-1
8.789543299E0	2.192941606E-1	1.481304597E-2	8.699992299E-1
8.797946320E0	2.324273884E-1	1.206423342E-1	9.006943107E-1
8.806349341E0	2.441861928E-1	2.064663768E-1	9.374978542E-1
8.814752361E0	2.476985604E-1	2.655658424E-1	9.715525508E-1
8.823155382E0	2.463241518E-1	3.289412558E-1	9.978190064E-1
8.831558403E0	2.452551723E-1	4.065188468E-1	1.016602516E0
8.839961424E0	2.440334857E-1	4.952444136E-1	1.018740535E0
8.848364445E0	2.315111160E-1	5.914528370E-1	9.842276573E-1
8.856767466E0	1.951656938E-1	6.710157394E-1	8.965710402E-1
8.865170486E0	1.702736765E-1	7.430956960E-1	7.350019813E-1
8.873573507E0	1.545443535E-1	8.434273601E-1	4.929537475E-1
8.881976528E0	1.433963925E-1	9.139801860E-1	2.553341687E-1
8.890379549E0	1.163664013E-1	8.640434742E-1	7.971556485E-2
8.898782570E0	1.004843712E-1	7.237012982E-1	-5.482354015E-2
8.907185591E0	9.284878522E-2	5.583143830E-1	-1.831014603E-1
8.915588611E0	8.063183725E-2	4.306473136E-1	-3.266505599E-1
8.923991632E0	8.307522535E-2	3.823903799E-1	-5.037962794E-1
8.932394653E0	8.933641016E-2	4.025483429E-1	-7.207997441E-1
8.940797674E0	1.110214889E-1	3.923166394E-1	-9.556705356E-1
8.949200695E0	1.252236813E-1	3.067980409E-1	-1.183669329E0
8.957603716E0	1.298050433E-1	1.675248593E-1	-1.370130420E0
8.966006736E0	1.258345395E-1	1.634016447E-2	-1.501920700E0
8.974409757E0	1.151447073E-1	-1.362189353E-1	-1.579345584E0
8.982812778E0	9.697200358E-2	-2.559449971E-1	-1.632794738E0
8.991215799E0	8.276980370E-2	-3.190149665E-1	-1.688229084E0
8.999618820E0	6.887302548E-2	-3.376458287E-1	-1.758171082E0
9.008021841E0	6.108472496E-2	-3.290939629E-1	-1.840482831E0
9.016424861E0	5.299099907E-2	-3.072561622E-1	-1.929819226E0
9.024827882E0	4.550812021E-2	-2.367033064E-1	-2.011978149E0
9.033230903E0	4.932591692E-2	-1.188097894E-1	-2.068328857E0
9.041633924E0	5.635065958E-2	2.641914412E-2	-2.098107576E0
9.050036945E0	6.826218218E-2	1.597365588E-1	-2.104063272E0
9.058439966E0	8.307522535E-2	2.399102598E-1	-2.102841616E0
9.066842986E0	1.020114943E-1	2.774773538E-1	-2.095053434E0
9.075246007E0	1.156028435E-1	2.585411072E-1	-2.066648960E0
9.083649028E0	1.094943732E-1	1.575985998E-1	-2.001441002E0
9.092052049E0	8.536590636E-2	1.695101149E-2	-1.906148911E0
9.100455070E0	5.879404768E-2	-1.009425074E-1	-1.787491798E0
9.108858091E0	4.871506989E-2	-2.165453583E-1	-1.635848999E0
9.117261111E0	2.443389036E-2	-3.811686933E-1	-1.473210931E0
9.125664132E0	-1.236965694E-2	-4.891359508E-1	-1.337144613E0
9.134067153E0	-5.314370990E-2	-5.147915483E-1	-1.227344871E0
9.142470174E0	-1.174353883E-1	-5.184566379E-1	-1.117239594E0
9.150873195E0	-1.550024897E-1	-5.787777901E-1	-9.431481957E-1
9.159276216E0	-1.869192570E-1	-7.339329720E-1	-6.997255087E-1
9.167679236E0	-2.206685692E-1	-9.249754548E-1	-4.179722369E-1
9.176082257E0	-2.325800955E-1	-1.095860004E0	-9.300149232E-2
9.184485278E0	-1.998997629E-1	-1.157402873E0	3.035911024E-1
9.192888299E0	-5.314370990E-2	-1.171299577E0	8.562551737E-1
9.201291320E0	1.087308154E-1	-1.221389055E0	1.565448761E0
9.209694341E0	-1.224748790E-1	-7.722636461E-1	1.843995214E0
9.218097361E0	-3.006895781E-1	4.410317242E-1	1.317139387E0
9.226500382E0	-9.834641218E-2	2.086807013E0	4.827220440E-1
9.234903403E0	1.701209545E-1	3.930038452E0	-3.272614181E-1
9.243306424E0	2.270824611E-1	4.917015076E0	-5.885513425E-1
9.251709445E0	-2.672456764E-2	3.939659357E0	2.764083818E-2
9.260112466E0	-3.327590525E-1	1.209019423E0	1.018740535E0
9.268515486E0	-3.924693763E-1	-1.301104665E0	1.424801230E0
9.276918507E0	-3.733803928E-1	-2.158428907E0	1.266133666E0
9.285321528E0	-3.952181637E-1	-1.818950415E0	9.590302110E-1
9.293724549E0	-4.205683470E-1	-9.655967951E-1	7.559235096E-1
9.302127570E0	-3.419217467E-1	-1.915006191E-1	7.314895988E-1
9.310530591E0	-2.677038014E-1	1.482831687E-1	8.002098799E-1
9.318933611E0	-2.102841735E-1	2.721324563E-1	8.021951914E-1
9.327336632E0	-1.485885978E-1	6.731536984E-1	6.282563806E-1
9.335739653E0	-1.084253863E-1	1.056154966E0	4.469874799E-1
9.344142674E0	-1.272089481E-1	1.032179117E0	4.020902216E-1
9.352545695E0	-1.772984117E-1	6.256603003E-1	5.213581324E-1
9.360948716E0	-2.234173864E-1	9.865183383E-2	6.875085831E-1
9.369351736E0	-2.434226274E-1	-3.038965166E-1	7.554653287E-1
9.377754757E0	-2.330382317E-1	-4.830274582E-1	7.117897868E-1
9.386157778E0	-2.021904439E-1	-4.509579837E-1	6.073349118E-1
9.394560799E0	-1.615691036E-1	-3.248180151E-1	5.112791657E-1
9.402963820E0	-1.224748790E-1	-1.484358907E-1	4.509579837E-1
9.411366841E0	-8.475505561E-2	4.932591692E-2	4.112529159E-1
9.419769861E0	-5.344913527E-2	1.829487532E-1	3.741439581E-1
9.428172882E0	-4.092676565E-2	2.263189107E-1	3.271087110E-1
9.436575903E0	-3.619270027E-2	1.866138428E-1	2.846548259E-1
9.444978924E0	-3.405473381E-2	8.200624585E-2	2.574721277E-1
9.453381945E0	-3.481829539E-2	-2.550287358E-2	2.487675399E-1
9.461784966E0	-4.153761268E-2	-9.544488788E-2	2.368560284E-1
9.470187986E0	-3.878879920E-2	-1.127013192E-1	2.072299272E-1
9.478591007E0	-3.497100621E-2	-1.154501289E-1	1.510319859E-1
9.486994028E0	-3.313846514E-2	-1.195733473E-1	9.483403713E-2
9.495397049E0	-2.275406010E-2	-1.101052165E-1	5.405998230E-2
9.503800070E0	-6.566607859E-3	-9.025268257E-2	2.718270384E-2
9.512203091E0	1.145338640E-2	-1.209477559E-1	9.926267900E-3
9.520606111E0	1.343864016E-2	-2.031067163E-1	1.679830020E-3
9.529009132E0	9.468132630E-3	-2.579302490E-1	4.123218823E-3
9.537412153E0	1.832541823E-2	-2.113531530E-1	2.092151903E-2
9.545815174E0	2.764083818E-2	-1.362189353E-1	4.611896724E-2
9.554218195E0	3.603998944E-2	-1.133121699E-1	6.887302548E-2
9.562621216E0	3.420744836E-2	-1.331647038E-1	8.444963396E-2
9.571024236E0	2.626643144E-2	-1.644706279E-1	1.015533581E-1
9.579427257E0	1.817270555E-2	-1.957765520E-1	1.252236813E-1
9.587830278E0	1.175880991E-2	-2.099787444E-1	1.559187621E-1
9.596233299E0	6.261184346E-3	-2.154763639E-1	1.957765520E-1
9.604636320E0	-4.886778072E-3	-2.380777150E-1	2.510582209E-1
9.613039341E0	-1.328592747E-2	-2.728960216E-1	3.205420971E-1
9.621442361E0	-2.214321308E-2	-2.927485406E-1	4.019374847E-1
9.629845382E0	-3.329117596E-2	-3.049654961E-1	4.868452549E-1
9.638248403E0	-4.642439261E-2	-3.576510847E-1	5.792359114E-1
9.646651424E0	-6.047387794E-2	-4.111002088E-1	6.783458591E-1
9.655054445E0	-4.062134400E-2	-3.585673273E-1	7.832589149E-1
9.663457466E0	2.321219631E-2	-2.655658424E-1	8.817580342E-1
9.671860486E0	7.879929990E-2	-3.329117596E-1	9.558232427E-1
9.680263507E0	9.407047927E-2	-5.181511641E-1	9.935430884E-1
9.688666528E0	7.146912813E-2	-6.563553810E-1	1.009730577E0
9.697069549E0	3.359659761E-2	-7.979192138E-1	1.023779988E0
9.705472570E0	-1.481304597E-2	-9.724688530E-1	1.063637733E0
9.713875591E0	-8.047912270E-2	-1.105480790E0	1.124569774E0
9.722278611E0	-9.712471068E-2	-1.036607742E0	1.194969893E0
9.730681632E0	-7.513421029E-2	-8.344173431E-1	1.288276911E0
9.739084653E0	-4.184303805E-2	-6.879667044E-1	1.396854997E0
9.747487674E0	-4.581354558E-3	-5.644228458E-1	1.468171358E0
9.755890695E0	2.870982140E-2	-3.605526090E-1	1.484817028E0
9.764293716E0	6.887302548E-2	-1.533226669E-1	1.490772724E0
9.772696736E0	9.544488788E-2	1.191152167E-2	1.500546336E0
9.781099757E0	8.429691941E-2	1.944021434E-1	1.477792263E0
9.789502778E0	7.742489129E-2	4.123218954E-1	1.380667567E0
9.797905799E0	8.338065445E-2	6.128324866E-1	1.184280157E0
9.806308820E0	1.021642014E-1	7.847860456E-1	8.890882134E-1
9.814711841E0	1.441599578E-1	9.037485123E-1	5.340332389E-1
9.823114861E0	2.267770469E-1	8.999307156E-1	1.693574041E-1
9.831517882E0	2.725905776E-1	8.134958148E-1	-1.505738497E-1
9.839920903E0	2.927485406E-1	6.959077120E-1	-3.460449576E-1
9.848323924E0	2.942756712E-1	5.949652195E-1	-4.333961308E-1
9.856726945E0	2.987042964E-1	5.436540842E-1	-5.169295073E-1
9.865129966E0	3.196258247E-1	5.460974574E-1	-6.901046634E-1
9.873532986E0	3.384093940E-1	5.514423847E-1	-9.494093657E-1
9.881936007E0	3.781144619E-1	5.573981404E-1	-1.240325332E0
9.890339028E0	4.094203711E-1	5.835118294E-1	-1.510625243E0
9.898742049E0	4.211791754E-1	6.346703172E-1	-1.714800954E0
9.907145070E0	4.283566475E-1	6.687250137E-1	-1.859113574E0
9.915548091E0	4.194993675E-1	6.522321701E-1	-1.963110328E0
9.923951111E0	4.078932703E-1	6.047387719E-1	-2.031830788E0
9.932354132E0	3.778090179E-1	5.242596865E-1	-2.066038132E0
9.940757153E0	3.550549746E-1	4.657710493E-1	-2.090319395E0
9.949160174E0	3.498627543E-1	4.491254389E-1	-2.108033895E0
9.957563195E0	3.239017725E-1	3.752129376E-1	-2.100856543E0
9.965966216E0	2.693836391E-1	1.948602796E-1	-2.054279327E0
9.974369236E0	2.102841735E-1	2.596100792E-3	-1.974563718E0
9.982772257E0	1.528645307E-1	-1.406475753E-1	-1.869039893E0
9.991175278E0	9.849911928E-2	-2.473931462E-1	-1.744427085E0
9.999578299E0	4.703523964E-2	-3.512371778E-1	-1.616149187E0
1.000798132E1	2.748812549E-3	-4.448495209E-1	-1.499935389E0
1.001638434E1	-3.115320951E-2	-5.210527182E-1	-1.412278891E0
1.002478736E1	-6.917845458E-2	-6.178719997E-1	-1.347376347E0
1.003319038E1	-1.079672500E-1	-7.287407517E-1	-1.294843435E0
1.004159340E1	-1.281252056E-1	-7.789829373E-1	-1.235591292E0
1.004999642E1	-1.224748790E-1	-7.824953198E-1	-1.147476554E0
1.005839945E1	-1.192679256E-1	-8.076927662E-1	-1.039203882E0
1.006680247E1	-1.198787764E-1	-8.492304087E-1	-9.385668039E-1
1.007520549E1	-1.029277667E-1	-8.431219459E-1	-8.751913905E-1
1.008360851E1	-6.551336497E-2	-7.661551833E-1	-8.629744649E-1
1.009201153E1	-3.283303976E-2	-6.554391384E-1	-8.715263009E-1
1.010041455E1	-1.969982497E-2	-5.149442554E-1	-8.721371889E-1
1.010881757E1	5.192201585E-3	-3.787252903E-1	-8.388460279E-1
1.011722059E1	6.108472589E-4	-2.263189107E-1	-7.806627750E-1
1.012562361E1	-4.443913698E-2	-6.826218218E-2	-6.981984377E-1
1.013402663E1	-2.829749882E-1	1.539335102E-1	-4.891359508E-1
1.014242965E1	-6.012263894E-1	1.685938388E-1	6.765133142E-1
1.015083267E1	-3.303156495E-1	-9.674293399E-1	2.628017664E0
1.015923570E1	-2.735068500E-1	-9.469659925E-1	2.571361542E0
1.016763872E1	-1.832541823E-1	1.100441337E0	7.702783942E-1
1.017604174E1	1.487413049E-1	3.712576866E0	-9.678874612E-1
1.018444476E1	1.701209545E-1	4.489269257E0	-1.135259628E0
1.019284778E1	-1.890572309E-1	2.821656227E0	2.797680497E-1
1.020125080E1	-4.373666346E-1	-3.709369898E-1	1.988002419E0
1.020965382E1	-5.807630420E-1	-2.319692373E0	2.727891207E0
1.021805684E1	-5.573981404E-1	-2.304574013E0	2.417428017E0
1.022645986E1	-2.525853515E-1	-1.091431379E0	1.475196123E0
1.023486288E1	-7.650861889E-2	-5.741964281E-2	6.410841942E-1
1.024326590E1	-8.719844371E-2	3.513898849E-1	2.883199155E-1
1.025166892E1	-1.181989461E-1	7.036960125E-1	3.495573401E-1
1.026007194E1	-1.485885978E-1	1.216655016E0	5.196782947E-1
1.026847497E1	-1.588202864E-1	1.422968745E0	6.244385839E-1
1.027687799E1	-1.634016484E-1	1.183669329E0	6.552863717E-1
1.028528101E1	-1.951656938E-1	6.618530154E-1	6.113054156E-1
1.029368403E1	-2.240282297E-1	1.514901221E-1	5.322006941E-1
1.030208705E1	-2.522799075E-1	-1.850867122E-1	4.815003574E-1
1.031049007E1	-2.706053257E-1	-3.411581814E-1	4.782933891E-1
1.031889309E1	-2.579302490E-1	-3.323009014E-1	4.897467792E-1
1.032729611E1	-2.338017821E-1	-2.141019702E-1	4.614951015E-1
1.033569913E1	-1.918060333E-1	-4.902049154E-2	3.802524209E-1
1.034410215E1	-1.470614821E-1	1.223221645E-1	2.841966748E-1
1.035250517E1	-1.165191159E-1	2.365505993E-1	2.367033064E-1
1.036090820E1	-9.895725548E-2	2.240282297E-1	2.596100867E-1
1.036931122E1	-9.712471068E-2	9.926267713E-2	3.202366829E-1
1.037771424E1	-1.052184403E-1	-7.192726433E-2	3.704788685E-1
1.038611726E1	-1.127013192E-1	-2.220429778E-1	3.736858070E-1
1.039452028E1	-1.116323397E-1	-3.074088693E-1	3.515425920E-1
1.040292330E1	-9.773556143E-2	-3.165715933E-1	3.219164908E-1
1.041132632E1	-7.177454978E-2	-2.652604282E-1	2.877090573E-1
1.041972934E1	-4.932591692E-2	-1.969982386E-1	2.521272004E-1
1.042813236E1	-3.802524135E-2	-1.418692768E-1	2.214321345E-1
1.043653538E1	-3.436015919E-2	-9.468132257E-2	2.058555335E-1
1.044493840E1	-3.298575059E-2	-4.764608666E-2	1.969982386E-1
1.045334142E1	-2.825168520E-2	-2.779355086E-2	1.904316396E-1
1.046174444E1	-2.321219631E-2	-5.283828825E-2	1.797417998E-1
1.047014747E1	-1.618745178E-2	-1.000262350E-1	1.554606259E-1
1.047855049E1	-5.803049076E-3	-1.317902952E-1	1.236965731E-1
1.048695351E1	6.413896102E-3	-1.580567211E-1	9.727742523E-2
1.049535653E1	2.397575416E-2	-1.798945218E-1	7.269082218E-2
1.050375955E1	3.863608837E-2	-1.753131598E-1	4.382828996E-2
1.051216257E1	5.360184610E-2	-1.369825006E-1	2.137965336E-2
1.052056559E1	6.413896382E-2	-6.154286116E-2	1.572931744E-2
1.052896861E1	6.673506647E-2	-2.443389036E-2	2.244863659E-2
1.053737163E1	6.688777357E-2	-7.253811508E-2	4.230117425E-2
1.054577465E1	6.948387623E-2	-1.050657257E-1	6.215370819E-2
1.055417767E1	6.810946763E-2	-1.175880954E-1	8.628217876E-2
1.056258070E1	6.536065787E-2	-1.675248593E-1	1.188097894E-1
1.057098372E1	5.879404768E-2	-2.116585821E-1	1.534753740E-1
1.057938674E1	5.436540768E-2	-2.170034945E-1	1.837123185E-1
1.058778976E1	4.978405312E-2	-2.211267054E-1	2.144073844E-1
1.059619278E1	4.428642616E-2	-2.718270421E-1	2.475458533E-1
1.060459580E1	3.726168349E-2	-3.469612300E-1	2.788517773E-1
1.061299882E1	3.115320951E-2	-4.120164812E-1	3.112266660E-1
1.062140184E1	1.007897966E-2	-4.337015450E-1	3.434488773E-1
1.062980486E1	-6.108472589E-4	-3.764346242E-1	3.658975065E-1
1.063820788E1	3.206948051E-3	-3.127537966E-1	3.830012381E-1
1.064661090E1	-9.162708884E-4	-3.069507480E-1	3.938437700E-1
1.065501392E1	-3.970507067E-3	-3.431434333E-1	3.912476599E-1
1.066341694E1	1.939439960E-2	-3.640649617E-1	4.222481549E-1
1.067181997E1	8.261708915E-2	-3.066453338E-1	5.033381581E-1
1.068022299E1	1.444653720E-1	-2.684673667E-1	5.636593103E-1
1.068862601E1	1.688992679E-1	-3.996468186E-1	5.334223509E-1
1.069702903E1	1.698155403E-1	-5.239542127E-1	4.662291706E-1
1.070543205E1	1.640124917E-1	-4.989095032E-1	4.477510452E-1
1.071383507E1	1.598892659E-1	-4.419479966E-1	5.097520351E-1
1.072223809E1	1.443126649E-1	-4.538595080E-1	5.711421967E-1
1.073064111E1	1.273616552E-1	-4.483618736E-1	5.716003180E-1
1.073904413E1	1.186570823E-1	-3.852919042E-1	5.291464329E-1
1.074744715E1	1.224748790E-1	-3.142809272E-1	4.969242513E-1
1.075585017E1	1.360662282E-1	-2.324273884E-1	4.889832437E-1
1.076425320E1	1.554606259E-1	-1.279724985E-1	4.848600030E-1
1.077265622E1	1.727170646E-1	-3.985778242E-2	4.634803534E-1
1.078105924E1	1.861557066E-1	7.024743594E-3	4.366030693E-1
1.078946226E1	1.962346882E-1	4.077405483E-2	4.283566475E-1
1.079786528E1	1.991362125E-1	6.123743951E-2	4.451549351E-1
1.080626830E1	1.968455315E-1	5.054761097E-2	4.763081372E-1
1.081467132E1	1.933331639E-1	1.389677543E-2	5.077667832E-1
1.082307434E1	1.821851879E-1	-4.734066315E-3	5.267030597E-1
1.083147736E1	1.714953631E-1	3.512371797E-3	5.381564498E-1
1.083988038E1	1.614163816E-1	5.955760833E-3	5.546492934E-1
1.084828340E1	1.514901221E-1	4.734066315E-3	5.746545792E-1
1.085668642E1	1.456870735E-1	2.535016090E-2	5.888567567E-1
1.086508944E1	1.398840249E-1	6.780404598E-2	5.911474228E-1
1.087349247E1	1.357607991E-1	1.275143623E-1	5.935907960E-1
1.088189549E1	1.267508119E-1	2.075353563E-1	5.977140665E-1
1.089029851E1	1.143811494E-1	2.858765125E-1	5.952706337E-1
1.089870153E1	1.078145429E-1	3.443651497E-1	5.590779781E-1
1.090710455E1	9.284878522E-2	3.443651497E-1	4.935645759E-1
1.091550757E1	9.208522737E-2	3.153499067E-1	3.915531039E-1
1.092391059E1	1.130067408E-1	3.257342875E-1	2.564031482E-1
1.093231361E1	1.145338640E-1	3.370349705E-1	1.472141892E-1
1.094071663E1	1.154501289E-1	3.190149665E-1	8.215895295E-2
1.094911965E1	1.290414780E-1	2.988570333E-1	3.634541109E-2
1.095752267E1	1.369825006E-1	2.880144715E-1	-1.756185852E-2
1.096592570E1	1.466033459E-1	3.000787199E-1	-1.001789495E-1
1.097432872E1	1.652341783E-1	3.710896969E-1	-2.241809368E-1
1.098273174E1	1.821851879E-1	4.937172830E-1	-3.749074936E-1
1.099113476E1	2.005106062E-1	5.737382770E-1	-5.181511641E-1
1.099953778E1	2.108950168E-1	5.905365944E-1	-6.424586177E-1
1.100794080E1	2.165453583E-1	5.679352283E-1	-7.438592315E-1
1.101634382E1	2.185306102E-1	4.868452549E-1	-8.005153537E-1
1.102474684E1	2.075353563E-1	3.535278440E-1	-8.254073858E-1
1.103314986E1	1.934858710E-1	2.171562016E-1	-8.428165317E-1
1.104155288E1	1.798945218E-1	1.218640283E-1	-8.759549856E-1
1.104995590E1	1.724116355E-1	6.139015034E-2	-9.297095537E-1
1.105835892E1	1.647760421E-1	2.412846684E-2	-9.988879561E-1
1.106676195E1	1.557660550E-1	7.177455351E-3	-1.071426034E0
1.107516497E1	1.424801201E-1	7.177455351E-3	-1.134801507E0
1.108356799E1	1.253764033E-1	-9.162708884E-4	-1.184738278E0
1.109197101E1	1.127013192E-1	-2.779355086E-2	-1.221236348E0
1.110037403E1	1.038440317E-1	-7.345438004E-2	-1.256207347E0
1.110877705E1	8.475505561E-2	-1.325538605E-1	-1.281252146E0
1.111718007E1	6.413896382E-2	-1.789782494E-1	-1.292552829E0
1.112558309E1	4.321744293E-2	-1.623326540E-1	-1.305991411E0
1.113398611E1	3.573456407E-2	-1.241547018E-1	-1.327829242E0
1.114238913E1	2.886253223E-2	-1.029277667E-1	-1.363258362E0
1.115079215E1	2.611372061E-2	-1.029277667E-1	-1.396091461E0
1.115919517E1	2.229592577E-2	-1.414111406E-1	-1.410140872E0
1.116759820E1	1.481304597E-2	-2.090624720E-1	-1.395175099E0
1.117600122E1	5.803049076E-3	-2.858765125E-1	-1.366159916E0
1.118440424E1	2.748812549E-3	-3.593308926E-1	-1.342795014E0
1.119280726E1	-1.068982761E-3	-4.129327536E-1	-1.339893460E0
1.120121028E1	-8.093725890E-3	-4.352286756E-1	-1.359135151E0
1.120961330E1	-1.099525020E-2	-4.526378214E-1	-1.403727055E0
1.121801632E1	-7.788302377E-3	-4.856235683E-1	-1.470462084E0
1.122641934E1	1.007897966E-2	-5.538857579E-1	-1.553079128E0
1.123482236E1	2.809897438E-2	-6.429167390E-1	-1.632642031E0
1.124322538E1	3.329117596E-2	-7.357655168E-1	-1.669750929E0
1.125162840E1	2.702999115E-2	-8.047912717E-1	-1.623784781E0
1.126003142E1	6.872031838E-3	-8.518264890E-1	-1.485580564E0
1.126843444E1	-4.107947648E-2	-9.084826112E-1	-1.307671309E0
1.127683747E1	-1.018587798E-1	-9.901834130E-1	-1.126555085E0
1.128524049E1	-2.043284029E-1	-1.072342396E0	-9.397885203E-1
1.129364351E1	-3.692571819E-1	-1.013395548E0	-5.263976455E-1
1.130204653E1	-3.307738006E-1	-1.012479305E0	8.829796910E-1
1.131044955E1	-1.450762246E-2	-1.524369359E0	3.016821861E0
1.131885257E1	-4.198047817E-1	-8.580876589E-1	2.472862482E0
1.132725559E1	-3.373403847E-1	1.367534280E0	6.653653979E-1
1.133565861E1	1.611109674E-1	4.296241283E0	-9.927794933E-1
1.134406163E1	3.927747905E-1	6.192769527E0	-1.768555522E0
1.135246465E1	2.133384049E-1	5.300321579E0	-8.950439692E-1
1.136086767E1	-3.419217467E-1	1.656312346E0	9.034430981E-1
1.136927070E1	-6.056550741E-1	-1.755575061E0	1.883394837E0
1.137767372E1	-4.408790171E-1	-2.465532303E0	1.636917949E0
1.138607674E1	-3.387148082E-1	-1.976549029E0	1.171146870E0
1.139447976E1	-3.319954872E-1	-1.156333804E0	8.235748410E-1
1.140288278E1	-2.970244884E-1	-3.715478480E-1	6.577298045E-1
1.141128580E1	-1.766875684E-1	1.511846930E-1	6.386408210E-1
1.141968882E1	-1.043021679E-1	3.775036037E-1	6.317687631E-1
1.142809184E1	-1.188097894E-1	6.467345357E-1	5.167768002E-1
1.143649486E1	-8.551861346E-2	1.077992678E0	3.402419090E-1
1.144489788E1	-8.017370105E-2	1.229941010E0	2.376195788E-1
1.145330090E1	-1.365243644E-1	9.839222431E-1	2.602209449E-1
1.146170392E1	-1.765348613E-1	5.696150661E-1	3.755183518E-1
1.147010695E1	-2.032594234E-1	1.789782494E-1	4.734066129E-1
1.147850997E1	-2.336490750E-1	-9.300149232E-2	4.953971207E-1
1.148691299E1	-2.307475507E-1	-1.669140160E-1	4.653128982E-1
1.149531601E1	-2.028012872E-1	-1.029277667E-1	4.332434237E-1
1.150371903E1	-1.711899489E-1	-1.786728203E-2	4.025483429E-1
1.151212205E1	-1.294996142E-1	6.245913357E-2	3.730749488E-1
1.152052507E1	-9.529217333E-2	1.450762302E-1	3.422271907E-1
1.152892809E1	-7.498150319E-2	1.884463727E-1	3.174878657E-1
1.153733111E1	-7.146912813E-2	1.320957243E-1	3.176405728E-1
1.154573413E1	-7.696675509E-2	7.177455351E-3	3.333698809E-1
1.155413715E1	-7.696675509E-2	-1.041494608E-1	3.393256664E-1
1.156254017E1	-6.933116168E-2	-1.554606259E-1	3.116848171E-1
1.157094320E1	-6.047387794E-2	-1.411057115E-1	2.631224692E-1
1.157934622E1	-4.871506989E-2	-8.307522535E-2	2.156290859E-1
1.158774924E1	-3.115320951E-2	-1.206423342E-2	1.861557066E-1
1.159615226E1	-1.710372418E-2	3.481829539E-2	1.702736765E-1
1.160455528E1	-1.068982668E-2	3.161134571E-2	1.632489264E-1
1.161295830E1	-1.481304597E-2	-1.450762246E-2	1.644706279E-1
1.162136132E1	-1.313321572E-2	-7.162184268E-2	1.693574041E-1
1.162976434E1	-6.719320081E-3	-1.026223376E-1	1.751604527E-1
1.163816736E1	-6.108472589E-4	-1.218640283E-1	1.792836636E-1
1.164657038E1	3.970507067E-3	-1.479777545E-1	1.780619770E-1
1.165497340E1	8.246437646E-3	-1.624853760E-1	1.711899489E-1
1.166337642E1	1.267508045E-2	-1.467560530E-1	1.537808031E-1
1.167177944E1	3.512371797E-3	-1.566823274E-1	1.534753740E-1
1.168018247E1	-1.450762246E-2	-2.215848416E-1	1.792836636E-1
1.168858549E1	-3.206948191E-2	-2.793098986E-1	2.144073844E-1
1.169698851E1	-4.474456236E-2	-3.072561622E-1	2.522799075E-1
1.170539153E1	-5.329642445E-2	-3.316900730E-1	2.939702570E-1
1.171379455E1	-5.665608495E-2	-3.927747905E-1	3.384093940E-1
1.172219757E1	-6.734590977E-2	-4.546230733E-1	3.959817290E-1
1.173060059E1	-7.971556485E-2	-4.471401870E-1	4.651601911E-1
1.173900361E1	-9.071081877E-2	-4.228590131E-1	5.292991400E-1
1.174740663E1	-1.117850468E-1	-4.694361091E-1	6.044333577E-1
1.175580965E1	-1.310267299E-1	-5.207473040E-1	6.899519563E-1
1.176421267E1	-1.453816444E-1	-5.289937258E-1	7.737907767E-1
1.177261570E1	-1.308740228E-1	-5.213581324E-1	8.561024070E-1
1.178101872E1	-9.147437662E-2	-5.146388412E-1	9.219212532E-1
1.178942174E1	-5.604523420E-2	-5.586197972E-1	9.290986657E-1
1.179782476E1	-4.947862774E-2	-7.139277458E-1	8.493831158E-1
1.180622778E1	-8.338065445E-2	-8.799254894E-1	7.693621516E-1
1.181463080E1	-1.461452097E-1	-9.280297160E-1	7.701256871E-1
1.182303382E1	-2.066190839E-1	-8.964183331E-1	8.640434742E-1
1.183143684E1	-2.237228155E-1	-9.213103652E-1	9.750649333E-1
1.183983986E1	-2.165453583E-1	-9.568922520E-1	1.029277682E0
1.184824288E1	-1.986780763E-1	-9.165763259E-1	1.033859015E0
1.185664590E1	-1.617218107E-1	-8.414421082E-1	1.042868972E0
1.186504892E1	-1.198787764E-1	-7.256865501E-1	1.065775752E0
1.187345195E1	-7.834116369E-2	-5.502206683E-1	1.085780978E0
1.188185497E1	-3.817795217E-2	-3.585673273E-1	1.090820551E0
1.189025799E1	-0.000000000E0	-1.973036677E-1	1.083795786E0
1.189866101E1	3.573456407E-2	-6.429167092E-2	1.075854778E0
1.190706403E1	6.902574003E-2	5.451811850E-2	1.069746256E0
1.191546705E1	1.049130186E-1	1.643179059E-1	1.065317631E0
1.192387007E1	1.343863904E-1	2.692309320E-1	1.044854283E0
1.193227309E1	1.478250325E-1	3.489464819E-1	9.967499971E-1
1.194067611E1	1.540862173E-1	4.159869850E-1	9.077190161E-1
1.194907913E1	1.629435122E-1	5.030327439E-1	7.605048418E-1
1.195748215E1	1.850867122E-1	5.829010010E-1	5.931326747E-1
1.196588517E1	1.823379099E-1	6.073349118E-1	4.373666346E-1
1.197428820E1	2.081461996E-1	6.313106418E-1	2.765611112E-1
1.198269122E1	2.571666837E-1	6.675033569E-1	1.018587798E-1
1.199109424E1	2.593046725E-1	6.572716236E-1	-5.619794875E-2
1.199949726E1	2.591519356E-1	5.784723759E-1	-1.867665499E-1
1.200790028E1	2.770192325E-1	4.266768098E-1	-2.982461751E-1
1.201630330E1	2.875563502E-1	2.727433145E-1	-4.141544402E-1
1.202470632E1	2.874036431E-1	1.887518018E-1	-5.485408306E-1
1.203310934E1	2.738122940E-1	1.801999360E-1	-6.971294284E-1
1.204151236E1	2.698417902E-1	2.107423097E-1	-8.487722874E-1
1.204991538E1	2.695363462E-1	2.281514555E-1	-9.869764447E-1
1.205831840E1	2.673983872E-1	2.029540092E-1	-1.103190184E0
1.206672142E1	2.591519356E-1	1.568350345E-1	-1.198024154E0
1.207512444E1	2.557922900E-1	1.191152185E-1	-1.274838209E0
1.208352747E1	2.571666837E-1	7.528692484E-2	-1.342947721E0
1.209193049E1	2.490729690E-1	1.725643501E-2	-1.407086611E0
1.210033351E1	2.331909388E-1	-4.092676565E-2	-1.468782187E0
1.210873653E1	2.108950168E-1	-1.094943732E-1	-1.522842169E0
1.211713955E1	1.855448484E-1	-1.904316396E-1	-1.569572091E0
1.212554257E1	1.560714692E-1	-2.525853515E-1	-1.601336122E0
1.213394559E1	1.250709742E-1	-2.870981991E-1	-1.620883226E0
1.214234861E1	9.407047927E-2	-3.110739589E-1	-1.639972210E0
1.215075163E1	6.047387794E-2	-3.229855001E-1	-1.666696787E0
1.215915465E1	3.573456407E-2	-3.264978528E-1	-1.702584028E0
1.216755767E1	1.634016447E-2	-3.329117596E-1	-1.740151167E0
1.217596070E1	-3.206948051E-3	-3.545968235E-1	-1.773289561E0
1.218436372E1	-2.290677279E-2	-3.733803928E-1	-1.792073131E0
1.219276674E1	-3.542914242E-2	-3.840702176E-1	-1.787339091E0
1.220116976E1	-4.688252881E-2	-3.949127495E-1	-1.773594975E0
1.220957278E1	-6.200099736E-2	-4.051444530E-1	-1.755422354E0
1.221797580E1	-7.788302749E-2	-3.910949528E-1	-1.744885206E0
1.222637882E1	-9.972081333E-2	-3.161134422E-1	-1.744121671E0
1.223478184E1	-1.059819981E-1	-2.124221325E-1	-1.740761995E0
1.224318486E1	-1.033858955E-1	-1.293469071E-1	-1.733431816E0
1.225158788E1	-1.090362370E-1	-6.108472496E-2	-1.725490808E0
1.225999090E1	-1.305686086E-1	3.390202299E-2	-1.699224353E0
1.226839392E1	-1.579040140E-1	1.395785958E-1	-1.644095421E0
1.227679695E1	-2.035648525E-1	1.861557066E-1	-1.523147583E0
1.228519997E1	-2.640387416E-1	1.643179059E-1	-1.267660737E0
1.229360299E1	-2.971771955E-1	1.068982668E-2	-7.733326554E-1
1.230200601E1	-2.483094037E-1	-4.071297050E-1	6.322269142E-2
1.231040903E1	-1.412584335E-1	-1.233605981E0	1.176491857E0
1.231881205E1	-5.024218559E-2	-1.891488552E0	1.924321532E0
1.232721507E1	-8.811471611E-2	-1.731904745E0	1.840330124E0
1.233561809E1	-1.304158866E-1	-5.877877474E-1	1.179087877E0
1.234402111E1	-1.281252056E-1	1.065317631E0	6.088619828E-1
1.235242413E1	-6.322269142E-2	2.573804855E0	2.444916219E-1
1.236082715E1	-1.145338640E-2	3.619728088E0	2.275406010E-2
1.236923017E1	1.359135192E-2	3.981044292E0	1.053711493E-2
1.237763320E1	-4.337015375E-2	3.473430157E0	3.254288733E-1
1.238603622E1	-1.808107942E-1	2.141324997E0	6.939224601E-1
1.239443924E1	-2.112004459E-1	5.131117105E-1	7.941014171E-1
1.240284226E1	-1.664558798E-1	-8.014315963E-1	7.038487792E-1
1.241124528E1	-2.522799075E-1	-1.524674773E0	6.403206587E-1
1.241964830E1	-3.810159862E-1	-1.556744218E0	6.352811456E-1
1.242805132E1	-3.562766612E-1	-1.080741525E0	6.575770974E-1
1.243645434E1	-2.851129472E-1	-5.531222224E-1	6.529957056E-1
1.244485736E1	-2.261662036E-1	-1.226275861E-1	5.557183027E-1
1.245326038E1	-1.334701329E-1	3.388675153E-1	3.403946459E-1
1.246166340E1	-6.978929788E-2	8.261709213E-1	1.217113137E-1
1.247006642E1	-4.917320609E-2	1.044854283E0	3.374931216E-2
1.247846944E1	-6.704048812E-2	9.205468297E-1	1.035386100E-1
1.248687247E1	-1.197260618E-1	5.506787896E-1	2.728960216E-1
1.249527549E1	-1.478250325E-1	1.397313178E-1	4.062134326E-1
1.250367851E1	-1.527118087E-1	-1.643179059E-1	4.207210541E-1
1.251208153E1	-1.427855492E-1	-3.327590525E-1	3.574983478E-1
1.252048455E1	-1.243074164E-1	-3.694098890E-1	3.093941510E-1
1.252888757E1	-1.027750522E-1	-2.744231224E-1	2.922904193E-1
1.253729059E1	-7.727217674E-2	-1.090362370E-1	2.915268540E-1
1.254569361E1	-5.772506446E-2	6.001574174E-2	2.831276953E-1
1.255409663E1	-4.443913698E-2	1.605001241E-1	2.620534599E-1
1.256249965E1	-3.894151375E-2	1.447708011E-1	2.509055138E-1
1.257090267E1	-3.970507160E-2	5.344913527E-2	2.557922900E-1
1.257930570E1	-3.390202299E-2	-2.779355086E-2	2.673983872E-1
1.258770872E1	-2.764083818E-2	-9.758284688E-2	2.719797492E-1
1.259611174E1	-2.580829710E-2	-1.658450365E-1	2.712161839E-1
1.260451476E1	-1.710372418E-2	-1.624853760E-1	2.667875290E-1
1.261291778E1	-4.886778072E-3	-8.047912270E-2	2.654131353E-1
1.262132080E1	-1.985253533E-3	-2.275406010E-2	2.725905776E-1
1.262972382E1	-5.650337320E-3	-1.603474095E-2	2.874036431E-1
1.263812684E1	-9.773556143E-3	-2.428117767E-2	3.008422852E-1
1.264652986E1	-5.803049076E-3	-3.054236295E-4	3.092414141E-1
1.265493288E1	-6.566607859E-3	9.468132630E-3	3.206948042E-1
1.266333590E1	-1.542389300E-2	-4.138490185E-2	3.423798978E-1
1.267173892E1	-2.229592577E-2	-1.064401343E-1	3.683409095E-1
1.268014194E1	-2.809897438E-2	-1.391204596E-1	3.943018913E-1
1.268854497E1	-3.176405653E-2	-1.521009654E-1	4.213318825E-1
1.269694799E1	-3.100049868E-2	-1.453816444E-1	4.465293586E-1
1.270535101E1	-3.038965166E-2	-1.409530044E-1	4.654656053E-1
1.271375403E1	-2.626643144E-2	-1.595838517E-1	4.810422063E-1
1.272215705E1	-2.473931387E-2	-1.870719790E-1	4.970769584E-1
1.273056007E1	-1.954711229E-2	-1.915006191E-1	5.045598149E-1
1.273896309E1	-1.817270555E-2	-1.861557066E-1	5.057815313E-1
1.274736611E1	-1.603474095E-2	-1.750077456E-1	5.150969625E-1
1.275576913E1	-1.801999472E-2	-1.705790907E-1	5.341859460E-1
1.276417215E1	-1.817270555E-2	-1.866138428E-1	5.653391480E-1
1.277257517E1	-2.535016090E-2	-2.098260373E-1	6.114581227E-1
1.278097820E1	-3.649812192E-2	-2.063136548E-1	6.667397618E-1
1.278938122E1	-3.145863488E-2	-2.159345001E-1	7.183563709E-1
1.279778424E1	-2.183778957E-2	-2.883199155E-1	7.643226385E-1
1.280618726E1	2.367033064E-2	-3.610107303E-1	8.023478985E-1
1.281459028E1	9.559759498E-2	-3.565820754E-1	8.150229454E-1
1.282299330E1	1.165191159E-1	-3.721587062E-1	7.481352091E-1
1.283139632E1	1.059819981E-1	-4.750864506E-1	6.288672686E-1
1.283979934E1	6.933116168E-2	-5.396835804E-1	5.236487985E-1
1.284820236E1	3.833066672E-2	-4.691306949E-1	4.921901822E-1
1.285660538E1	4.779879749E-2	-4.385883212E-1	5.318952799E-1
1.286500840E1	5.543438718E-2	-5.045598149E-1	5.696150661E-1
1.287341142E1	7.238540053E-2	-5.262449384E-1	5.606050491E-1
1.288181445E1	8.475505561E-2	-4.563029110E-1	5.352548957E-1
1.289021747E1	9.956810623E-2	-3.935383558E-1	5.451811552E-1
1.289862049E1	1.250709742E-1	-3.816268146E-1	5.735855699E-1
1.290702351E1	1.574458778E-1	-3.881934285E-1	5.925218463E-1
1.291542653E1	1.766875684E-1	-3.669664860E-1	6.109999418E-1
1.292382955E1	1.882936656E-1	-3.138227761E-1	6.543701291E-1
1.293223257E1	1.901262105E-1	-2.315111160E-1	7.241594195E-1
1.294063559E1	1.760767251E-1	-1.548497826E-1	8.081509471E-1
1.294903861E1	1.600419879E-1	-1.348445266E-1	8.883246183E-1
1.295744163E1	1.429382563E-1	-1.537808031E-1	9.510892034E-1
1.296584465E1	1.246128380E-1	-1.844758689E-1	1.001025915E0
1.297424767E1	1.090362370E-1	-2.005106062E-1	1.050046444E0
1.298265070E1	1.026223376E-1	-1.948602796E-1	1.098914266E0
1.299105372E1	1.030804738E-1	-1.540862173E-1	1.134496093E0
1.299945674E1	1.105633527E-1	-6.215370819E-2	1.149461865E0
1.300785976E1	1.264453828E-1	6.200099736E-2	1.149461865E0
1.301626278E1	1.386623234E-1	2.110477239E-1	1.142437100E0
1.302466580E1	1.543916464E-1	3.684936166E-1	1.130220175E0
1.303306882E1	1.672194302E-1	5.251759291E-1	1.104564548E0
1.304147184E1	1.594311297E-1	6.420004964E-1	1.052947998E0
1.304987486E1	1.510319859E-1	7.414158583E-1	9.075663090E-1
1.305827788E1	1.664558798E-1	9.489512444E-1	6.082511544E-1
1.306668090E1	2.029540092E-1	1.118461370E0	2.564031482E-1
1.307508392E1	2.089097649E-1	1.063637733E0	-2.733541466E-2
1.308348694E1	1.899735034E-1	8.063184023E-1	-1.927223057E-1
1.309188997E1	1.698155403E-1	4.205683470E-1	-2.463241518E-1
1.310029299E1	1.600419879E-1	4.367557913E-2	-2.985515893E-1
1.310869601E1	1.609582454E-1	-1.867665499E-1	-4.303418994E-1
1.311709903E1	1.650814712E-1	-2.997733057E-1	-6.244385839E-1
1.312550205E1	1.678302884E-1	-3.484883606E-1	-8.437327743E-1
1.313390507E1	1.685938388E-1	-3.439069986E-1	-1.069135427E0
1.314230809E1	1.789782494E-1	-2.863346636E-1	-1.291483760E0
1.315071111E1	1.872246861E-1	-2.228065431E-1	-1.484206080E0
1.315911413E1	1.805053651E-1	-2.029540092E-1	-1.634474516E0
1.316751715E1	1.666085869E-1	-2.162399292E-1	-1.747634053E0
1.317592017E1	1.462979168E-1	-2.559449971E-1	-1.834985137E0
1.318432320E1	1.226275861E-1	-3.029802442E-1	-1.907217860E0
1.319272622E1	9.972081333E-2	-3.530697227E-1	-1.973494768E0
1.320112924E1	7.162184268E-2	-3.952181637E-1	-2.032136202E0
1.320953226E1	4.734066129E-2	-4.072824121E-1	-2.089403152E0
1.321793528E1	3.084778599E-2	-3.773508966E-1	-2.143921137E0
1.322633830E1	1.969982497E-2	-3.228327632E-1	-2.185611486E0
1.323474132E1	9.009997360E-3	-2.661767006E-1	-2.210198164E0
1.324314434E1	1.679830020E-3	-1.878355294E-1	-2.221651554E0
1.325154736E1	5.039489828E-3	-1.084253863E-1	-2.230203390E0
1.325995038E1	9.926267900E-3	-4.535540938E-2	-2.236159086E0
1.326835340E1	1.801999472E-2	1.053711493E-2	-2.244252920E0
1.327675642E1	3.497100621E-2	6.551336497E-2	-2.252193928E0
1.328515945E1	4.779879749E-2	8.047912270E-2	-2.248986959E0
1.329356247E1	4.062134400E-2	3.038965166E-2	-2.225316525E0
1.330196549E1	2.718270384E-2	-4.230117425E-2	-2.179655790E0
1.331036851E1	3.665083647E-2	-1.530172378E-1	-2.101009130E0
1.331877153E1	3.909422457E-2	-2.958027720E-1	-2.005717039E0
1.332717455E1	2.641914412E-2	-4.033119082E-1	-1.907217860E0
1.333557757E1	4.428642802E-3	-4.126273096E-1	-1.787339091E0
1.334398059E1	-2.107422985E-2	-4.529432356E-1	-1.617218137E0
1.335238361E1	-5.573981255E-2	-5.584670901E-1	-1.398840189E0
1.336078663E1	-7.162184268E-2	-5.827482939E-1	-1.114796281E0
1.336918965E1	-1.255291104E-1	-4.935645759E-1	-6.329904795E-1
1.337759267E1	-1.652341783E-1	-6.154286265E-1	3.726168275E-1
1.338599570E1	-4.947862774E-2	-1.289803982E0	1.984490037E0
1.339439872E1	-1.962346882E-1	-1.536128163E0	2.533336401E0
1.340280174E1	-4.210264683E-1	-1.860029846E-1	1.548650503E0
1.341120476E1	-3.400892019E-1	1.884158373E0	3.947600424E-1
1.341960778E1	-1.873773932E-1	3.929427624E0	-7.698202729E-1
1.342801080E1	7.406523079E-2	5.617198467E0	-1.553537250E0
1.343641382E1	2.000524700E-1	5.663317680E0	-8.422056437E-1
1.344481684E1	-1.308740228E-1	2.798444033E0	5.575508475E-1
1.345321986E1	-3.261924386E-1	-1.252236843E0	1.574916959E0
1.346162288E1	-4.133908749E-1	-3.115473747E0	1.700293303E0
1.347002590E1	-4.028537571E-1	-3.000939846E0	1.337144613E0
1.347842892E1	-3.138227761E-1	-1.944937706E0	8.454126120E-1
1.348683194E1	-2.214321345E-1	-8.722898960E-1	5.100574493E-1
1.349523497E1	-1.676775664E-1	-2.565558441E-2	4.028537571E-1
1.350363799E1	-1.386623234E-1	7.188144922E-1	4.100312293E-1
1.351204101E1	-1.032331884E-1	1.343405843E0	3.610107303E-1
1.352044403E1	-1.024696305E-1	1.649134874E0	2.507528067E-1
1.352884705E1	-1.433963925E-1	1.615232825E0	1.528645307E-1
1.353725007E1	-1.803526580E-1	1.292400122E0	1.259872466E-1
1.354565309E1	-2.038702667E-1	7.305732965E-1	2.244863659E-1
1.355405611E1	-2.293731421E-1	1.188097894E-1	3.878880143E-1
1.356245913E1	-2.458660156E-1	-3.516952991E-1	5.407525301E-1
1.357086215E1	-2.460187376E-1	-5.890094638E-1	6.226060390E-1
1.357926517E1	-2.229592502E-1	-5.955760479E-1	6.253548861E-1
1.358766820E1	-1.841704547E-1	-4.865398407E-1	5.737382770E-1
1.359607122E1	-1.388150454E-1	-3.184041381E-1	4.926483035E-1
1.360447424E1	-9.513945878E-2	-9.177979827E-2	4.106420577E-1
1.361287726E1	-5.528167635E-2	1.721062213E-1	3.524588645E-1
1.362128028E1	-2.657185495E-2	3.562766612E-1	3.323009014E-1
1.362968330E1	-2.489202656E-2	3.588727713E-1	3.492519259E-1
1.363808632E1	-3.313846514E-2	2.058555335E-1	3.851391971E-1
1.364648934E1	-4.413371533E-2	2.718270384E-2	4.127800465E-1
1.365489236E1	-5.375456065E-2	-1.175880954E-1	4.133908749E-1
1.366329538E1	-6.230641901E-2	-2.072299272E-1	3.972034156E-1
1.367169840E1	-6.444438547E-2	-2.360924631E-1	3.709369898E-1
1.368010142E1	-5.726693198E-2	-1.870719790E-1	3.313846290E-1
1.368850445E1	-4.489727318E-2	-7.788302749E-2	2.834331393E-1
1.369690747E1	-3.069507517E-2	1.817270555E-2	2.386885732E-1
1.370531049E1	-1.939439960E-2	4.077405483E-2	2.174616307E-1
1.371371351E1	-1.420219894E-2	4.123218823E-3	2.217375487E-1
1.372211653E1	-8.551862091E-3	-5.253286287E-2	2.438807636E-1
1.373051955E1	-6.566607859E-3	-1.134648770E-1	2.673983872E-1
1.373892257E1	-1.023169141E-2	-1.811162084E-1	2.893888950E-1
1.374732559E1	-9.315420873E-3	-2.510582209E-1	3.064926267E-1
1.375572861E1	-7.177455351E-3	-2.930539846E-1	3.193204105E-1
1.376413163E1	-8.246437646E-3	-3.185568452E-1	3.295520842E-1
1.377253465E1	-1.160609815E-2	-3.605526090E-1	3.432961702E-1
1.378093767E1	-1.893626526E-2	-4.164451063E-1	3.633013964E-1
1.378934070E1	-3.542914242E-2	-4.520269632E-1	3.914003670E-1
1.379774372E1	-4.856235534E-2	-4.535540938E-1	4.159869850E-1
1.380614674E1	-5.650337040E-2	-4.120164812E-1	4.265241027E-1
1.381454976E1	-6.108472496E-2	-3.646758199E-1	4.161396921E-1
1.382295278E1	-5.833591148E-2	-3.469612300E-1	3.972034156E-1
1.383135580E1	-5.115845799E-2	-3.442124426E-1	3.849864900E-1
1.383975882E1	-4.245388508E-2	-3.064926267E-1	3.895678520E-1
1.384816184E1	-4.566083103E-2	-2.159345001E-1	4.213318825E-1
1.385656486E1	-4.703523964E-2	-1.090362370E-1	4.679090083E-1
1.386496788E1	-4.413371533E-2	-4.963133857E-2	5.262449384E-1
1.387337090E1	-3.054236248E-2	-6.887302548E-2	5.833591223E-1
1.388177392E1	-1.404948719E-2	-1.265980899E-1	6.218425035E-1
1.389017694E1	3.359660041E-3	-1.611109674E-1	6.314633489E-1
1.389857997E1	2.046338283E-2	-1.676775664E-1	6.142069101E-1
1.390698299E1	2.199050039E-2	-2.538070381E-1	6.091674566E-1
1.391538601E1	-4.581354442E-4	-4.550811946E-1	6.134433746E-1
1.392378903E1	-3.848337755E-2	-6.558972597E-1	6.273401380E-1
1.393219205E1	-8.108997345E-2	-7.727217674E-1	6.646018028E-1
1.394059507E1	-1.185043678E-1	-8.304468393E-1	7.197307944E-1
1.394899809E1	-1.372879148E-1	-8.747332692E-1	7.802046537E-1
1.395740111E1	-1.353026628E-1	-8.797727823E-1	8.246437907E-1
1.396580413E1	-1.207950488E-1	-7.797465324E-1	8.525900841E-1
1.397420715E1	-9.651386738E-2	-5.879405141E-1	8.722898960E-1
1.398261017E1	-5.803048983E-2	-4.023956358E-1	8.901571631E-1
1.399101320E1	-1.236965694E-2	-2.832804024E-1	8.971819282E-1
1.399941622E1	3.268032894E-2	-2.008160353E-1	8.893936276E-1
1.400781924E1	6.917845458E-2	-7.773031294E-2	8.857285380E-1
1.401622226E1	9.437590092E-2	2.107422985E-2	9.061918855E-1
1.402462528E1	1.107160673E-1	3.603998944E-2	9.475768209E-1
1.403302830E1	1.281252056E-1	9.468132630E-3	9.837695360E-1
1.404143132E1	1.464506239E-1	-1.985253533E-3	1.008050680E0
1.404983434E1	1.679829955E-1	3.436015919E-2	1.009119630E0
1.405823736E1	1.884463727E-1	1.247655526E-1	9.854493141E-1
1.406664038E1	2.040229887E-1	2.370087355E-1	9.414683580E-1
1.407504340E1	2.214321345E-1	3.466558158E-1	8.822161555E-1
1.408344642E1	2.292204350E-1	4.317162931E-1	8.270871639E-1
1.409184945E1	2.238755226E-1	5.036435723E-1	7.789829373E-1
1.410025247E1	2.484621257E-1	5.998520255E-1	6.927008033E-1
1.410865549E1	2.812951505E-1	7.243121266E-1	5.396835804E-1
1.411705851E1	3.121429384E-1	8.770239353E-1	3.297048211E-1
1.412546153E1	3.425326049E-1	9.689564705E-1	1.226275861E-1
1.413386455E1	3.550549746E-1	9.361234307E-1	-3.771981969E-2
1.414226757E1	3.443651497E-1	7.982246280E-1	-1.443126649E-1
1.415067059E1	3.385621011E-1	6.291726828E-1	-2.148655206E-1
1.415907361E1	3.367295563E-1	4.778352678E-1	-2.783936262E-1
1.416747663E1	3.268032968E-1	3.495573401E-1	-3.619270027E-1
1.417587965E1	3.084778786E-1	2.896943092E-1	-4.880669713E-1
1.418428267E1	2.967190444E-1	3.293993771E-1	-6.488724947E-1
1.419268570E1	3.000787199E-1	3.997995257E-1	-8.196043372E-1
1.420108872E1	3.017585576E-1	4.257605374E-1	-9.825478196E-1
1.420949174E1	2.941229641E-1	3.848337829E-1	-1.116170645E0
1.421789476E1	2.750339806E-1	2.898470163E-1	-1.205507040E0
1.422629778E1	2.568612695E-1	1.649287641E-1	-1.256818295E0
1.423470080E1	2.331909388E-1	1.725643501E-2	-1.278503299E0
1.424310382E1	2.057028115E-1	-1.247655526E-1	-1.292858243E0
1.425150684E1	1.908897758E-1	-2.057028115E-1	-1.327371120E0
1.425990986E1	1.826433241E-1	-2.223484069E-1	-1.383721709E0
1.426831288E1	1.672194302E-1	-1.942494214E-1	-1.451067686E0
1.427671590E1	1.522536725E-1	-1.288887709E-1	-1.518718958E0
1.428511892E1	1.331647038E-1	-3.833066672E-2	-1.579650998E0
1.429352194E1	1.192679256E-1	6.368082762E-2	-1.630809426E0
1.430192497E1	1.149920002E-1	1.226275861E-1	-1.672041655E0
1.431032799E1	1.097997949E-1	9.407047927E-2	-1.693879485E0
1.431873101E1	9.834641218E-2	-2.046338283E-2	-1.692505002E0
1.432713403E1	8.063183725E-2	-1.710372269E-1	-1.668223858E0
1.433553705E1	6.139015034E-2	-3.141281903E-1	-1.625922680E0
1.434394007E1	3.497100621E-2	-4.327852726E-1	-1.583926916E0
1.435234309E1	7.024743594E-3	-5.337277651E-1	-1.558118701E0
1.436074611E1	-2.748812735E-2	-6.129852533E-1	-1.561478257E0
1.436914913E1	-5.222744122E-2	-6.403206587E-1	-1.587286592E0
1.437755215E1	-7.406523079E-2	-6.300889254E-1	-1.605459332E0
1.438595517E1	-1.102579311E-1	-7.262973785E-1	-1.575833201E0
1.439435820E1	-1.507265568E-1	-8.758022785E-1	-1.544985414E0
1.440276122E1	-1.736333370E-1	-9.271134138E-1	-1.563005447E0
1.441116424E1	-1.728697717E-1	-8.817580342E-1	-1.606833696E0
1.441956726E1	-1.634016484E-1	-8.351809382E-1	-1.611262321E0
1.442797028E1	-1.801999360E-1	-8.312104344E-1	-1.551093936E0
1.443637330E1	-2.075353563E-1	-8.252546191E-1	-1.446639061E0
1.444477632E1	-2.090624720E-1	-7.850914598E-1	-1.323247910E0
1.445317934E1	-1.879882365E-1	-7.285880446E-1	-1.178477049E0
1.446158236E1	-2.122694254E-1	-6.154286265E-1	-9.874345660E-1
1.446998538E1	-2.756448388E-1	-4.132381678E-1	-6.482616663E-1
1.447838840E1	-2.536543310E-1	-2.379250079E-1	8.796200156E-2
1.448679142E1	4.657710344E-2	-4.213318825E-1	1.416860223E0
1.449519445E1	3.361186981E-1	-8.903098702E-1	2.719797373E0
1.450359747E1	-8.215895295E-2	-6.435275674E-1	2.589381456E0
1.451200049E1	-4.564556181E-1	8.725953102E-1	1.206117868E0
1.452040351E1	-2.754921019E-1	2.808370352E0	-4.443913698E-2
1.452880653E1	2.901524538E-3	4.435514450E0	-1.005607247E0
1.453720955E1	2.994678617E-1	5.603607178E0	-1.425412059E0
1.454561257E1	3.762819171E-1	5.475329399E0	-7.960866690E-1
1.455401559E1	-1.707318127E-1	3.084473133E0	-8.338065445E-2
1.456241861E1	-5.015056133E-1	-3.032856584E-1	3.484883606E-1
1.457082163E1	-2.382304370E-1	-2.175227165E0	7.067502737E-1
1.457922465E1	-1.186570823E-1	-2.526769638E0	9.831586480E-1
1.458762767E1	-2.809897363E-1	-2.192636251E0	1.199093223E0
1.459603070E1	-3.976615667E-1	-1.456107140E0	1.183363795E0
1.460443372E1	-2.489202619E-1	-5.517477989E-1	9.775083065E-1
1.461283674E1	-1.834068894E-1	-1.221694518E-2	7.146912813E-1
1.462123976E1	-1.997470558E-1	1.409530044E-1	4.204156399E-1
1.462964278E1	-1.534753740E-1	3.752129376E-1	1.516428292E-1
1.463804580E1	-1.476723254E-1	6.923953891E-1	-1.847812906E-2
1.464644882E1	-2.003578991E-1	8.241856694E-1	-5.803048983E-2
1.465485184E1	-2.199050188E-1	7.136223316E-1	3.680354729E-2
1.466325486E1	-2.221956849E-1	4.453076422E-1	2.072299272E-1
1.467165788E1	-2.247917950E-1	1.163664013E-1	3.545968235E-1
1.468006090E1	-2.188360244E-1	-2.009687424E-1	4.199574888E-1
1.468846392E1	-2.272351831E-1	-3.975088596E-1	4.022429287E-1
1.469686695E1	-2.254026383E-1	-4.069769979E-1	3.556658030E-1
1.470526997E1	-2.049392611E-1	-2.886253297E-1	3.063398898E-1
1.471367299E1	-1.812689304E-1	-1.507265568E-1	2.612899244E-1
1.472207601E1	-1.467560530E-1	-6.627693027E-2	2.371614426E-1
1.473047903E1	-1.265980899E-1	-8.551862091E-3	2.319692522E-1
1.473888205E1	-1.097997949E-1	4.657710344E-2	2.385358512E-1
1.474728507E1	-9.009996802E-2	5.436540768E-2	2.660239935E-1
1.475568809E1	-8.918370306E-2	-3.894151375E-2	3.017585576E-1
1.476409111E1	-1.000262350E-1	-1.586675793E-1	3.242071867E-1
1.477249413E1	-1.052184403E-1	-1.667613089E-1	3.190149665E-1
1.478089715E1	-8.811471611E-2	-1.101052165E-1	2.967190444E-1
1.478930017E1	-8.674030751E-2	-1.116323397E-1	2.884726226E-1
1.479770320E1	-8.093725890E-2	-1.363716573E-1	2.869454920E-1
1.480610622E1	-6.841489673E-2	-1.186570823E-1	2.733541429E-1
1.481450924E1	-5.512896553E-2	-8.032641560E-2	2.473931462E-1
1.482291226E1	-4.718795046E-2	-6.688777357E-2	1.988307834E-1
1.483131528E1	-3.970507160E-2	-9.865183383E-2	1.478250325E-1
1.483971830E1	-3.344388679E-2	-1.482831687E-1	1.099525094E-1
1.484812132E1	-2.702999115E-2	-1.664558798E-1	7.650861889E-2
1.485652434E1	-1.939439960E-2	-1.551551968E-1	4.566083103E-2
1.486492736E1	-1.435491070E-2	-1.426328421E-1	3.497100621E-2
1.487333038E1	-1.007897966E-2	-1.336228400E-1	3.573456407E-2
1.488173340E1	-1.221694518E-3	-1.146865711E-1	3.069507517E-2
1.489013642E1	7.024743594E-3	-9.880454093E-2	1.817270555E-2
1.489853944E1	1.450762246E-2	-9.849911928E-2	2.443389036E-3
1.490694247E1	1.786728203E-2	-1.214058921E-1	-3.817795310E-3
1.491534549E1	2.046338283E-2	-1.594311297E-1	7.635590737E-4
1.492374851E1	1.817270555E-2	-1.809635013E-1	1.557660475E-2
1.493215153E1	1.130067464E-2	-1.806580722E-1	3.512371704E-2
1.494055455E1	0.000000000E0	-1.750077456E-1	5.497625470E-2
1.494895757E1	-1.466033421E-2	-1.812689304E-1	7.742489129E-2
1.495736059E1	-2.015795931E-2	-1.789782494E-1	1.026223376E-1
1.496576361E1	-1.832541823E-2	-1.553079188E-1	1.330119967E-1
1.497416663E1	-1.359135192E-2	-1.551551968E-1	1.731752008E-1
1.498256965E1	-3.970507067E-3	-1.995943487E-1	2.223484069E-1
1.499097267E1	2.290677279E-3	-2.625116110E-1	2.893888950E-1
1.499937570E1	-2.137965523E-3	-2.921377122E-1	3.652866483E-1
1.500777872E1	3.665083554E-3	-2.843494117E-1	4.524851143E-1
1.501618174E1	1.068982761E-3	-2.373141646E-1	5.398362875E-1
1.502458476E1	1.221694518E-3	-1.872246861E-1	6.261184216E-1
1.503298778E1	1.328592747E-2	-1.634016484E-1	7.127060294E-1
1.504139080E1	3.313846514E-2	-1.398840249E-1	7.986828089E-1
1.504979382E1	8.307522535E-2	-8.429691941E-2	8.674030900E-1
1.505819684E1	1.302631795E-1	-5.115845799E-2	8.875610828E-1
1.506659986E1	1.598892659E-1	-1.533226669E-1	8.626690507E-1
1.507500288E1	1.548497826E-1	-3.365768492E-1	8.147175312E-1
1.508340590E1	1.241547018E-1	-4.289674759E-1	7.908945084E-1
1.509180892E1	1.085781008E-1	-3.713951409E-1	8.028060198E-1
1.510021195E1	9.956810623E-2	-2.625116110E-1	8.399149776E-1
1.510861497E1	1.006370857E-1	-1.688992679E-1	8.706100583E-1
1.511701799E1	1.111742035E-1	-6.108472496E-2	8.681666851E-1
1.512542101E1	1.238492802E-1	3.130592033E-2	8.440381885E-1
1.513382403E1	1.298050433E-1	7.666133344E-2	8.318212628E-1
1.514222705E1	1.366770715E-1	9.391776472E-2	8.403730989E-1
1.515063007E1	1.579040140E-1	7.757759839E-2	8.680139780E-1
1.515903309E1	1.568350345E-1	3.268032894E-2	9.124531150E-1
1.516743611E1	1.441599578E-1	3.145863488E-2	9.681929350E-1
1.517583913E1	1.566823274E-1	5.344913527E-2	1.033553600E0
1.518424215E1	1.157555580E-1	6.536065787E-2	1.093874693E0
1.519264517E1	8.414421231E-2	1.053711548E-1	1.122584581E0
1.520104820E1	1.003316641E-1	1.012479365E-1	1.138466597E0
1.520945122E1	7.391251624E-2	7.223268598E-2	1.148087382E0
1.521785424E1	6.139015034E-2	4.703523964E-2	1.161373377E0
1.522625726E1	5.268557742E-2	7.803573459E-2	1.159540772E0
1.523466028E1	4.001049697E-2	1.589729935E-1	1.136175871E0
1.524306330E1	2.657185495E-2	2.125748396E-1	1.101662993E0
1.525146632E1	2.947338112E-2	2.029540092E-1	1.027903199E0
1.525986934E1	5.955760926E-2	2.031067163E-1	8.096780181E-1
1.526827236E1	1.014006436E-1	3.112266660E-1	4.624113739E-1
1.527667538E1	1.232384369E-1	3.721587062E-1	1.458397806E-1
1.528507840E1	1.342336833E-1	2.567085624E-1	-4.672981426E-2
1.529348142E1	1.550024897E-1	5.283828825E-2	-1.438545287E-1
1.530188444E1	1.753131598E-1	-1.050657257E-1	-2.084516287E-1
1.531028747E1	1.889045089E-1	-2.214321345E-1	-2.773246467E-1
1.531869049E1	2.073826492E-1	-2.970244884E-1	-3.965925872E-1
1.532709351E1	2.179197669E-1	-2.559449971E-1	-5.858024955E-1
1.533549653E1	2.325800955E-1	-1.145338640E-1	-8.151756525E-1
1.534389955E1	2.551814318E-1	4.031591862E-2	-1.040731072E0
1.535230257E1	2.727433145E-1	1.575985998E-1	-1.232689738E0
1.536070559E1	2.811424434E-1	2.472404242E-1	-1.385248899E0
1.536910861E1	2.887780368E-1	2.791571915E-1	-1.500240922E0
1.537751163E1	2.962609231E-1	2.168507725E-1	-1.584385037E0
1.538591465E1	2.907632887E-1	9.437590092E-2	-1.639055848E0
1.539431767E1	2.831276953E-1	8.551862091E-3	-1.672347069E0
1.540272070E1	2.666348219E-1	-1.603474095E-2	-1.693268657E0
1.541112372E1	2.487675399E-1	-1.527118147E-3	-1.717397094E0
1.541952674E1	2.342599183E-1	1.343864016E-2	-1.763363361E0
1.542792976E1	2.197522968E-1	8.857285604E-3	-1.826433301E0
1.543633278E1	2.049392611E-1	-2.137965336E-2	-1.889045119E0
1.544473580E1	1.879882365E-1	-7.299624383E-2	-1.924016118E0
1.545313882E1	1.747023165E-1	-1.261399537E-1	-1.926459551E0
1.546154184E1	1.666085869E-1	-1.473668963E-1	-1.899276853E0
1.546994486E1	1.661504507E-1	-1.284306347E-1	-1.854990363E0
1.547834788E1	1.704263836E-1	-7.925742865E-2	-1.802610278E0
1.548675090E1	1.684411317E-1	-4.596625641E-2	-1.740914702E0
1.549515392E1	1.618745178E-1	-6.780404598E-2	-1.680898905E0
1.550355695E1	1.615691036E-1	-1.117850468E-1	-1.657839417E0
1.551195997E1	1.664558798E-1	-1.261399537E-1	-1.671430826E0
1.552036299E1	1.795890927E-1	-1.427855492E-1	-1.674485087E0
1.552876601E1	1.974563748E-1	-2.263189107E-1	-1.607597232E0
1.553716903E1	1.679829955E-1	-3.859027624E-1	-1.464811683E0
1.554557205E1	1.256818175E-1	-5.821374655E-1	-1.295148849E0
1.555397507E1	1.007898003E-1	-7.760814428E-1	-1.119224906E0
1.556237809E1	5.008947477E-2	-8.958075047E-1	-8.924478292E-1
1.557078111E1	-3.649812192E-2	-9.515473247E-1	-4.564556181E-1
1.557918413E1	-2.012741715E-1	-1.053253412E0	5.381564498E-1
1.558758715E1	-2.519745007E-2	-1.937454820E0	2.639165640E0
1.559599017E1	-1.928750277E-1	-2.400935173E0	3.629196167E0
1.560439320E1	-4.740174711E-1	-7.591304183E-1	2.196454048E0
1.561279622E1	-5.375456065E-2	1.950893402E0	2.376195788E-1
1.562119924E1	1.015533581E-1	4.498737335E0	-1.282931924E0
1.562960226E1	-1.252236869E-2	5.724707603E0	-1.978686929E0
1.563800528E1	-6.719320081E-3	5.038878918E0	-1.296676040E0
1.564640830E1	-2.994678617E-1	2.254026413E0	3.642176688E-1
1.565481132E1	-3.616215885E-1	-3.481829464E-1	1.542542100E0
1.566321434E1	-1.937913001E-1	-1.451373100E0	1.818492293E0
1.567161736E1	-2.035648525E-1	-1.701667786E0	1.713121176E0
1.568002038E1	-3.379512429E-1	-1.588813663E0	1.466338873E0
1.568842340E1	-3.407000601E-1	-1.233147860E0	1.169925213E0
1.569682642E1	-2.472404242E-1	-7.227849960E-1	8.922951221E-1
1.570522944E1	-2.257080674E-1	-9.254335612E-2	6.203153729E-1
1.571363247E1	-2.049392611E-1	5.546492934E-1	3.747547865E-1
1.572203549E1	-1.966928244E-1	9.359707236E-1	2.079934925E-1
1.573043851E1	-2.392994165E-1	9.640696645E-1	1.256818175E-1
1.573884153E1	-2.457133085E-1	7.353073955E-1	1.414111406E-1
1.574724455E1	-2.457133085E-1	4.236225784E-1	2.539597452E-1
1.575564757E1	-2.489202619E-1	9.208522737E-2	4.178195298E-1
1.576405059E1	-2.553341687E-1	-2.425063550E-1	5.818319917E-1
1.577245361E1	-2.612899244E-1	-4.700469673E-1	6.716265678E-1
1.578085663E1	-2.539597452E-1	-5.071559548E-1	6.647545099E-1
1.578925965E1	-2.301367074E-1	-4.534013867E-1	5.969504714E-1
1.579766267E1	-2.008160353E-1	-3.610107303E-1	5.004366040E-1
1.580606570E1	-1.598892659E-1	-1.953184158E-1	4.066715539E-1
1.581446872E1	-1.238492802E-1	-5.650337320E-3	3.477247953E-1
1.582287174E1	-1.018587798E-1	1.097997949E-1	3.377985358E-1
1.583127476E1	-9.162709117E-2	1.062874198E-1	3.675773442E-1
1.583967778E1	-8.765657991E-2	2.000524849E-2	4.048390090E-1
1.584808080E1	-8.780929446E-2	-9.086353332E-2	4.256078303E-1
1.585648382E1	-8.399149776E-2	-1.881409585E-1	4.181249440E-1
1.586488684E1	-7.895200700E-2	-2.279987335E-1	3.888042867E-1
1.587328986E1	-7.314895838E-2	-2.046338320E-1	3.490992188E-1
1.588169288E1	-6.032116711E-2	-1.285833418E-1	3.020639718E-1
1.589009590E1	-5.054761097E-2	-2.611372061E-2	2.553341687E-1
1.589849892E1	-3.848337755E-2	4.871506989E-2	2.226538211E-1
1.590690195E1	-3.145863488E-2	7.498150319E-2	2.067717910E-1
1.591530497E1	-3.069507517E-2	6.322269142E-2	2.011214644E-1
1.592370799E1	-2.611372061E-2	2.351761982E-2	1.969982386E-1
1.593211101E1	-1.771457121E-2	-1.175880991E-2	1.858502775E-1
1.594051403E1	-5.650337320E-3	-3.283303976E-2	1.702736765E-1
1.594891705E1	6.872031838E-3	-5.512896553E-2	1.577513069E-1
1.595732007E1	1.893626526E-2	-8.246438205E-2	1.551551968E-1
1.596572309E1	2.672456764E-2	-9.009996802E-2	1.563768983E-1
1.597412611E1	3.237490356E-2	-1.026223376E-1	1.608055383E-1
1.598252913E1	3.787253052E-2	-1.330119967E-1	1.692046970E-1
1.599093215E1	4.153761268E-2	-1.449235082E-1	1.713426560E-1
1.599933517E1	4.245388508E-2	-1.369825006E-1	1.693574041E-1
1.600773820E1	4.581354558E-2	-1.394258887E-1	1.713426560E-1
1.601614122E1	5.085303262E-2	-1.375933439E-1	1.748550236E-1
1.602454424E1	5.482354015E-2	-1.014006436E-1	1.753131598E-1
1.603294726E1	5.711421743E-2	-5.192201585E-2	1.782146841E-1
1.604135028E1	5.665608495E-2	-1.527118124E-2	1.869192570E-1
1.604975330E1	5.955760926E-2	1.374406368E-2	1.995943487E-1
1.605815632E1	5.955760926E-2	4.779879749E-2	2.127275616E-1
1.606655934E1	5.405998230E-2	6.704048812E-2	2.313583940E-1
1.607496236E1	4.550812021E-2	5.818320066E-2	2.544178963E-1
1.608336538E1	4.321744293E-2	3.451287001E-2	2.736595869E-1
1.609176840E1	4.184303805E-2	-4.428642802E-3	2.738122940E-1
1.610017142E1	3.603998944E-2	-6.536065787E-2	2.678565085E-1
1.610857445E1	2.550287358E-2	-1.349972486E-1	3.066453338E-1
1.611697747E1	1.038440317E-2	-1.769929975E-1	3.753656447E-1
1.612538049E1	6.872031838E-3	-1.936385781E-1	4.482091665E-1
1.613378351E1	2.489202656E-2	-1.846285909E-1	5.073086619E-1
1.614218653E1	5.467082933E-2	-1.514901221E-1	5.537330508E-1
1.615058955E1	8.689302206E-2	-2.098260373E-1	5.818319917E-1
1.615899257E1	9.819369763E-2	-3.683409095E-1	5.871769190E-1
1.616739559E1	6.673506647E-2	-4.906630516E-1	5.746545792E-1
1.617579861E1	2.473931387E-2	-5.541911721E-1	5.716003180E-1
1.618420163E1	-1.969982497E-2	-6.491779089E-1	6.070294380E-1
1.619260465E1	-6.108472496E-2	-7.592831254E-1	6.682668924E-1
1.620100767E1	-8.460234851E-2	-8.353336453E-1	7.162184119E-1
1.620941070E1	-9.529217333E-2	-8.054021001E-1	7.304205894E-1
1.621781372E1	-8.506047726E-2	-6.710157394E-1	7.200362086E-1
1.622621674E1	-6.001574174E-2	-5.233433843E-1	7.006418109E-1
1.623461976E1	-2.489202656E-2	-4.011739492E-1	6.849125028E-1
1.624302278E1	8.704573847E-3	-2.997733057E-1	6.807892919E-1
1.625142580E1	3.726168349E-2	-2.165453583E-1	6.922426820E-1
1.625982882E1	5.818320066E-2	-1.704263836E-1	7.188144922E-1
1.626823184E1	7.360709459E-2	-1.411057115E-1	7.528692484E-1
1.627663486E1	8.597674966E-2	-9.849911928E-2	7.988355160E-1
1.628503788E1	9.972081333E-2	-3.252761811E-2	8.475505710E-1
1.629344090E1	1.087308154E-1	6.978929788E-2	8.912261724E-1
1.630184392E1	1.145338640E-1	1.934858710E-1	9.184088707E-1
1.631024694E1	1.195733473E-1	2.907632887E-1	9.307785034E-1
1.631864997E1	1.203369126E-1	3.443651497E-1	9.356653094E-1
1.632705299E1	1.160609797E-1	3.842229247E-1	9.338327646E-1
1.633545601E1	1.101052165E-1	4.289674759E-1	9.269607067E-1
1.634385903E1	9.513945878E-2	4.740174711E-1	9.123004079E-1
1.635226205E1	8.307522535E-2	5.193728805E-1	8.466343284E-1
1.636066507E1	8.185353130E-2	6.024481058E-1	6.969767213E-1
1.636906809E1	9.132166207E-2	7.464553714E-1	4.740174711E-1
1.637747111E1	1.007898003E-1	8.107470274E-1	2.751866877E-1
1.638587413E1	9.559759498E-2	7.035433054E-1	1.493521482E-1
1.639427715E1	9.559759498E-2	5.505260825E-1	6.994201243E-2
1.640268017E1	9.895725548E-2	4.509579837E-1	2.596100792E-3
1.641108320E1	1.056765765E-1	4.109475017E-1	-7.467607409E-2
1.641948622E1	1.096470803E-1	3.953709006E-1	-1.835595965E-1
1.642788924E1	1.072036922E-1	4.129327536E-1	-3.298575282E-1
1.643629226E1	1.102579311E-1	4.540122151E-1	-5.077667832E-1
1.644469528E1	1.221694499E-1	5.125008225E-1	-7.093463540E-1
1.645309830E1	1.411057115E-1	5.500679612E-1	-9.020686746E-1
1.646150132E1	1.652341783E-1	5.047125220E-1	-1.052795291E0
1.646990434E1	1.896680743E-1	3.713951409E-1	-1.153585076E0
1.647830736E1	2.141019702E-1	1.916533262E-1	-1.214211583E0
1.648671038E1	2.243336588E-1	1.038440317E-2	-1.245517612E0
1.649511340E1	2.386885732E-1	-1.484358907E-1	-1.270714998E0
1.650351642E1	2.443388999E-1	-2.638860047E-1	-1.307365894E0
1.651191944E1	2.394521236E-1	-3.203893900E-1	-1.363716483E0
1.652032247E1	2.305948436E-1	-3.124483824E-1	-1.428924441E0
1.652872549E1	2.203631550E-1	-2.235700935E-1	-1.492452621E0
1.653712851E1	2.018850148E-1	-8.124268800E-2	-1.549566746E0
1.654553153E1	1.873773932E-1	7.879929990E-2	-1.596907496E0
1.655393455E1	1.863084137E-1	2.376195788E-1	-1.643026471E0
1.656233757E1	1.907370538E-1	3.396310806E-1	-1.686702013E0
1.657074059E1	1.873773932E-1	3.345915973E-1	-1.708387017E0
1.657914361E1	1.797417998E-1	2.148655206E-1	-1.694184899E0
1.658754663E1	1.615691036E-1	-2.290677279E-3	-1.644095421E0
1.659594965E1	1.423274130E-1	-2.550287247E-1	-1.586217642E0
1.660435267E1	1.255291104E-1	-5.085303187E-1	-1.530630469E0
1.661275570E1	1.113269106E-1	-7.450809479E-1	-1.488634825E0
1.662115872E1	8.979454637E-2	-9.246700406E-1	-1.465880752E0
1.662956174E1	6.200099736E-2	-1.026986957E0	-1.462826490E0
1.663796476E1	3.359659761E-2	-1.038745761E0	-1.468476772E0
1.664636778E1	8.399149403E-3	-9.356653094E-1	-1.479930162E0
1.665477080E1	-8.704573847E-3	-7.466080785E-1	-1.497033954E0
1.666317382E1	-2.031067200E-2	-5.578562617E-1	-1.510014415E0
1.667157684E1	-3.527642787E-2	-3.955236077E-1	-1.520093441E0
1.667997986E1	-3.329117596E-2	-2.449497581E-1	-1.525285602E0
1.668838288E1	-1.511846948E-2	-1.137702987E-1	-1.533379316E0
1.669678590E1	-7.941014133E-3	6.872031838E-3	-1.541931152E0
1.670518892E1	-1.832541823E-2	8.994726092E-2	-1.528339863E0
1.671359194E1	-2.199050039E-2	9.972081333E-2	-1.486954927E0
1.672199497E1	-2.657185495E-2	7.620319724E-2	-1.431520581E0
1.673039799E1	-7.757759839E-2	9.483403713E-2	-1.311030984E0
1.673880101E1	-2.845021188E-1	2.081461996E-1	-9.000834227E-1
1.674720403E1	-6.337540150E-1	2.660239935E-1	2.383831441E-1
1.675560705E1	-1.644706279E-1	-6.571189165E-1	2.372683525E0
1.676401007E1	4.217900336E-1	-2.435447931E0	3.594683409E0
1.677241309E1	-2.829749882E-1	-1.957001925E0	2.434684515E0
1.678081611E1	-4.475983381E-1	4.178195298E-1	4.731011987E-1
1.678921913E1	-1.772984117E-1	3.157469511E0	-1.086849928E0
1.679762215E1	2.886253223E-2	4.666720390E0	-1.785353780E0
1.680602517E1	7.742489129E-2	4.430933475E0	-1.522231340E0
