"Time (s)"	"Acceleration x (m/s^2)"	"Acceleration y (m/s^2)"	"Acceleration z (m/s^2)"
3.410815100E-2	-3.098705411E-1	8.879166603E0	4.134199142E0
4.251117200E-2	-4.109672904E-1	8.793622971E0	4.164707661E0
5.091419300E-2	-4.737788737E-1	8.800801277E0	4.192823410E0
5.931721400E-2	-4.845465720E-1	8.818149567E0	4.238286972E0
6.772023500E-2	-4.145565331E-1	8.822337151E0	4.314857483E0
7.612325600E-2	-3.032902777E-1	8.800203323E0	4.378267288E0
8.452627600E-2	-3.098705411E-1	8.770891190E0	4.372883320E0
9.292929700E-2	-4.241278172E-1	8.739186287E0	4.336392879E0
1.013323180E-1	-5.611169338E-1	8.713463783E0	4.278367043E0
1.097353390E-1	-6.053841114E-1	8.709874153E0	4.232903481E0
1.181383600E-1	-5.659025311E-1	8.706285477E0	4.259224415E0
1.265413810E-1	-4.211367965E-1	8.758329391E0	4.313062668E0
1.349444010E-1	-2.865405083E-1	8.854640007E0	4.319643021E0
1.433474220E-1	-2.153540403E-1	8.885149002E0	4.290330887E0
1.517504430E-1	-2.075773627E-1	8.866005898E0	4.293322086E0
1.601534640E-1	-2.362912297E-1	8.797212601E0	4.286741734E0
1.685564850E-1	-2.799602449E-1	8.699107170E0	4.235894203E0
1.769595060E-1	-3.655036688E-1	8.697910309E0	4.200001717E0
1.853625260E-1	-4.420739710E-1	8.752346992E0	4.198207378E0
1.937655470E-1	-4.785645306E-1	8.843274117E0	4.247260094E0
2.021685680E-1	-4.797609448E-1	8.868398666E0	4.293920040E0
2.105715890E-1	-4.923232496E-1	8.823533058E0	4.274777889E0
2.189746100E-1	-5.425725579E-1	8.775676727E0	4.241278172E0
2.273776310E-1	-5.778666735E-1	8.749954224E0	4.211966038E0
2.357806510E-1	-5.491527915E-1	8.766105652E0	4.278367043E0
2.441836720E-1	-5.036891699E-1	8.797212601E0	4.343571186E0
2.525866930E-1	-4.648058116E-1	8.859425545E0	4.319643021E0
2.609897140E-1	-4.983053207E-1	8.944969177E0	4.304089546E0
2.693927350E-1	-5.240281820E-1	8.901300430E0	4.261018753E0
2.777957560E-1	-5.335994363E-1	8.748757362E0	4.192823410E0
2.861987760E-1	-4.935196638E-1	8.597412109E0	4.140779495E0
2.946017970E-1	-4.462614357E-1	8.657232285E0	4.090530396E0
3.030048180E-1	-3.684946895E-1	8.870193481E0	4.077968121E0
3.114078390E-1	-3.062812984E-1	8.961718559E0	4.174877167E0
3.198108600E-1	-3.062812984E-1	8.933005333E0	4.237689018E0
3.282138810E-1	-4.307080805E-1	8.836693764E0	4.245465755E0
3.366169010E-1	-6.119644046E-1	8.865407944E0	4.235894203E0
3.450199220E-1	-7.639086246E-1	8.930612564E0	4.217947960E0
3.534229430E-1	-7.704889178E-1	8.940781593E0	4.165306091E0
3.618259640E-1	-7.004988194E-1	8.896514893E0	4.161118507E0
3.702289850E-1	-7.058826685E-1	8.903693199E0	4.165306091E0
3.786320060E-1	-8.033902049E-1	8.998209953E0	4.203591347E0
3.870350260E-1	-9.678967595E-1	9.065806389E0	4.124029636E0
3.954380470E-1	-1.158724308E0	9.061020851E0	3.917648792E0
4.038410680E-1	-1.372283816E0	9.162117958E0	3.604787350E0
4.122440890E-1	-1.535593987E0	9.366703987E0	3.302693367E0
4.206471100E-1	-1.336989641E0	9.646066666E0	3.192623615E0
4.290501310E-1	-9.391828775E-1	9.811170578E0	3.324826956E0
4.374531510E-1	-7.334001660E-1	9.873982430E0	2.895315409E0
4.458561720E-1	-4.660021961E-1	1.032323551E1	2.309073925E0
4.542591930E-1	-5.623133108E-2	1.055474091E1	2.233700037E0
4.626622140E-1	7.016952634E-1	1.065344429E1	2.507678032E0
4.710652350E-1	1.733001828E0	1.071745300E1	3.188436270E0
4.794682560E-1	2.776870728E0	1.050987530E1	4.040879250E0
4.878712760E-1	3.537788391E0	1.017129040E1	4.856233597E0
4.962742970E-1	3.517449379E0	9.705288887E0	5.524429321E0
5.046773180E-1	2.541177750E0	9.099306107E0	6.097510338E0
5.130803390E-1	1.116251707E0	8.606385231E0	6.238687038E0
5.214833600E-1	-5.192425251E-1	8.383852005E0	6.083751678E0
5.298863810E-1	-2.125424623E0	8.016553879E0	5.473581791E0
5.382894010E-1	-3.348755360E0	7.143772125E0	4.268795490E0
5.466924220E-1	-4.457230568E0	4.858626366E0	3.294916868E0
5.550954430E-1	-3.601796389E0	4.424927235E0	-3.092723191E-1
5.634984640E-1	-2.464607239E0	4.792225361E0	-1.496710539E0
5.719014850E-1	-1.008574724E0	4.887938499E0	-1.219741344E0
5.803045060E-1	5.724828243E-1	4.977071285E0	-1.202393413E0
5.887075260E-1	2.233700037E0	5.632704735E0	-8.859425783E-1
5.971105470E-1	2.953341246E0	5.791228771E0	-2.087737769E-1
6.055135680E-1	2.339582443E0	5.245067120E0	-3.218346536E-1
6.139165890E-1	8.123632669E-1	4.910071850E0	-8.434699774E-1
6.223196100E-1	-8.416753411E-1	5.034498692E0	-1.460219979E0
6.307226310E-1	-2.057827473E0	5.179862976E0	-1.715653777E0
6.391256510E-1	-2.161317110E0	4.902295589E0	-1.564307809E0
6.475286720E-1	-1.015753269E0	4.777868748E0	-1.121635556E0
6.559316930E-1	5.982056633E-2	5.054239750E0	-5.425725579E-1
6.643347140E-1	9.272187948E-2	5.360520840E0	-4.031906128E-1
6.727377350E-1	-9.517452121E-1	5.208576679E0	-3.188436031E-1
6.811407560E-1	-2.212762833E0	4.511068821E0	-3.427718580E-1
6.895437760E-1	-2.594418049E0	3.777668715E0	-3.661018610E-1
6.979467970E-1	-1.877767563E0	3.564707518E0	-5.449653864E-1
7.063498180E-1	-7.381857634E-1	3.984049797E0	-6.131607890E-1
7.147528390E-1	8.913264424E-2	4.558327198E0	-5.048855543E-1
7.231558600E-1	6.699903607E-1	5.026721954E0	-5.665007830E-1
7.315588810E-1	1.037288666E0	5.344369411E0	-3.379862010E-1
7.399619010E-1	1.269392371E0	5.417350292E0	-8.255238086E-2
7.483649220E-1	1.446461320E0	5.383851051E0	-1.124626622E-1
7.567679430E-1	1.481755376E0	5.375475883E0	-1.208375469E-1
7.651709640E-1	1.402792215E0	5.523830891E0	-1.698904037E-1
7.735739850E-1	1.292722464E0	5.885147095E0	-3.433700502E-1
7.819770060E-1	1.186241865E0	6.193223000E0	-3.050848842E-1
7.903800260E-1	1.227517962E0	6.361917019E0	5.982056726E-3
7.987830470E-1	1.630708575E0	6.416952133E0	1.938186288E-1
8.071860680E-1	2.338984251E0	6.669394970E0	9.930214286E-2
8.155890890E-1	2.964108944E0	7.107281685E0	6.699903309E-2
8.239921100E-1	3.403192043E0	7.575676441E0	1.088734269E-1
8.323951310E-1	3.712464333E0	7.993822098E0	1.459621787E-1
8.407981510E-1	4.029513359E0	8.325826645E0	2.279163599E-1
8.492011720E-1	4.380660057E0	8.578866959E0	2.536391914E-1
8.576041930E-1	4.682155609E0	8.896514893E0	1.333998591E-1
8.660072140E-1	4.694717884E0	9.218947411E0	2.195414752E-1
8.744102350E-1	4.417748928E0	9.526425362E0	4.193421602E-1
8.828132560E-1	4.070789337E0	9.957731247E0	4.247260094E-1
8.912162760E-1	3.790230989E0	1.053320503E1	8.913264424E-2
8.996192970E-1	3.718446493E0	1.106501007E1	-2.075773627E-1
9.080223180E-1	3.806382656E0	1.144008541E1	-5.443671346E-1
9.164253390E-1	3.776472330E0	1.168295670E1	-6.981059909E-1
9.248283600E-1	3.530609846E0	1.155434227E1	-2.171486616E-1
9.332313810E-1	3.443870068E0	1.126840019E1	5.324030295E-2
9.416344010E-1	3.649652719E0	1.127737331E1	-2.015953064E-1
9.500374220E-1	3.972085476E0	1.169252777E1	-9.409775138E-1
9.584404430E-1	4.170690060E0	1.225065327E1	-1.494317770E0
9.668434640E-1	4.064807415E0	1.251266766E1	-1.419542074E0
9.752464850E-1	3.759124279E0	1.260718441E1	-1.362712502E0
9.836495060E-1	3.324826956E0	1.264247799E1	-1.266999602E0
9.920525260E-1	2.885145903E0	1.252104282E1	-1.174277663E0
1.000455547E0	2.630310297E0	1.239183044E1	-1.298704505E0
1.008858568E0	2.563909531E0	1.233679581E1	-1.368694544E0
1.017261589E0	2.750549555E0	1.244207954E1	-1.426720500E0
1.025664610E0	2.906681299E0	1.262034512E1	-1.272981644E0
1.034067631E0	2.719442844E0	1.252403355E1	-1.057029366E0
1.042470651E0	2.214557409E0	1.218544960E1	-1.118046403E0
1.050873672E0	1.441077471E0	1.178524971E1	-1.415952802E0
1.059276693E0	5.940182209E-1	1.140957642E1	-1.909472466E0
1.067679714E0	7.776673418E-3	1.107757282E1	-2.353341103E0
1.076082735E0	-1.244267747E-1	1.091785145E1	-2.580060959E0
1.084485756E0	7.178468257E-2	1.107218838E1	-2.733201742E0
1.092888776E0	3.343969584E-1	1.145862961E1	-2.674577475E0
1.101291797E0	4.558327198E-1	1.177508068E1	-2.378465652E0
1.109694818E0	3.978067636E-1	1.187856960E1	-2.186441660E0
1.118097839E0	3.511467278E-1	1.183968639E1	-2.170290232E0
1.126500860E0	4.109672904E-1	1.180080318E1	-2.320439816E0
1.134903881E0	6.263213158E-1	1.201316643E1	-2.333600283E0
1.143306901E0	7.698906660E-1	1.226441288E1	-2.213959217E0
1.151709922E0	5.688936114E-1	1.235115242E1	-2.067996979E0
1.160112943E0	-1.196411322E-3	1.228774261E1	-2.024926186E0
1.168515964E0	-4.648058116E-1	1.230688477E1	-2.384447813E0
1.176918985E0	-6.418746710E-1	1.227338600E1	-2.843869686E0
1.185322006E0	-5.156532526E-1	1.206700420E1	-3.011367321E0
1.193725026E0	-4.546362907E-2	1.194018459E1	-2.845664263E0
1.202128047E0	5.575276613E-1	1.190130138E1	-2.662613392E0
1.210531068E0	8.877372146E-1	1.182054424E1	-2.587239504E0
1.218934089E0	8.123632669E-1	1.169910812E1	-2.608176708E0
1.227337110E0	3.457628787E-1	1.176730347E1	-2.434697151E0
1.235740131E0	-4.402793646E-1	1.182772255E1	-2.510071039E0
1.244143151E0	-1.349551916E0	1.177508068E1	-2.935993433E0
1.252546172E0	-2.093719721E0	1.170389366E1	-2.985046148E0
1.260949193E0	-2.682952404E0	1.140000534E1	-2.120040894E0
1.269352214E0	-2.732603550E0	1.096152020E1	-1.048654556E0
1.277755235E0	-1.706082582E0	1.077847004E1	6.137589812E-1
1.286158256E0	9.726824164E-1	1.062951660E1	3.277568817E0
1.294561276E0	1.493121386E0	1.100219822E1	5.630311489E0
1.302964297E0	-3.269193888E0	1.013779163E1	2.055434704E0
1.311367318E0	-7.122236729E0	1.003011417E1	-8.288737297E0
1.319770339E0	-5.646463394E0	1.376231956E1	-8.530412674E0
1.328173360E0	-4.989035130E0	1.674736595E1	5.958128572E-1
1.336576381E0	-6.436094761E0	1.879382706E1	-6.263213158E-1
1.344979401E0	-9.041878700E0	2.211745834E1	-8.263014793E0
1.353382422E0	-1.198445225E1	2.374696922E1	-7.515257835E0
1.361785443E0	-9.081958771E0	1.653739548E1	-5.000401020E0
1.370188464E0	-1.082752272E-1	8.149953842E0	-5.493920803E0
1.378591485E0	7.434499741E0	4.523033142E0	-5.538187981E0
1.386994506E0	9.251849174E0	2.674577475E0	-2.707478762E0
1.395397526E0	5.169693470E0	2.617748022E0	3.984049559E-1
1.403800547E0	7.782655358E-1	5.932405472E0	1.927418590E0
1.412203568E0	-1.474576950E0	1.024247742E1	1.168893814E0
1.420606589E0	-1.933400750E0	1.310070419E1	-9.391828626E-2
1.429009610E0	-9.212366939E-1	1.307557964E1	-5.174478889E-1
1.437412631E0	1.225125194E0	1.142154026E1	-2.368894368E-1
1.445815651E0	3.625724554E0	1.030528927E1	-1.022931710E-1
1.454218672E0	4.894518852E0	9.609575272E0	-1.124626622E-1
1.462621693E0	4.136591911E0	9.327820778E0	-2.398804724E-1
1.471024714E0	2.021337032E0	9.596415520E0	-3.732803464E-1
1.479427735E0	9.032905847E-2	1.011326504E1	-9.044869542E-1
1.487830756E0	-9.074779749E-1	1.046620655E1	-1.913061738E0
1.496233776E0	-9.212366939E-1	1.038245773E1	-2.164308071E0
1.504636797E0	-2.117647976E-1	9.938589096E0	-1.593619823E0
1.513039818E0	7.722834945E-1	9.632308006E0	-1.119242787E0
1.521442839E0	1.627717614E0	9.664610863E0	-9.607182741E-1
1.529845860E0	1.966900229E0	9.839884758E0	-1.052842021E0
1.538248881E0	1.697707653E0	9.912267685E0	-1.065404296E0
1.546651901E0	9.738788009E-1	9.755537987E0	-1.069591761E0
1.555054922E0	1.483550072E-1	9.567701340E0	-1.463211060E0
1.563457943E0	-4.271188378E-1	9.500701904E0	-1.563709617E0
1.571860964E0	-7.369893789E-1	9.565308571E0	-1.424327731E0
1.580263985E0	-8.225327730E-1	9.693324089E0	-1.070189953E0
1.588667006E0	-8.530412912E-1	9.699306488E0	-5.401797295E-1
1.597070026E0	-8.309076428E-1	9.547960281E0	-3.517449200E-1
1.605473047E0	-7.256234884E-1	9.471389771E0	-5.048855543E-1
1.613876068E0	-5.694918036E-1	9.550951958E0	-5.922235847E-1
1.622279089E0	-4.857429862E-1	9.668798447E0	-6.705885530E-1
1.630682110E0	-4.671986103E-1	9.719047546E0	-5.946164131E-1
1.639085131E0	-6.233302951E-1	9.745368004E0	-2.626122832E-1
1.647488151E0	-8.303094506E-1	9.678369522E0	-3.948157430E-1
1.655891172E0	-9.140582681E-1	9.596415520E0	-8.147560954E-1
1.664294193E0	-8.626125455E-1	9.602396965E0	-8.955138922E-1
1.672697214E0	-7.692924738E-1	9.665208817E0	-5.318048596E-1
1.681100235E0	-7.148557901E-1	9.643074989E0	-3.930211067E-1
1.689503256E0	-6.017948985E-1	9.665208817E0	-5.090730190E-1
1.697906276E0	-3.349951804E-1	9.760323524E0	-5.102694035E-1
1.706309297E0	-2.333002165E-2	9.873384476E0	-2.955136001E-1
1.714712318E0	1.333998591E-1	9.798608780E0	-3.493520916E-1
1.723115339E0	1.190429255E-1	9.716055870E0	-6.287141442E-1
1.731518360E0	-2.931207791E-2	9.744172096E0	-7.028916478E-1
1.739921381E0	-2.045863420E-1	9.815957069E0	-5.425725579E-1
1.748324401E0	-3.427718580E-1	9.803394318E0	-3.487538993E-1
1.756727422E0	-3.846462369E-1	9.790233612E0	-2.871387303E-1
1.765130443E0	-4.133601189E-1	9.641280174E0	-1.830509305E-1
1.773533464E0	-3.996013701E-1	9.614959717E0	-2.123630047E-1
1.781936485E0	-4.666004181E-1	9.710672379E0	-1.674975902E-1
1.790339506E0	-6.921239495E-1	9.780662537E0	-1.764706671E-1
1.798742526E0	-9.266205430E-1	9.747760773E0	-3.218346536E-1
1.807145547E0	-9.541380405E-1	9.658628464E0	-4.283152521E-1
1.815548568E0	-8.434699774E-1	9.636494637E0	-4.713860750E-1
1.823951589E0	-7.034898400E-1	9.684949875E0	-4.713860750E-1
1.832354610E0	-6.843472719E-1	9.822537422E0	-3.194418252E-1
1.840757631E0	-8.650053740E-1	9.829116821E0	-3.068794906E-1
1.849160651E0	-1.038485050E0	9.717252731E0	-3.523431420E-1
1.857563672E0	-9.924231768E-1	9.657432556E0	-2.817548811E-1
1.865966693E0	-1.021137118E0	9.741181374E0	-6.101697683E-2
1.874369714E0	-1.131805062E0	9.671789169E0	2.392822690E-2
1.882772735E0	-1.198205948E0	9.565906525E0	9.092725813E-2
1.891175756E0	-1.100100160E0	9.521040916E0	6.939185411E-2
1.899578776E0	-1.009172916E0	9.524032593E0	1.465603858E-1
1.907981797E0	-9.361918569E-1	9.576674461E0	7.477571070E-2
1.916384818E0	-7.112665176E-1	9.750752449E0	-7.298108935E-2
1.924787839E0	-3.637090325E-1	9.876974106E0	-8.853443712E-2
1.933190860E0	-2.153540403E-1	9.824930191E0	-6.759724021E-2
1.941593881E0	-3.236292601E-1	9.704689980E0	-1.064806059E-1
1.949996901E0	-4.396811724E-1	9.688538551E0	-1.860419661E-1
1.958399922E0	-3.206382394E-1	9.737591743E0	-2.667997181E-1
1.966802943E0	-1.196411322E-3	9.780662537E0	-3.379862010E-1
1.975205964E0	2.859423161E-1	9.824331284E0	-2.452643216E-1
1.983608985E0	3.212364316E-1	9.881759644E0	-1.603191197E-1
1.992012006E0	-2.273181453E-2	9.873384476E0	-1.603191197E-1
2.000415026E0	-4.630111754E-1	9.824331284E0	-3.828516304E-1
2.008818047E0	-6.502495408E-1	9.801001549E0	-1.968096644E-1
2.017221068E0	-5.808576941E-1	9.769296646E0	4.905286431E-2
2.025624089E0	-4.199403822E-1	9.753743172E0	9.272187948E-2
2.034027110E0	-3.415754437E-1	9.705886841E0	1.022931710E-1
2.042430131E0	-4.049852192E-1	9.587442398E0	8.015955985E-2
2.050833151E0	-4.600201547E-1	9.631709099E0	7.238288224E-2
2.059236172E0	-4.109672904E-1	9.748957634E0	2.093719877E-2
2.067639193E0	-3.248256743E-1	9.780662537E0	-1.028913707E-1
2.076042214E0	-2.602194548E-1	9.712467194E0	-3.038884699E-1
2.084445235E0	-1.788634956E-1	9.660423279E0	-2.853440940E-1
2.092848256E0	-1.256231871E-2	9.665806770E0	-1.860419661E-1
2.101251276E0	1.202393398E-1	9.720842361E0	-1.950150430E-1
2.109654297E0	6.580262631E-2	9.717252731E0	-1.166501045E-1
2.118057318E0	-1.022931710E-1	9.684949875E0	-2.219343036E-1
2.126460339E0	-1.734796464E-1	9.723235130E0	-4.037888348E-1
2.134863360E0	-1.082752272E-1	9.714262009E0	-4.175475538E-1
2.143266381E0	-1.196411322E-3	9.693324089E0	-4.354937077E-1
2.151669401E0	1.004985496E-1	9.665806770E0	-4.187439680E-1
2.160072422E0	1.866401732E-1	9.690931320E0	-3.882354796E-1
2.168475443E0	2.309073806E-1	9.732208252E0	-2.805584669E-1
2.176878464E0	2.380858511E-1	9.711869240E0	-2.303091735E-1
2.185281485E0	1.920240223E-1	9.671191216E0	-1.734796464E-1
2.193684506E0	1.447657645E-1	9.639486313E0	-2.901297510E-1
2.202087526E0	1.609173268E-1	9.643673897E0	-6.209374666E-1
2.210490547E0	2.973082066E-1	9.626923561E0	-9.451649189E-1
2.218893568E0	5.778666735E-1	9.717252731E0	-1.031306505E0
2.227296589E0	8.273184299E-1	9.876375198E0	-1.006780148E0
2.235699610E0	8.865407705E-1	9.953543663E0	-8.398807645E-1
2.244102631E0	6.675975323E-1	9.893125534E0	-6.077769399E-1
2.252505651E0	9.212367237E-2	9.693922997E0	-5.682953596E-1
2.260908672E0	-5.359922647E-1	9.530612946E0	-5.682953596E-1
2.269311693E0	-9.439685345E-1	9.589835167E0	-2.195414752E-1
2.277714714E0	-1.121635556E0	9.852447510E0	2.213360928E-2
2.286117735E0	-7.507480979E-1	1.003789139E1	-2.739782035E-1
2.294520756E0	5.443671346E-2	1.028435135E1	6.041877344E-2
2.302923776E0	5.934200287E-1	1.076112175E1	5.419743061E-1
2.311326797E0	2.985046208E-1	1.091605663E1	4.444667995E-1
2.319729818E0	-5.443671346E-1	1.048654556E1	9.571290575E-3
2.328132839E0	-1.276570916E0	1.003489971E1	-7.872386575E-1
2.336535860E0	-1.537986755E0	9.969695091E0	-1.630708575E0
2.344938881E0	-1.243071318E0	1.023350430E1	-2.257628202E0
2.353341901E0	-4.965106845E-1	1.059003448E1	-2.574079037E0
2.361744922E0	5.060819983E-1	1.078385353E1	-2.433500528E0
2.370147943E0	1.505085468E0	1.086102200E1	-2.182852507E0
2.378550964E0	2.126621008E0	1.103450203E1	-1.859821439E0
2.386953985E0	2.167897224E0	1.118405342E1	-1.741376638E0
2.395357006E0	1.683948994E0	1.129950714E1	-1.670190215E0
2.403760026E0	1.048056364E0	1.140000534E1	-1.557727575E0
2.412163047E0	6.023930907E-1	1.144546890E1	-1.337587833E0
2.420566068E0	4.450650215E-1	1.129172993E1	-1.207179070E0
2.428969089E0	2.566302419E-1	1.109910774E1	-1.134197950E0
2.437372110E0	-2.261217386E-1	1.053260708E1	-1.455434322E0
2.445775131E0	-8.015955985E-2	1.050568771E1	-1.694118381E0
2.454178151E0	4.396811724E-1	1.069531918E1	-1.328016520E0
2.462581172E0	7.932206988E-1	1.080000496E1	-1.319641709E0
2.470984193E0	7.956135273E-1	1.079701424E1	-1.289133191E0
2.479387214E0	6.388836503E-1	1.075334454E1	-1.127617717E0
2.487790235E0	5.150550604E-1	1.068215847E1	-9.409775138E-1
2.496193256E0	4.713860750E-1	1.066600704E1	-7.136593461E-1
2.504596276E0	4.145565331E-1	1.055832958E1	-2.877369225E-1
2.512999297E0	5.048855543E-1	1.036929703E1	-2.093719877E-2
2.521402318E0	7.998009920E-1	1.028554821E1	6.580262631E-2
2.529805339E0	1.189232826E0	1.027597713E1	-1.154536903E-1
2.538208360E0	1.037886858E0	1.010548782E1	-3.194418252E-1
2.546611381E0	2.249253243E-1	9.476176262E0	-4.558327198E-1
2.555014401E0	-3.714857101E-1	8.918647766E0	-6.783652306E-1
2.563417422E0	-2.967100143E-1	8.682954788E0	-7.657032609E-1
2.571820443E0	3.385843933E-1	8.686544418E0	-7.914260626E-1
2.580223464E0	1.034297585E0	8.760722160E0	-7.543373108E-1
2.588626485E0	1.634896040E0	8.852845192E0	-7.627122402E-1
2.597029506E0	2.183450699E0	9.017950058E0	-7.950153351E-1
2.605432526E0	2.639881611E0	9.207581520E0	-8.249256015E-1
2.613835547E0	2.891726255E0	9.233304024E0	-8.350951076E-1
2.622238568E0	2.871985435E0	9.047262192E0	-8.404789567E-1
2.630641589E0	2.603989124E0	8.770293236E0	-9.565308690E-1
2.639044610E0	2.152343988E0	8.595019341E0	-1.039083242E0
2.647447631E0	1.659422517E0	8.496315002E0	-1.060618639E0
2.655850651E0	1.294517040E0	8.467002869E0	-1.085743308E0
2.664253672E0	1.170090318E0	8.542376518E0	-1.031904817E0
2.672656693E0	1.197607756E0	8.643473625E0	-9.900303483E-1
2.681059714E0	9.990034699E-1	8.550751686E0	-9.026923180E-1
2.689462735E0	7.531409264E-1	8.436494827E0	-9.236295223E-1
2.697865756E0	6.119644046E-1	8.435895920E0	-9.266205430E-1
2.706268776E0	7.507480979E-1	8.696713448E0	-9.912267923E-1
2.714671797E0	1.037886858E0	8.947361946E0	-1.055832982E0
2.723074818E0	1.361516118E0	9.125627518E0	-1.034895778E0
2.731477839E0	1.656431437E0	9.187242508E0	-1.031306505E0
2.739880860E0	1.852642894E0	9.235098839E0	-1.089332461E0
2.748283881E0	1.994417667E0	9.301499367E0	-1.135394335E0
2.756686901E0	2.146361828E0	9.393623352E0	-1.148554921E0
2.765089922E0	2.277967215E0	9.535996437E0	-1.089332461E0
2.773492943E0	2.355733871E0	9.634101868E0	-1.138385415E0
2.781895964E0	2.292324066E0	9.667003632E0	-1.162911773E0
2.790298985E0	2.016551256E0	9.646066666E0	-1.211366415E0
2.798702006E0	1.556531072E0	9.634700775E0	-1.189232826E0
2.807105026E0	1.187438250E0	9.709476471E0	-1.233500123E0
2.815508047E0	9.661021233E-1	9.815358162E0	-1.292124271E0
2.823911068E0	8.937192559E-1	9.857831001E0	-1.307079315E0
2.832314089E0	9.110672474E-1	9.855438232E0	-1.347757339E0
2.840717110E0	9.493523836E-1	9.846465111E0	-1.357926846E0
2.849120131E0	9.613165259E-1	9.818349838E0	-1.350150228E0
2.857523151E0	1.037288666E0	9.809376717E0	-1.372882009E0
2.865926172E0	1.185643673E0	9.870393753E0	-1.376471281E0
2.874329193E0	1.363310695E0	9.961320877E0	-1.400399446E0
2.882732214E0	1.503290772E0	9.997213364E0	-1.424327731E0
2.891135235E0	1.624128342E0	9.893125534E0	-1.396810174E0
2.899538256E0	1.740778446E0	9.776474953E0	-1.309472203E0
2.907941276E0	1.889133453E0	9.631709099E0	-1.176072359E0
2.916344297E0	2.021935225E0	9.504889488E0	-1.140179992E0
2.924747318E0	2.139183521E0	9.535996437E0	-1.225125194E0
2.933150339E0	2.038684845E0	9.531210899E0	-1.265205026E0
2.941553360E0	1.760519266E0	9.392427444E0	-1.320838094E0
2.949956381E0	1.474576950E0	9.267401695E0	-1.328016520E0
2.958359401E0	1.319043517E0	9.202198029E0	-1.346560955E0
2.966762422E0	1.182652593E0	9.114261627E0	-1.371087432E0
2.975165443E0	1.179063320E0	9.007183075E0	-1.482951880E0
2.983568464E0	1.444068432E0	8.971888542E0	-1.618146300E0
2.991971485E0	1.822134495E0	8.998807907E0	-1.700100541E0
3.000374506E0	2.092523336E0	9.001798630E0	-1.636690736E0
3.008777526E0	2.155933142E0	8.965308189E0	-1.639083505E0
3.017180547E0	2.069791555E0	8.907880783E0	-1.604387641E0
3.025583568E0	1.983051777E0	8.849854469E0	-1.518844128E0
3.033986589E0	2.142772675E0	8.873783112E0	-1.475773335E0
3.042389610E0	2.459821701E0	9.040083885E0	-1.380060434E0
3.050792631E0	2.745764017E0	9.208179474E0	-1.409970760E0
3.059195651E0	2.856431961E0	9.257830620E0	-1.603789330E0
3.067598672E0	2.800200701E0	9.103493690E0	-1.579861164E0
3.076001693E0	2.708675146E0	8.803792953E0	-1.496710539E0
3.084404714E0	2.700898647E0	8.542975426E0	-1.383051515E0
3.092807735E0	2.916850805E0	8.343173981E0	-1.220339537E0
3.101210756E0	3.534797192E0	8.259425163E0	-1.150947690E0
3.109613776E0	4.346562386E0	8.346763611E0	-1.150349498E0
3.118016797E0	4.868795872E0	8.448458672E0	-1.101296663E0
3.126419818E0	4.799404144E0	8.378468513E0	-1.205384374E0
3.134822839E0	4.362115860E0	8.261817932E0	-1.463809252E0
3.143225860E0	3.920639992E0	8.227122307E0	-1.728814363E0
3.151628881E0	3.645465374E0	8.245068550E0	-1.796411633E0
3.160031901E0	3.772883177E0	8.232506752E0	-1.418943882E0
3.168434922E0	4.539782524E0	8.734400749E0	-1.908276081E-1
3.176837943E0	5.673382282E0	9.809376717E0	2.177468538E0
3.185240964E0	5.758925915E0	1.189890862E1	2.377269268E0
3.193643985E0	2.535793781E0	1.624666786E1	-4.576273263E-1
3.202047006E0	-4.164707661E0	1.981376839E1	4.229314029E-1
3.210450026E0	-1.280519009E1	2.250270271E1	1.959721804E0
3.218853047E0	-1.942553329E1	1.913181305E1	-8.141579032E-1
3.227256068E0	-1.429472256E1	1.095374393E1	-6.040082455E0
3.235659089E0	-2.493321180E0	6.825526714E0	-5.600401402E0
3.244062110E0	7.694121361E0	6.370292187E0	-4.622933388E0
3.252465131E0	1.211486149E1	6.401997089E0	-2.575873613E0
3.260868151E0	9.209974289E0	6.951149940E0	8.859425783E-1
3.269271172E0	3.919443607E0	8.930612564E0	1.935793519E0
3.277674193E0	4.181457460E-1	1.105184937E1	-2.117647976E-1
3.286083297E0	-1.470987678E0	1.155793190E1	-1.432104349E0
3.294486318E0	-2.559123755E0	1.043270683E1	-1.369890928E0
3.302889339E0	-3.476771355E0	8.915657043E0	-1.965105653E0
3.311292359E0	-3.297907829E0	8.383254051E0	-2.487339020E0
3.319695380E0	-1.622333765E0	9.169296265E0	-1.463211060E0
3.328098401E0	4.606183469E-1	1.044766140E1	-1.902294010E-1
3.336501422E0	1.356132269E0	1.098544884E1	1.160518974E-1
3.344904443E0	6.394818425E-1	1.065583706E1	2.392822653E-1
3.353307464E0	-9.116654396E-1	9.940383911E0	4.079762697E-1
3.361710484E0	-2.260020971E0	9.574281693E0	3.768695593E-1
3.370113505E0	-3.110071182E0	9.640084267E0	5.449653864E-1
3.378516526E0	-3.442075491E0	9.629914284E0	4.043870270E-1
3.386919547E0	-3.122035265E0	9.504291534E0	1.764706671E-1
3.395322568E0	-2.160718918E0	9.433703423E0	-2.554338276E-1
3.403725589E0	-1.173081279E0	9.519247055E0	-5.916253924E-1
3.412128609E0	-5.898307562E-1	9.680762291E0	-8.931210637E-1
3.420531630E0	-4.893322289E-1	9.793823242E0	-9.750752449E-1
3.428934651E0	-6.723831892E-1	9.756135941E0	-1.084546804E0
3.437337672E0	-9.080761671E-1	9.683155060E0	-1.049850941E0
3.445740693E0	-1.164108157E0	9.524630547E0	-8.356932998E-1
3.454143714E0	-1.355534077E0	9.354142189E0	-7.369893789E-1
3.462546734E0	-1.325623751E0	9.366106033E0	-6.011967063E-1
3.470949755E0	-1.085145116E0	9.471988678E0	-4.187439680E-1
3.479352776E0	-7.082754970E-1	9.575477600E0	-4.199403822E-1
3.487755797E0	-3.302095234E-1	9.609575272E0	-4.989035130E-1
3.496158818E0	-8.973085135E-2	9.613762856E0	-5.922235847E-1
3.504561839E0	1.196411322E-3	9.617950439E0	-7.022934556E-1
3.512964859E0	-6.879365444E-2	9.658628464E0	-8.715856671E-1
3.521367880E0	-1.704886109E-1	9.698708534E0	-9.517452121E-1
3.529770901E0	-1.938186288E-1	9.707681656E0	-9.900303483E-1
3.538173922E0	-2.267199457E-1	9.624530792E0	-1.196411371E0
3.546576943E0	-2.865405083E-1	9.531210899E0	-1.435095429E0
3.554979964E0	-1.842473447E-1	9.632308006E0	-1.389631748E0
3.563382984E0	4.725824669E-2	9.769894600E0	-1.104885817E0
3.571786005E0	2.338984162E-1	9.704689980E0	-8.512466550E-1
3.580189026E0	2.195414752E-1	9.586843491E0	-6.203392744E-1
3.588592047E0	-7.776673418E-3	9.513264656E0	-5.892325640E-1
3.596995068E0	-3.577269912E-1	9.560523033E0	-7.519445419E-1
3.605398089E0	-6.741777658E-1	9.672387123E0	-8.997012973E-1
3.613801109E0	-8.225327730E-1	9.792626381E0	-9.649057388E-1
3.622204130E0	-8.261220455E-1	9.832706451E0	-1.031306505E0
3.630607151E0	-7.657032609E-1	9.771689415E0	-9.804590940E-1
3.639010172E0	-7.710871100E-1	9.762716293E0	-7.698906660E-1
3.647413193E0	-7.172485590E-1	9.641879082E0	-1.320239902E0
3.655816214E0	-5.659025311E-1	9.528818130E0	-1.762912035E0
3.664219234E0	-3.780659735E-1	9.645467758E0	-1.914258122E0
3.672622255E0	-3.278166950E-1	1.011266708E1	-1.847259045E0
3.681025276E0	-4.360919297E-1	1.115832996E1	-1.188036442E0
3.689428297E0	-7.519445419E-1	1.277109241E1	1.316052489E-2
3.697831318E0	-1.393221021E0	1.363968754E1	5.036891699E-1
3.706234339E0	-2.648256540E0	1.232722378E1	-2.093719840E-1
3.714637359E0	-3.662813187E0	1.029990482E1	-1.206580877E0
3.723040380E0	-3.451048374E0	1.002951622E1	-1.762912035E0
3.731443401E0	-2.257030010E0	1.121037388E1	-1.866401672E0
3.739846422E0	-9.948160052E-1	1.212443256E1	-1.953141451E0
3.748249443E0	-1.136590727E-2	1.228355503E1	-2.120040894E0
3.756652464E0	7.477570772E-1	1.207418346E1	-2.012363911E0
3.765055484E0	1.279561877E0	1.209153080E1	-1.593021631E0
3.773458505E0	1.494915962E0	1.208794212E1	-1.149153113E0
3.781861526E0	8.159525394E-1	1.167398357E1	-6.681957245E-1
3.790264547E0	-4.995017350E-1	1.051825047E1	-1.090528965E0
3.798667568E0	-1.164108157E0	1.000439167E1	-1.561316729E0
3.807070589E0	-9.128618240E-1	9.976874352E0	-1.503290772E0
3.815473609E0	-3.278166950E-1	1.012164021E1	-1.095314622E0
3.823876630E0	3.349951804E-1	1.017428207E1	-7.950153351E-1
3.832279651E0	9.798609018E-1	1.018086243E1	-5.766702294E-1
3.840682672E0	1.560120344E0	1.032502937E1	-3.373879790E-1
3.849085693E0	1.807179332E0	1.061635590E1	-4.965107143E-2
3.857488714E0	1.640279889E0	1.095673466E1	1.956132501E-1
3.865891734E0	1.003190875E0	1.122114182E1	2.572284341E-1
3.874294755E0	9.152546525E-2	1.130548859E1	5.204389244E-2
3.882697776E0	-7.806583643E-1	1.122772217E1	-2.937189937E-1
3.891100797E0	-1.400997639E0	1.102612686E1	-5.324030519E-1
3.899503818E0	-1.699502230E0	1.073659515E1	-5.539384484E-1
3.907906839E0	-1.606182218E0	1.046500969E1	-4.378865361E-1
3.916309859E0	-1.234098315E0	1.029452133E1	-3.535395563E-1
3.924712880E0	-9.206385016E-1	1.012821960E1	-2.566302419E-1
3.933115901E0	-9.469595551E-1	9.759127617E0	-3.140579760E-1
3.941518922E0	-1.383051515E0	9.269196510E0	-3.702892959E-1
3.949921943E0	-1.924427629E0	8.807980537E0	-3.846462369E-1
3.958324964E0	-2.370090723E0	8.490931511E0	-3.906283081E-1
3.966727984E0	-2.638685226E0	8.286344528E0	-3.409772217E-1
3.975131005E0	-2.642274380E0	8.171489716E0	-3.792623878E-1
3.983534026E0	-2.365305185E0	8.224131584E0	-4.378865361E-1
3.991937047E0	-1.889133453E0	8.398209572E0	-5.288137794E-1
4.000340068E0	-1.432702541E0	8.586046219E0	-7.489534616E-1
4.008743089E0	-1.152144074E0	8.688937187E0	-9.355936646E-1
4.017146109E0	-1.043270707E0	8.701499939E0	-1.025324464E0
4.025549130E0	-9.212366939E-1	8.717651367E0	-1.173679471E0
4.033952151E0	-6.652047038E-1	8.803194046E0	-1.250848055E0
4.042355172E0	-2.566302419E-1	8.923434258E0	-1.309472203E0
4.050758193E0	2.691925466E-1	8.990432739E0	-1.399801254E0
4.059161214E0	8.350951076E-1	9.071190834E0	-1.536790371E0
4.067564234E0	1.328016520E0	9.178867340E0	-1.636690736E0
4.075967255E0	1.660020709E0	9.259027481E0	-1.642672777E0
4.084370276E0	1.895713687E0	9.284749985E0	-1.645065546E0
4.092773297E0	2.245664120E0	9.310472488E0	-1.659422517E0
4.101176318E0	2.677568436E0	9.373882294E0	-1.795215130E0
4.109579339E0	3.096312523E0	9.427123070E0	-1.835294962E0
4.117982359E0	3.359523058E0	9.491728783E0	-1.815554142E0
4.126385380E0	3.553939819E0	9.543174744E0	-1.844866276E0
4.134788401E0	3.616751432E0	9.557532310E0	-1.977667928E0
4.143191422E0	3.482155085E0	9.521040916E0	-2.261815548E0
4.151594443E0	2.959921598E0	9.441479683E0	-2.293520451E0
4.159997464E0	2.352742910E0	9.261420250E0	-2.304886341E0
4.168400484E0	2.000399828E0	9.227920532E0	-2.671586514E0
4.176803505E0	1.668395638E0	9.375677109E0	-2.650051117E0
4.185206526E0	1.540977836E0	9.473184586E0	-2.076371908E0
4.193609547E0	2.063211441E0	9.615557671E0	-1.699502230E0
4.202012568E0	3.114856958E0	9.913464546E0	-1.524826288E0
4.210415589E0	4.272384644E0	1.007198906E1	-1.377667665E0
4.218818609E0	5.474180222E0	9.899106979E0	-1.460219979E0
4.227221630E0	6.785446644E0	9.885348320E0	-1.576870084E0
4.235624651E0	7.764111042E0	9.843474388E0	-1.366301775E0
4.244027672E0	8.139784813E0	9.184251785E0	-8.207381964E-1
4.252430693E0	8.626125336E0	8.502895355E0	-9.571290612E-1
4.260833714E0	9.105288506E0	8.238488197E0	-1.398006678E0
4.269236734E0	8.980861664E0	7.707281590E0	-1.490130305E0
4.277639755E0	9.104091644E0	7.765307903E0	-2.122433662E0
4.286042776E0	9.887741089E0	8.511270523E0	-2.691925526E0
4.294445797E0	1.149631596E1	1.157587814E1	-3.449253798E0
4.302848818E0	1.078744221E1	1.777627945E1	-3.612564087E0
4.311251839E0	4.697110653E0	2.323729897E1	-1.135394335E0
4.319654859E0	-8.644071579E0	2.355554390E1	9.820143700E0
4.328057880E0	-2.723929405E1	1.548216057E1	6.896713257E0
4.336460901E0	-2.455155754E1	8.285746574E0	-6.844669342E0
4.344863922E0	-7.496713161E0	7.182057381E0	-7.207779884E0
4.353266943E0	7.901100159E0	9.379266739E0	-1.002293587E1
4.361669964E0	1.530808258E1	9.249456406E0	-5.138586521E0
4.370072984E0	1.201256752E1	5.251647472E0	2.580659151E0
4.378476005E0	6.520441532E0	5.888138294E0	5.018347263E0
4.386879026E0	3.496512175E0	9.585647583E0	5.916253924E-1
4.395282047E0	1.888535261E0	1.232961655E1	-1.964507341E0
4.403685068E0	2.656033039E-1	1.249771309E1	-2.111666054E-1
4.412088089E0	-1.816152334E0	1.110329533E1	1.812563092E-1
4.420491109E0	-3.884149313E0	1.008514881E1	-1.006780148E0
4.428894130E0	-4.667798996E0	8.935996056E0	-5.617151260E-1
4.437297151E0	-3.487539053E0	8.727222443E0	1.156929731E0
4.445700172E0	-1.225723386E0	9.503693581E0	1.403988719E0
4.454103193E0	1.543370634E-1	1.003609657E1	1.098305583E0
4.462506214E0	5.904290080E-1	1.003131104E1	6.532405615E-1
4.470909234E0	6.173482537E-1	9.933803558E0	3.158525825E-1
4.479312255E0	5.108676553E-1	1.004028416E1	-1.489532143E-1
4.487715276E0	5.144568533E-2	1.011446095E1	-2.099701911E-1
4.496118297E0	-5.670989752E-1	9.961320877E0	-2.721835673E-1
4.504521318E0	-9.397810698E-1	9.916455269E0	-4.594219327E-1
4.512924339E0	-6.568298340E-1	9.839884758E0	-7.758727670E-1
4.521327359E0	-1.794616925E-3	9.707681656E0	-8.327022791E-1
4.529730380E0	7.417750359E-1	9.526425362E0	-6.263213158E-1
4.538133401E0	1.415952802E0	9.520442963E0	-4.115654826E-1
4.546536422E0	1.770688772E0	9.621540070E0	-2.015953064E-1
4.554939443E0	1.707877159E0	9.675976753E0	-1.830509305E-1
4.563342464E0	1.387238979E0	9.641280174E0	-3.846462369E-1
4.571745484E0	1.064207911E0	9.587442398E0	-5.066801906E-1
4.580148505E0	9.667003751E-1	9.563513756E0	-4.552344978E-1
4.588551526E0	1.115055323E0	9.644869804E0	-2.949153781E-1
4.596954547E0	1.298106313E0	9.711869240E0	-1.351944804E-1
4.605357568E0	1.251446247E0	9.632905960E0	-3.589234129E-2
4.613760589E0	1.097109199E0	9.546764374E0	-7.178467698E-3
4.622163609E0	8.727820516E-1	9.544371605E0	7.657032460E-2
4.630566630E0	6.490531564E-1	9.521639824E0	2.081755698E-1
4.638969651E0	5.772684813E-1	9.508479118E0	2.356930375E-1
4.647372672E0	6.951149702E-1	9.576674461E0	2.249253243E-1
4.655775693E0	9.116654396E-1	9.586843491E0	2.554338276E-1
4.664178714E0	1.127019525E0	9.532406807E0	2.392822653E-1
4.672581734E0	1.333998680E0	9.510273933E0	2.632105052E-1
4.680984755E0	1.487139225E0	9.565906525E0	2.536391914E-1
4.689387776E0	1.485942841E0	9.697511673E0	1.842473447E-1
4.697790797E0	1.386042476E0	9.831509590E0	8.315058798E-2
4.706193818E0	1.293320656E0	9.899705887E0	-1.154536903E-1
4.714596839E0	1.314856052E0	9.859027863E0	-3.535395563E-1
4.722999859E0	1.444666624E0	9.715457916E0	-5.102694035E-1
4.731402880E0	1.633101463E0	9.565308571E0	-7.513462901E-1
4.739805901E0	1.807777524E0	9.413364410E0	-9.343972206E-1
4.748208922E0	1.914856315E0	9.305686951E0	-9.918249846E-1
4.756611943E0	1.855035782E0	9.363713264E0	-9.900303483E-1
4.765014964E0	1.546959877E0	9.525228500E0	-9.409775138E-1
4.773417984E0	1.016351461E0	9.738788605E0	-9.613165259E-1
4.781821005E0	5.006981492E-1	9.832706451E0	-9.625129104E-1
4.790224026E0	1.405783296E-1	9.708877563E0	-1.088734269E0
4.798627047E0	-7.298108935E-2	9.446265221E0	-1.188036442E0
4.807030068E0	-1.633101404E-1	9.285347939E0	-1.243669510E0
4.815433089E0	-2.943171859E-1	9.563513756E0	-1.055234790E0
4.823836109E0	-5.132604837E-1	1.098305607E1	-6.903293133E-1
4.832239130E0	-9.678967595E-1	1.469910908E1	-5.324030295E-2
4.840642151E0	-1.513460279E0	1.995673943E1	-2.602194548E-1
4.849045172E0	-2.503490686E0	2.164487457E1	-6.903293133E-1
4.857448193E0	-3.230908871E0	1.721695709E1	-1.304686546E0
4.865851214E0	-2.895315409E0	1.246959686E1	-1.838884234E0
4.874254234E0	-2.308475733E0	1.120977592E1	-2.375474691E0
4.882657255E0	-1.858026743E0	1.117926693E1	-2.531008244E0
4.891060276E0	-7.250252366E-1	1.162672520E1	-2.171486616E0
4.899463297E0	1.377667665E0	1.204905796E1	-1.483550072E0
4.907866318E0	3.537189960E0	1.200060368E1	-8.997012973E-1
4.916269339E0	4.554139614E0	1.156750298E1	-1.274178028E-1
4.924672359E0	4.039682865E0	1.101236820E1	8.039883971E-1
4.933075380E0	2.820539713E0	1.064447117E1	8.446664214E-1
4.941478401E0	1.860419631E0	1.050568771E1	1.189232826E0
4.949881422E0	1.509871125E0	1.032562828E1	1.713859200E0
4.958284443E0	1.576870084E0	1.030887794E1	1.636690736E0
4.966687464E0	1.079162955E0	1.028136063E1	1.432702541E0
4.975090484E0	-4.546363056E-1	9.940981865E0	6.987041831E-1
4.983493505E0	-2.906681299E0	8.924032211E0	1.208375469E-1
4.991896526E0	-4.878965378E0	7.832904816E0	-7.363911867E-1
5.000299547E0	-4.905286312E0	7.676175117E0	-1.316650629E0
5.008702568E0	-3.086143017E0	8.208578110E0	-1.268794179E0
5.017105589E0	-7.399803996E-1	8.950352669E0	-8.488538265E-1
5.025508609E0	8.817551732E-1	9.411569595E0	-7.214360237E-1
5.033911630E0	1.592423439E0	9.629316330E0	-7.686942816E-1
5.042314651E0	1.539183140E0	9.611370087E0	-7.220342159E-1
5.050717672E0	9.062815905E-1	9.229117393E0	-7.932206988E-1
5.059120693E0	4.366901144E-2	8.682356834E0	-1.046859860E0
5.067523714E0	-6.735795736E-1	8.261817932E0	-1.280758262E0
5.075926734E0	-1.043270707E0	8.157731056E0	-1.342971683E0
5.084329755E0	-9.014959335E-1	8.356932640E0	-1.218544960E0
5.092732776E0	-3.361915946E-1	8.714061737E0	-1.049252748E0
5.101135797E0	3.439682424E-1	8.982057571E0	-9.451649189E-1
5.109538818E0	8.644071817E-1	9.070592880E0	-9.720842242E-1
5.117941839E0	1.085743308E0	9.155537605E0	-1.058824062E0
5.126344859E0	1.064806104E0	9.261420250E0	-1.191027522E0
5.134747880E0	9.296116233E-1	9.379266739E0	-1.226321578E0
5.143150901E0	9.589236975E-1	9.527621269E0	-1.225723386E0
5.151553922E0	1.237687469E0	9.652048111E0	-1.207179070E0
5.159956943E0	1.697707653E0	9.707681656E0	-1.186241865E0
5.168359964E0	2.183450699E0	9.735796928E0	-1.162911773E0
5.176762984E0	2.478366137E0	9.734002113E0	-1.012163997E0
5.185166005E0	2.618944407E0	9.634700775E0	-9.337990284E-1
5.193569026E0	2.694916487E0	9.551549911E0	-8.027920127E-1
5.201972047E0	2.749353170E0	9.449854851E0	-7.645068169E-1
5.210375068E0	2.888735056E0	9.430712700E0	-8.841479421E-1
5.218778089E0	3.080160856E0	9.436096191E0	-1.073180914E0
5.227181109E0	3.308077335E0	9.395418167E0	-1.270588875E0
5.235584130E0	3.592823267E0	9.302098274E0	-1.427916884E0
5.243987151E0	3.861417532E0	9.130413055E0	-1.696511269E0
5.252390172E0	4.073780537E0	8.833703041E0	-1.828116536E0
5.260793193E0	4.291527271E0	8.581260681E0	-2.212762833E0
5.269196214E0	4.321437836E0	8.532805443E0	-2.523829699E0
5.277599234E0	4.140181541E0	8.429315567E0	-2.727219582E0
5.286002255E0	3.981656790E0	8.327022552E0	-3.312264681E0
5.294405276E0	3.872783422E0	8.154739380E0	-3.299702406E0
5.302808297E0	4.572085857E0	7.951947689E0	-2.883949518E0
5.311211318E0	6.438487530E0	8.090133667E0	-2.608774900E0
5.319614339E0	8.928817749E0	8.481359482E0	-2.268994093E0
5.328017359E0	1.124028397E1	9.057432175E0	-2.202593327E0
5.336420380E0	1.277827072E1	9.574879646E0	-2.236690998E0
5.344823401E0	1.313300705E1	9.920642853E0	-2.350948334E0
5.353226422E0	1.192523003E1	9.787242889E0	-2.280958176E0
5.361629443E0	9.849455833E0	9.140582085E0	-2.182254314E0
5.370032464E0	8.216953278E0	8.766105652E0	-2.271985054E0
5.378435484E0	7.511070251E0	8.766703606E0	-2.554338217E0
5.386838505E0	7.347760201E0	9.346364975E0	-2.526222467E0
5.395241526E0	7.394420147E0	1.128933716E1	-2.322832584E0
5.403644547E0	7.530810833E0	1.563290882E1	-2.671586514E0
5.412047568E0	5.495715618E0	2.192603302E1	-7.770691514E-1
5.420450589E0	-2.206780672E0	2.363570404E1	8.961718559E0
5.428853609E0	-1.524527168E1	1.788754654E1	1.782473373E1
5.437256630E0	-2.122254181E1	8.913862228E0	4.505684853E0
5.445659651E0	-8.307282448E0	9.985847473E0	-3.378665686E0
5.454062672E0	3.313461065E0	1.245165062E1	-3.509672642E0
5.462465693E0	8.801400185E0	1.115952682E1	-9.665208817E0
5.470868714E0	7.429116249E0	6.068198204E0	-7.676175117E0
5.479271734E0	4.380061626E0	2.689532757E0	-5.832505226E-1
5.487674755E0	3.627519131E0	5.249852657E0	2.239681959E0
5.496077776E0	4.580460548E0	9.744770050E0	2.518445849E-1
5.504480797E0	5.148158073E0	1.260239887E1	-2.190030813E0
5.512883818E0	4.094119549E0	1.350568962E1	-1.892722726E0
5.521286839E0	2.500499725E0	1.271845055E1	-8.973085135E-2
5.529689859E0	1.050449133E0	1.121157074E1	1.448854089E0
5.538092880E0	-9.116654396E-1	9.624530792E0	1.159920812E0
5.546495901E0	-3.287738323E0	8.477172852E0	9.858429432E-1
5.554898922E0	-5.078765869E0	8.060222626E0	1.441675663E0
5.563301943E0	-4.728815556E0	8.481958389E0	1.402792215E0
5.571704964E0	-2.401795626E0	9.424730301E0	8.626125455E-1
5.580107984E0	1.513460279E-1	1.019402313E1	1.148554832E-1
5.588511005E0	2.058425665E0	1.047039413E1	-8.315058798E-2
5.596914026E0	3.229114056E0	1.038724327E1	-2.703889608E-1
5.605317047E0	3.733999729E0	1.024427223E1	-4.037888348E-1
5.613720068E0	3.406183004E0	9.973284721E0	-8.955138922E-1
5.622123089E0	2.347358942E0	9.706484795E0	-1.265205026E0
5.630526109E0	1.042074203E0	9.619745255E0	-1.252642632E0
5.638929130E0	-1.040877849E-1	9.610772133E0	-1.275972724E0
5.647332151E0	-8.201399446E-1	9.654440880E0	-1.082752228E0
5.655735172E0	-8.703892231E-1	9.716654778E0	-7.531409264E-1
5.664138193E0	-2.793620527E-1	9.823733330E0	-3.337987661E-1
5.672541214E0	5.629115105E-1	9.915857315E0	6.460621208E-2
5.680944234E0	1.299900889E0	9.875179291E0	3.942175210E-1
5.689347255E0	1.773679733E0	9.789635658E0	2.925225794E-1
5.697750276E0	1.977069736E0	9.698708534E0	2.386840582E-1
5.706153297E0	1.826321840E0	9.620343208E0	1.232303679E-1
5.714556318E0	1.438684583E0	9.533603668E0	-1.794616925E-3
5.722959339E0	9.822536707E-1	9.509077072E0	-7.597211748E-2
5.731362359E0	5.144568682E-1	9.561718941E0	-2.530409992E-1
5.739765380E0	1.220339537E-1	9.613164902E0	-2.356930375E-1
5.748168401E0	-3.050848842E-2	9.620942116E0	-2.961117923E-1
5.756571422E0	4.426721856E-2	9.674181938E0	-2.404786795E-1
5.764974443E0	2.440679073E-1	9.748957634E0	-1.980060786E-1
5.773377464E0	3.792623878E-1	9.791430473E0	-2.697907388E-1
5.781780484E0	4.319044948E-1	9.668199539E0	-2.853440940E-1
5.790183505E0	4.438686073E-1	9.541978836E0	-2.763710022E-1
5.798586526E0	4.959124923E-1	9.477970123E0	-2.799602449E-1
5.806989547E0	4.713860750E-1	9.476774216E0	-3.290131092E-1
5.815392568E0	3.445664644E-1	9.571888924E0	-3.810569942E-1
5.823795589E0	1.956132501E-1	9.796216011E0	-4.582255483E-1
5.832198609E0	4.307080805E-2	1.005583763E1	-4.019941986E-1
5.840601630E0	-6.041877344E-2	1.015454102E1	-5.467599630E-1
5.849004651E0	-1.387837082E-1	1.004985523E1	-8.979067206E-1
5.857407672E0	-1.674975902E-1	9.763913155E0	-1.333400369E0
5.865810693E0	-1.447657645E-1	9.530612946E0	-1.628315806E0
5.874213714E0	-2.410768867E-1	9.638887405E0	-1.716252089E0
5.882616734E0	-6.394818425E-1	1.013659477E1	-1.693520188E0
5.891019755E0	-1.347159147E0	1.116012478E1	-1.402194023E0
5.899422776E0	-2.120040894E0	1.365224934E1	-6.825526357E-1
5.907825797E0	-2.781656265E0	1.733241081E1	-7.860422134E-1
5.916228818E0	-3.624528170E0	1.972463608E1	-1.858624935E0
5.924631839E0	-4.576871395E0	1.768834305E1	-2.427518606E0
5.933034859E0	-3.982254982E0	1.424626827E1	-2.581855536E0
5.941437880E0	-2.532802820E0	1.226919842E1	-2.584248543E0
5.949840901E0	-9.427721500E-1	1.177388382E1	-3.135195971E0
5.958243922E0	6.687939167E-1	1.257188988E1	-2.676970243E0
5.966646943E0	2.243869543E0	1.304866028E1	-1.966900229E0
5.975049964E0	3.309273720E0	1.279262829E1	-9.762716293E-1
5.983452984E0	3.609572887E0	1.184985638E1	-1.794616925E-3
5.991856005E0	3.455235958E0	1.103330517E1	3.942175210E-1
6.000259026E0	3.071786165E0	1.057268715E1	1.024726272E0
6.008662047E0	2.749353170E0	1.030469036E1	1.672582984E0
6.017065068E0	2.679363251E0	1.003071213E1	1.792822361E0
6.025468089E0	2.200798512E0	9.960722923E0	1.581655741E0
6.033871109E0	2.889333367E-1	9.626325607E0	1.047458172E0
6.042274130E0	-3.371487141E0	8.293522835E0	4.325026870E-1
6.050677151E0	-6.692126751E0	6.661618233E0	-1.124626637E0
6.059080172E0	-7.819146156E0	6.363113403E0	-2.337189436E0
6.067483193E0	-6.296114445E0	7.144968510E0	-1.877767563E0
6.075886214E0	-3.091526747E0	7.983054638E0	-9.756734371E-1
6.084289234E0	-4.755735099E-1	8.510073662E0	-9.948160052E-1
6.092692255E0	9.008977413E-1	8.835497856E0	-1.371685624E0
6.101095276E0	1.325025558E0	8.976076126E0	-1.360917926E0
6.109498297E0	9.798609018E-1	8.922835350E0	-1.146162033E0
6.117901318E0	2.458625287E-1	8.719446182E0	-1.191027522E0
6.126304339E0	-4.995017350E-1	8.524430275E0	-1.448255897E0
6.134707359E0	-8.673982024E-1	8.538787842E0	-1.615753531E0
6.143110380E0	-6.813562512E-1	8.782855988E0	-1.688734531E0
6.151513401E0	-1.710868180E-1	9.116056442E0	-1.667797327E0
6.159916422E0	4.456632137E-1	9.426525116E0	-1.543968797E0
6.168319443E0	9.786644578E-1	9.604191780E0	-1.372283816E0
6.176722464E0	1.189232826E0	9.690333366E0	-1.269990563E0
6.185125484E0	9.188438654E-1	9.669396400E0	-1.249053478E0
6.193528505E0	3.403790295E-1	9.546764374E0	-1.196411371E0
6.201931526E0	3.050848842E-2	9.681958199E0	-1.230509043E0
6.210334547E0	4.486542568E-2	9.953543663E0	-1.081555843E0
6.218737568E0	3.643072546E-1	1.021914768E1	-1.096511006E0
6.227140589E0	9.792626500E-1	1.046560764E1	-1.149751306E0
6.235543609E0	1.758126378E0	1.060199928E1	-1.074377418E0
6.243946630E0	2.492722988E0	1.064746284E1	-8.685946465E-1
6.252349651E0	3.044866800E0	1.062413216E1	-6.071787477E-1
6.260752672E0	3.417548895E0	1.058824062E1	-5.246263742E-1
6.269155693E0	3.583251953E0	1.062652493E1	-5.611169338E-1
6.277558714E0	3.504886866E0	1.060379314E1	-4.863412082E-1
6.285961734E0	3.297309637E0	1.041595650E1	-4.612165689E-1
6.294364755E0	3.077768087E0	1.007198906E1	-6.825526357E-1
6.302767776E0	2.758326292E0	9.655637741E0	-9.343972206E-1
6.311170797E0	2.441875458E0	9.208778381E0	-1.342373490E0
6.319573818E0	2.042872429E0	8.922835350E0	-1.401595831E0
6.327976839E0	1.939382792E0	8.904291153E0	-1.085145116E0
6.336379859E0	2.425724030E0	9.008976936E0	-7.710871100E-1
6.344782880E0	3.905086517E0	9.156734467E0	-1.101296663E0
6.353185901E0	6.233303070E0	9.366703987E0	-1.628913999E0
6.361588922E0	8.946166039E0	9.616155624E0	-2.038684845E0
6.369991943E0	1.123549843E1	9.678967476E0	-1.951346874E0
6.378394964E0	1.216810131E1	9.175876617E0	-1.533799291E0
6.386797984E0	1.146520996E1	8.059624672E0	-9.948160052E-1
6.395201005E0	1.017488003E1	7.034898758E0	-9.326026440E-1
6.403604026E0	9.206384659E0	6.647859573E0	-1.207777262E0
6.412007047E0	8.705686569E0	6.732804775E0	-1.738983870E0
6.420410068E0	8.445467949E0	6.957131863E0	-2.279761791E0
6.428813089E0	8.346165657E0	7.215556622E0	-2.587837696E0
6.437216109E0	8.584251404E0	7.415357590E0	-2.294118643E0
6.445619130E0	9.286544800E0	9.339186668E0	-3.074777126E0
6.454022151E0	8.640482903E0	1.562872124E1	-5.174479008E0
6.462425172E0	4.309473515E0	2.364467621E1	-3.582653761E0
6.470828193E0	-7.779664516E0	2.753062057E1	1.295833111E1
6.479231214E0	-2.619183731E1	2.159642029E1	1.572204113E1
6.487634234E0	-2.552962303E1	1.204786205E1	8.434699476E-2
6.496037255E0	-6.647261143E0	9.518050194E0	-1.477568030E0
6.504440276E0	6.772286415E0	1.058405304E1	-1.291705513E1
6.512843297E0	1.247916794E1	8.658429146E0	-1.393879032E1
6.521246318E0	9.447462082E0	2.138585329E0	4.167698860E0
6.529649339E0	5.059623718E0	1.194616675E0	9.375677109E0
6.538052359E0	3.324228764E0	6.187241077E0	8.662018180E-1
6.546455380E0	4.249054909E0	1.093938732E1	-4.086941242E0
6.554858401E0	4.655834675E0	1.322991657E1	9.014959335E-1
6.563261422E0	3.252444267E0	1.319761372E1	1.252642632E0
6.571664443E0	9.678967595E-1	1.251924801E1	-1.210768223E0
6.580067464E0	-1.080359459E0	1.089631653E1	-1.067198873E0
6.588470484E0	-1.925624013E0	9.432506561E0	-5.318048596E-1
6.596873505E0	-1.733001828E0	8.734400749E0	1.154536903E-1
6.605276526E0	-7.573283911E-1	8.598010063E0	-6.340979785E-2
6.613679547E0	4.719842672E-1	9.165707588E0	9.332008660E-2
6.622082568E0	9.595218897E-1	9.999606133E0	6.867401004E-1
6.630485589E0	7.537391186E-1	1.045065308E1	4.079762697E-1
6.638888609E0	5.515456200E-1	1.041117096E1	-4.725824669E-2
6.647291630E0	7.585247755E-1	1.023769188E1	-3.786641955E-1
6.655694651E0	1.010369420E0	1.007019424E1	-6.406782866E-1
6.664097672E0	1.067198873E0	9.823135376E0	-6.819544435E-1
6.672500693E0	9.505487680E-1	9.578469276E0	-7.579265833E-1
6.680903714E0	7.674978375E-1	9.445069313E0	-7.070791125E-1
6.689306734E0	6.711867452E-1	9.411569595E0	-5.198407173E-1
6.697709755E0	7.441678643E-1	9.541379929E0	-4.660021961E-1
6.706112776E0	8.913264275E-1	9.710074425E0	-2.033899277E-1
6.714515797E0	1.009172916E0	9.714262009E0	1.615155302E-2
6.722918818E0	1.073779106E0	9.624530792E0	2.751746029E-2
6.731321839E0	1.185643673E0	9.564111710E0	1.196411345E-2
6.739724859E0	1.183250785E0	9.592227936E0	8.973085321E-3
6.748127880E0	1.144367456E0	9.649057388E0	1.064806059E-1
6.756530901E0	1.155733347E0	9.752547264E0	1.399801224E-1
6.764933922E0	1.068395257E0	9.818349838E0	1.441675574E-1
6.773336943E0	7.591229677E-1	9.698708534E0	-1.914258115E-2
6.781739964E0	4.965106845E-1	9.477970123E0	-4.731806815E-1
6.790142984E0	4.689932466E-1	9.396614075E0	-6.251249313E-1
6.798546005E0	6.406782866E-1	9.516854286E0	-3.714857101E-1
6.806949026E0	8.733802438E-1	9.684351921E0	-2.321037948E-1
6.815352047E0	9.696913958E-1	9.834501266E0	-4.426721856E-2
6.823755068E0	8.542376757E-1	9.805189133E0	8.913264424E-2
6.832158089E0	6.179464459E-1	9.583254814E0	-5.443671346E-2
6.840561109E0	4.869394004E-1	9.422337532E0	-1.022931710E-1
6.848964130E0	4.689932466E-1	9.393623352E0	-1.585244983E-1
6.857367151E0	4.815555513E-1	9.432506561E0	-2.237289101E-1
6.865770172E0	4.725824594E-1	9.580264091E0	-1.477568001E-1
6.874173193E0	4.827519655E-1	9.811769485E0	-9.571290761E-2
6.882576214E0	6.203392744E-1	1.006361389E1	-2.709871531E-1
6.890979234E0	8.213363886E-1	1.014377308E1	-5.389832854E-1
6.899382255E0	8.590233326E-1	9.993623734E0	-8.410771489E-1
6.907785276E0	7.322037220E-1	9.731011391E0	-1.045663476E0
6.916188297E0	6.065805554E-1	9.521040916E0	-1.030708313E0
6.924591318E0	5.431707501E-1	9.588040352E0	-9.326026440E-1
6.932994339E0	4.163511395E-1	1.003549862E1	-7.118647099E-1
6.941397359E0	1.603191197E-1	1.112542915E1	-4.289134443E-1
6.949800380E0	-1.304088384E-1	1.340219975E1	-1.328016520E-1
6.958203401E0	-3.595215976E-1	1.567478275E1	-6.119644046E-1
6.966606422E0	-5.922235847E-1	1.567657757E1	-1.173081279E0
6.975009443E0	-5.527420044E-1	1.335733414E1	-1.305882931E0
6.983412464E0	-1.280160099E-1	1.201316643E1	-1.194018483E0
6.991815484E0	-1.866401732E-1	1.200359440E1	-1.060020447E0
7.000218505E0	-1.067797065E0	1.197846985E1	-1.837089539E0
7.008621526E0	-1.140778184E0	1.211067390E1	-2.133201361E0
7.017024547E0	5.563312769E-2	1.228534985E1	-1.623530149E0
7.025427568E0	1.494317770E0	1.216451168E1	-1.348355532E0
7.033830589E0	2.274377823E0	1.179482079E1	-1.022333503E0
7.042233609E0	2.253440619E0	1.144187927E1	-6.831508875E-1
7.050636630E0	1.792224169E0	1.134018517E1	-2.452643216E-1
7.059039651E0	1.143171072E0	1.119781208E1	1.597209126E-1
7.067442672E0	8.715856671E-1	1.076171970E1	-1.016949583E-2
7.075845693E0	1.118644595E0	1.024546814E1	3.774677813E-1
7.084248714E0	1.848455548E0	1.004028416E1	6.687939167E-1
7.092651734E0	2.930609465E0	1.024427223E1	1.068395257E0
7.101054755E0	4.072584152E0	1.069352436E1	1.404586911E0
7.109457776E0	4.686941147E0	1.134078312E1	1.310668588E0
7.117860797E0	3.942773581E0	1.197727394E1	9.678967595E-1
7.126263818E0	1.061216831E0	1.147597694E1	9.122636318E-1
7.134666839E0	-3.241078377E0	9.687940598E0	8.602197170E-1
7.143069859E0	-6.495915413E0	8.167900085E0	-7.866404653E-1
7.151472880E0	-7.216753006E0	7.660023689E0	-2.487339020E0
7.159875901E0	-5.062614441E0	8.115856171E0	-2.237887383E0
7.168278922E0	-1.743171334E0	8.657830238E0	-1.174277663E0
7.176681943E0	1.144367456E0	9.020941734E0	-8.380861282E-1
7.185084964E0	2.790629387E0	9.110671997E0	-9.230313301E-1
7.193487984E0	3.095116138E0	8.924032211E0	-9.834501147E-1
7.201891005E0	2.484348059E0	8.545368195E0	-9.314061999E-1
7.210294026E0	1.491326690E0	8.130811691E0	-9.649057388E-1
7.218697047E0	6.173482537E-1	7.864609718E0	-1.145563841E0
7.227100068E0	1.543370634E-1	7.789834023E0	-1.383649707E0
7.235503089E0	7.537391037E-2	7.850851059E0	-1.487139225E0
7.243906109E0	2.913261652E-1	7.980661869E0	-1.512862086E0
7.252309130E0	6.879364848E-1	8.140382767E0	-1.521835208E0
7.260712151E0	1.042672515E0	8.259425163E0	-1.485942841E0
7.269115172E0	1.266401410E0	8.300702095E0	-1.507478237E0
7.277518193E0	1.311266780E0	8.349156380E0	-1.603789330E0
7.285921214E0	1.186840057E0	8.432905197E0	-1.715055585E0
7.294324234E0	1.026520967E0	8.523234367E0	-1.718644857E0
7.302727255E0	1.034895778E0	8.651848793E0	-1.756929994E0
7.311130276E0	1.271785259E0	8.855836868E0	-1.737189293E0
7.319533297E0	1.750947952E0	9.094520569E0	-1.734796405E0
7.327936318E0	2.386242390E0	9.221340179E0	-1.698305845E0
7.336339339E0	3.304488182E0	9.445069313E0	-1.909472466E0
7.344742359E0	4.361517429E0	9.683753014E0	-1.831107497E0
7.353145380E0	5.313262463E0	9.659226418E0	-1.771885157E0
7.361548401E0	6.221937180E0	9.543772697E0	-1.680957913E0
7.369951422E0	6.951747894E0	9.495318413E0	-1.469791293E0
7.378354443E0	7.235297680E0	9.454640388E0	-1.261615753E0
7.386757464E0	6.985845566E0	9.386445045E0	-1.098903775E0
7.395160484E0	6.303891182E0	9.261420250E0	-1.256231904E0
7.403563505E0	5.403591633E0	9.332606316E0	-1.583450437E0
7.411966526E0	4.403391838E0	9.493523598E0	-1.848455548E0
7.420369547E0	3.354737282E0	9.617352486E0	-2.124826431E0
7.428772568E0	2.225325108E0	9.591629982E0	-1.642672777E0
7.437175589E0	1.775474429E0	9.532406807E0	-6.454638839E-1
7.445578609E0	2.978466034E0	9.574281693E0	-1.417747438E-1
7.453981630E0	5.694917679E0	9.931410789E0	-2.279163599E-1
7.462384651E0	8.693124771E0	1.036929703E1	-3.714857101E-1
7.470787672E0	1.072642612E1	1.035553837E1	-3.014956415E-1
7.479190693E0	1.149272728E1	1.000977516E1	-1.531406492E-1
7.487593714E0	1.101535892E1	9.393025398E0	-1.495514158E-2
7.495996734E0	9.790233612E0	8.606385231E0	-2.410768867E-1
7.504399755E0	8.612366676E0	7.983652592E0	-8.099704385E-1
7.512802776E0	7.879564762E0	7.664809227E0	-1.429711580E0
7.521205797E0	7.779664516E0	7.590033531E0	-1.666002750E0
7.529608818E0	8.918049812E0	9.844670296E0	-1.535593987E0
7.538011839E0	1.001097202E1	1.469552040E1	4.725824594E-1
7.546414859E0	7.962715626E0	2.059801483E1	7.692924738E-1
7.554817880E0	-1.920240164E0	2.370868492E1	6.440880299E0
7.563220901E0	-2.065424728E1	2.009133530E1	9.564710617E0
7.571623922E0	-3.083152008E1	1.167517948E1	-3.768097401E0
7.580026943E0	-1.648475266E1	6.746563435E0	-6.109474182E0
7.588429964E0	2.889333367E-1	8.060222626E0	-9.841081619E0
7.596832984E0	1.278963661E1	9.550353050E0	-7.623532772E0
7.605236005E0	1.605524254E1	6.120840549E0	6.658028960E-1
7.613639026E0	1.055892849E1	3.848855257E0	4.134199142E0
7.622042047E0	6.753143787E0	7.100102901E0	1.161715388E0
7.630445068E0	5.606383324E0	1.119242764E1	-1.817348838E0
7.638848089E0	4.753940582E0	1.338664627E1	5.114658475E-1
7.647251109E0	2.295913219E0	1.262333584E1	8.632107973E-1
7.655654130E0	-1.300499082E0	1.102672482E1	-1.398604870E0
7.664057151E0	-4.585246563E0	9.161520004E0	-1.960319996E0
7.672460172E0	-5.519045353E0	8.009375572E0	-7.645068169E-1
7.680863193E0	-3.367897987E0	8.751749039E0	5.341976285E-1
7.689266214E0	-2.751746178E-1	1.009352398E1	1.086939692E0
7.697669234E0	1.619940877E0	1.058225822E1	1.062413216E0
7.706072255E0	1.699502230E0	1.024427223E1	7.124629617E-1
7.714475276E0	1.147358418E0	9.923035622E0	3.846462369E-1
7.722878297E0	7.040880919E-1	9.793225288E0	3.427718580E-1
7.731281318E0	3.308077157E-1	9.784850121E0	2.937189937E-1
7.739684339E0	1.178465188E-1	9.812367439E0	1.082752272E-1
7.748087359E0	3.008974493E-1	9.778269768E0	6.101697683E-2
7.756490380E0	8.656035662E-1	9.619147301E0	-9.631111473E-2
7.764893401E0	1.348953724E0	9.403194427E0	-2.530409992E-1
7.773296422E0	1.637288928E0	9.337391853E0	-4.301098585E-1
7.781699443E0	1.791027784E0	9.562915802E0	-5.120640397E-1
7.790102464E0	1.749153376E0	9.833903313E0	-4.612165689E-1
7.798505484E0	1.638485312E0	9.897313118E0	-4.857429862E-1
7.806908505E0	1.709073544E0	9.927821159E0	-4.235295951E-1
7.815311526E0	1.908874273E0	9.920642853E0	-3.230310678E-1
7.823714547E0	2.122433662E0	9.726823807E0	-3.014956415E-1
7.832117568E0	2.205584288E0	9.642477036E0	-1.615155339E-1
7.840520589E0	2.133799553E0	9.687342644E0	-1.046859920E-1
7.848923609E0	1.880160451E0	9.752547264E0	-1.651047617E-1
7.857326630E0	1.584048629E0	9.671191216E0	-1.812563092E-1
7.865729651E0	1.407577872E0	9.609575272E0	-1.872383654E-1
7.874132672E0	1.350150228E0	9.620942116E0	-2.416750938E-1
7.882535693E0	1.232901812E0	9.509077072E0	-2.973082066E-1
7.890938714E0	1.057627559E0	9.445667267E0	-3.583251834E-1
7.899341734E0	8.650053740E-1	9.563513756E0	-2.997010350E-1
7.907744755E0	6.215356588E-1	9.691530228E0	-1.878365725E-1
7.916147776E0	3.044866920E-1	9.764511108E0	-2.997010350E-1
7.924550797E0	3.708875179E-2	9.738189697E0	-3.577269912E-1
7.932953818E0	-8.195417374E-2	9.616155624E0	-4.648058116E-1
7.941356839E0	2.811566554E-2	9.410373688E0	-5.647061467E-1
7.949759859E0	3.044866920E-1	9.211769104E0	-5.228317380E-1
7.958162880E0	5.377869010E-1	9.067601204E0	-4.869394004E-1
7.966565901E0	5.090730190E-1	8.922835350E0	-4.546363056E-1
7.974968922E0	1.734796464E-1	8.944969177E0	-2.440679073E-1
7.983371943E0	-3.972085714E-1	9.065208435E0	-2.691925466E-1
7.991774964E0	-9.565308690E-1	9.192028046E0	-4.977070987E-1
8.000177984E0	-1.430907965E0	9.321240425E0	-6.753742099E-1
8.008581005E0	-1.753340840E0	9.398408890E0	-1.107278705E0
8.016984026E0	-1.866401672E0	9.979865074E0	-1.070788145E0
8.025387047E0	-1.743769526E0	1.196531010E1	-5.347958803E-1
8.033790068E0	-1.416550994E0	1.554138279E1	1.405783296E-1
8.042193089E0	-8.691928387E-1	1.850130463E1	-1.148554832E-1
8.050596109E0	-5.090730190E-1	1.784507370E1	-9.924231768E-1
8.058999130E0	-6.149554253E-1	1.438265896E1	-1.472782373E0
8.067402151E0	-3.565305769E-1	1.246301651E1	-2.290529490E0
8.075805172E0	7.956135273E-2	1.258624744E1	-2.175673962E0
8.084208193E0	1.657029688E-1	1.239960670E1	-2.157727718E0
8.092611214E0	1.236491084E0	1.265922832E1	-2.745764017E0
8.101014234E0	3.023331404E0	1.341057491E1	-1.879562140E0
8.109417255E0	4.443471432E0	1.355055428E1	-1.366301775E0
8.117820276E0	4.843072891E0	1.303250885E1	-1.287338614E0
8.126223297E0	3.981656790E0	1.232901859E1	-8.177471161E-1
8.134626318E0	2.655434847E0	1.157109165E1	-2.847459018E-1
8.143029339E0	1.860419631E0	1.089093208E1	-7.836493850E-2
8.151432359E0	1.783251047E0	1.037946606E1	3.960121572E-1
8.159835380E0	2.351546526E0	1.005882835E1	9.708877802E-1
8.168238401E0	3.302095175E0	9.989436150E0	1.432104349E0
8.176641422E0	4.236492634E0	1.049432182E1	1.290329576E0
8.185044443E0	3.529413462E0	1.038903809E1	1.312463164E0
8.193447464E0	8.943174481E-1	9.052047729E0	9.589236975E-1
8.201850484E0	-2.173879385E0	7.465008259E0	-2.416750938E-1
8.210253505E0	-4.146761417E0	6.668796539E0	-2.355733871E0
8.218656526E0	-4.082155228E0	6.817151546E0	-2.897109985E0
8.227059547E0	-2.063211441E0	7.317849636E0	-1.933400750E0
8.235462568E0	6.723831892E-1	7.816154957E0	-1.262812138E0
8.243865589E0	2.745764017E0	8.136195183E0	-1.274178028E0
8.252268609E0	3.597010612E0	8.090731621E0	-1.240080357E0
8.260671630E0	3.393620729E0	7.709076405E0	-1.033101201E0
8.269074651E0	2.511865616E0	7.217351437E0	-9.236295223E-1
8.277477672E0	1.459621787E0	7.043871880E0	-1.138983607E0
8.285880693E0	5.234299302E-1	7.132406235E0	-1.460219979E0
8.294283714E0	-1.555334777E-1	7.321439266E0	-1.632503271E0
8.302686734E0	-3.906283081E-1	7.544569969E0	-1.549950838E0
8.311089755E0	7.657032460E-2	7.880163193E0	-1.438684583E0
8.319492776E0	9.032905698E-1	8.273183823E0	-1.387238979E0
8.327895797E0	1.621137381E0	8.655437469E0	-1.430309772E0
8.336298818E0	1.932204247E0	8.962317467E0	-1.582253933E0
8.344701839E0	1.873580098E0	9.154939651E0	-1.451845169E0
8.353104859E0	1.725225091E0	9.295517921E0	-1.305284739E0
8.361507880E0	1.572084427E0	9.337391853E0	-1.345962763E0
8.369910901E0	1.461416483E0	9.268598557E0	-1.413560033E0
8.378313922E0	1.438684583E0	9.179466248E0	-1.488335729E0
8.386716943E0	1.563709617E0	9.238688469E0	-1.450050473E0
8.395119964E0	1.725823283E0	9.326624870E0	-1.344766378E0
8.403522984E0	1.918445587E0	9.424132347E0	-1.194018483E0
8.411926005E0	2.146361828E0	9.504889488E0	-1.162313581E0
8.420329026E0	2.247458696E0	9.531210899E0	-1.138385415E0
8.428732047E0	2.234896421E0	9.601799011E0	-1.299900889E0
8.437135068E0	2.200200319E0	9.732208252E0	-1.332802176E0
8.445538089E0	2.271386862E0	9.942177773E0	-1.234696507E0
8.453941109E0	2.636890650E0	1.012104130E1	-1.103091240E0
8.462344130E0	3.312862873E0	1.028076267E1	-1.141376376E0
8.470747151E0	4.153341770E0	1.044287586E1	-1.163509965E0
8.479150172E0	4.877170563E0	1.059242725E1	-1.238285661E0
8.487553193E0	5.194219589E0	1.073539925E1	-1.267597795E0
8.495956214E0	5.042873859E0	1.063011456E1	-1.175474167E0
8.504359234E0	4.694717884E0	1.043390274E1	-1.278365493E0
8.512762255E0	4.117449760E0	1.015633583E1	-1.228714466E0
8.521165276E0	3.233301640E0	9.669994354E0	-1.532602906E0
8.529568297E0	2.012363911E0	9.392427444E0	-1.536192179E0
8.537971318E0	8.859425783E-1	9.229715347E0	-4.869394004E-1
8.546374339E0	8.685946465E-1	9.361320496E0	4.187439568E-3
8.554777359E0	2.135594130E0	9.726823807E0	-5.994020700E-1
8.563180380E0	4.172484398E0	1.013599682E1	-1.570888042E0
8.571583401E0	6.319444656E0	1.045543861E1	-2.249851465E0
8.579986422E0	8.116454124E0	1.032682419E1	-2.275574446E0
8.588389443E0	9.229117393E0	9.683753014E0	-1.535593987E0
8.596792464E0	9.521639824E0	8.897710800E0	-9.625129104E-1
8.605195484E0	8.947959900E0	7.993224144E0	-7.130611539E-1
8.613598505E0	8.102097511E0	7.064210415E0	-7.800601721E-1
8.622001526E0	7.714460373E0	6.561717987E0	-1.177268744E0
8.630404547E0	8.066802979E0	6.625127792E0	-1.515254974E0
8.638807568E0	9.104690552E0	7.479365349E0	-2.160718918E0
8.647210589E0	1.006959629E1	9.349954605E0	-2.273181438E0
8.655613609E0	1.059601688E1	1.365583897E1	-2.003988981E0
8.664016630E0	8.668598175E0	1.932862282E1	-1.304088384E-1
8.672419651E0	1.630708575E0	2.253919220E1	4.244269371E0
8.680822672E0	-1.228953743E1	2.078166389E1	1.203111267E1
8.689225693E0	-2.553500748E1	1.424028587E1	2.745165825E0
8.697628714E0	-1.880339813E1	1.035015392E1	-4.269991875E0
8.706031734E0	-5.090131760E0	9.785448074E0	-4.383651257E0
8.714434755E0	5.727818966E0	9.681958199E0	-9.868598938E0
8.722837776E0	1.110269737E1	6.653243542E0	-5.111069202E0
8.731240797E0	1.046142101E1	3.129213810E0	1.525424480E0
8.739643818E0	7.863413334E0	4.997410297E0	2.362314224E0
8.748046839E0	7.125227451E0	9.281759262E0	-7.854440212E-1
8.756449859E0	7.147959232E0	1.253898907E1	-1.416550994E0
8.764852880E0	5.452644825E0	1.364028549E1	1.055234790E0
8.773255901E0	2.383849621E0	1.276869965E1	1.225125194E0
8.781658922E0	-8.392825127E-1	1.122592735E1	-5.473581553E-1
8.790061943E0	-3.426522017E0	9.383454323E0	-1.040279627E0
8.798464964E0	-4.562514782E0	8.103293419E0	2.015953064E-1
8.806867984E0	-3.802793503E0	7.944769382E0	1.115055323E0
8.815271005E0	-1.599003673E0	8.795417786E0	9.326026440E-1
8.823674026E0	6.059823632E-1	9.818947792E0	7.902296782E-1
8.832077047E0	2.036292076E0	1.059242725E1	8.793623447E-1
8.840480068E0	2.536391973E0	1.072881889E1	7.848458290E-1
8.848883089E0	2.386840582E0	1.034357452E1	4.342973232E-1
8.857286109E0	1.923231244E0	1.001216793E1	2.225325108E-1
8.865689130E0	1.303490162E0	9.884152412E0	-1.854437590E-2
8.874092151E0	7.244270444E-1	9.878170013E0	-3.122633696E-1
8.882495172E0	3.756731451E-1	9.698708534E0	-2.865405083E-1
8.890898193E0	3.613162339E-1	9.475577354E0	-3.140579760E-1
8.899301214E0	7.220342159E-1	9.400801659E0	-4.432703853E-1
8.907704234E0	1.232901812E0	9.633503914E0	-3.870390654E-1
8.916107255E0	1.511665702E0	9.916455269E0	-2.673979402E-1
8.924510276E0	1.534397483E0	9.994221687E0	-1.333998591E-1
8.932913297E0	1.443470240E0	9.900901794E0	-4.187439568E-3
8.941316318E0	1.372283816E0	9.740582466E0	-1.495514158E-2
8.949719339E0	1.302293777E0	9.625727654E0	1.016949583E-2
8.958122359E0	1.176670551E0	9.616155624E0	-1.794617064E-2
8.966525380E0	1.081555843E0	9.689137459E0	8.494520187E-2
8.974928401E0	1.097707391E0	9.747162819E0	1.381855011E-1
8.983331422E0	1.107278705E0	9.777671814E0	1.561316848E-1
8.991734443E0	1.005583763E0	9.729815483E0	1.256231815E-1
9.000137464E0	8.368897438E-1	9.610174179E0	7.836493850E-2
9.008540484E0	7.202396393E-1	9.495916367E0	3.050848842E-2
9.016943505E0	6.777670383E-1	9.466006279E0	1.082752272E-1
9.025346526E0	5.898307562E-1	9.513862610E0	2.153540403E-2
9.033749547E0	3.834498227E-1	9.558728218E0	3.469592705E-2
9.042152568E0	2.847459018E-1	9.570692062E0	4.905286431E-2
9.050555589E0	3.978067636E-1	9.573683739E0	3.290131316E-2
9.058958609E0	6.023930907E-1	9.616155624E0	6.221338734E-2
9.067361630E0	7.016952634E-1	9.605986595E0	2.512463741E-2
9.075764651E0	6.155536175E-1	9.564111710E0	-5.383851007E-2
9.084167672E0	4.923232496E-1	9.485149384E0	-2.003988922E-1
9.092570693E0	5.605186820E-1	9.366106033E0	-2.823530734E-1
9.100973714E0	8.512466550E-1	9.347561836E0	-2.087737769E-1
9.109376734E0	1.150947690E0	9.506086349E0	-5.682953820E-2
9.117779755E0	1.225125194E0	9.785448074E0	3.948157281E-2
9.126182776E0	1.013958573E0	1.004626560E1	-6.221338734E-2
9.134585797E0	6.909275651E-1	1.023051357E1	-3.661018610E-1
9.142988818E0	3.493520916E-1	1.030648518E1	-7.214360237E-1
9.151391839E0	7.716853172E-2	1.068036366E1	-9.463613629E-1
9.159794859E0	-1.621137410E-1	1.235414314E1	-7.782655358E-1
9.168197880E0	-4.151547253E-1	1.558206081E1	-1.292124242E-1
9.176600901E0	-5.048855543E-1	1.891945076E1	-1.555334684E-2
9.185003922E0	-1.167697430E0	1.895414543E1	-1.446461320E0
9.193406943E0	-2.053041935E0	1.550489235E1	-2.261815548E0
9.201809964E0	-2.276172638E0	1.299721432E1	-2.595614433E0
9.210212984E0	-2.050648928E0	1.254138184E1	-3.422932863E0
9.218616005E0	-1.339382529E0	1.290329647E1	-3.482753277E0
9.227019026E0	1.746760458E-1	1.385563946E1	-2.755335331E0
9.235422047E0	1.745564103E0	1.481934929E1	-1.956132531E0
9.243825068E0	2.221735716E0	1.493420410E1	-1.207777262E0
9.252228089E0	1.687538147E0	1.412662697E1	-6.550351977E-1
9.260631109E0	5.156532526E-1	1.271127224E1	1.854437590E-1
9.269034130E0	-5.114658475E-1	1.115593719E1	8.398807645E-1
9.277437151E0	-3.858426511E-1	1.013599682E1	8.027920127E-1
9.285840172E0	9.116654396E-1	9.838688850E0	1.056431174E0
9.294243193E0	2.807977438E0	9.900303841E0	2.101496458E0
9.302646214E0	4.710271358E0	1.025503922E1	2.801995277E0
9.311049234E0	5.583651543E0	1.122173977E1	2.815753937E0
9.319452255E0	3.881158352E0	1.160219860E1	2.120639086E0
9.327855276E0	-5.575276613E-1	1.042433167E1	9.750752449E-1
9.336258297E0	-5.483152866E0	8.719446182E0	-4.767699242E-1
9.344661318E0	-8.340183258E0	7.305287361E0	-2.347957134E0
9.353064339E0	-7.306483746E0	6.673582554E0	-2.608774900E0
9.361467359E0	-2.819343328E0	7.063014030E0	-1.453639746E0
9.369870380E0	2.096710920E0	7.974081516E0	-1.146162033E0
9.378273401E0	5.651846886E0	8.885149002E0	-1.456630826E0
9.386676422E0	7.063014030E0	9.244669914E0	-1.271187067E0
9.395079443E0	6.464210510E0	8.717651367E0	-5.688936114E-1
9.403482464E0	4.536791801E0	7.670193195E0	-2.853440940E-1
9.411885484E0	2.282752752E0	6.781259537E0	-8.853443861E-1
9.420288505E0	2.554338276E-1	6.464808464E0	-1.647458434E0
9.428691526E0	-1.281356573E0	6.424130440E0	-1.925624013E0
9.437094547E0	-1.982453585E0	6.577271461E0	-1.765304923E0
9.445497568E0	-1.646261930E0	6.896713257E0	-1.483550072E0
9.453900589E0	-6.861419082E-1	7.144370079E0	-1.295115232E0
9.462303609E0	2.482553422E-1	7.214360237E0	-1.386042476E0
9.470706630E0	8.416753411E-1	7.259823799E0	-1.656431437E0
9.479109651E0	1.129412293E0	7.337590694E0	-1.731207132E0
9.487512672E0	1.328016520E0	7.557730198E0	-1.653440475E0
9.495915693E0	1.545165181E0	7.774878979E0	-1.617548108E0
9.504318714E0	1.764108539E0	7.913662910E0	-1.584646821E0
9.512721734E0	2.035693884E0	8.009973526E0	-1.648056626E0
9.521124755E0	2.392224550E0	8.072187424E0	-1.573879123E0
9.529527776E0	2.891128063E0	8.184051514E0	-1.483550072E0
9.537930797E0	3.533002615E0	8.409575462E0	-1.518844128E0
9.546333818E0	4.319643021E0	8.664410591E0	-1.627717614E0
9.554736839E0	5.204987526E0	9.011968613E0	-1.556531072E0
9.563139859E0	5.947958946E0	9.220144272E0	-1.135394335E0
9.571542880E0	6.434299946E0	9.276973724E0	-8.757730722E-1
9.579945901E0	6.562315941E0	9.200403214E0	-5.958128572E-1
9.588348922E0	6.312266350E0	9.103493690E0	-4.103690982E-1
9.596751943E0	5.700301647E0	9.215357780E0	-4.079762697E-1
9.605154964E0	4.889134884E0	9.571888924E0	-7.405785918E-1
9.613557984E0	3.960121393E0	1.004806042E1	-1.255035520E0
9.621961005E0	2.970689297E0	1.035852909E1	-1.321436286E0
9.630364026E0	2.508276224E0	1.071685410E1	-9.230313301E-1
9.638767047E0	3.450450182E0	1.105125141E1	-4.827519655E-1
9.647170068E0	5.729015827E0	1.120379353E1	-6.897311211E-1
9.655573089E0	8.654839516E0	1.131924725E1	-1.392024517E0
9.663976109E0	1.144606686E1	1.130070305E1	-1.499701619E0
9.672379130E0	1.358345604E1	1.073659515E1	-1.299900889E0
9.680782151E0	1.469970798E1	1.010309505E1	-1.376471281E0
9.689185172E0	1.468535042E1	8.903693199E0	-1.127617717E0
9.697588193E0	1.441017628E1	8.071588516E0	-1.226321608E-1
9.705991214E0	1.422054482E1	8.032107353E0	1.664806366E0
9.714394234E0	1.498565006E1	9.732208252E0	3.028715372E0
9.722797255E0	1.665524292E1	1.683889198E1	1.375274777E0
9.731200276E0	1.255454254E1	2.533640289E1	-7.363911867E-1
9.739603297E0	3.529413342E-1	2.820898628E1	3.525225878E0
9.748006318E0	-2.510788727E1	2.099701881E1	1.177986622E1
9.756409339E0	-3.943012619E1	5.003990173E0	-1.056849957E1
9.764812359E0	-2.183869362E1	1.685743570E0	-1.174756241E1
9.773215380E0	-7.830511928E-1	5.949155331E0	-7.850253105E0
9.781618401E0	1.588774395E1	9.595218658E0	-9.678967595E-1
9.790021422E0	2.081755638E1	7.193423271E0	1.926820397E0
9.798424443E0	1.339322662E1	5.410770416E0	1.536790371E0
9.806827464E0	8.662615776E0	8.410771370E0	2.991028363E-3
9.815230484E0	6.579664230E0	1.187737370E1	-1.256231871E-2
9.823633505E0	3.626920938E0	1.348714447E1	7.752745152E-1
9.832036526E0	-2.985046208E-1	1.353201008E1	-1.368096352E0
9.840439547E0	-4.031308174E0	1.163031483E1	-1.881955028E0
9.848842568E0	-5.429912567E0	9.031110764E0	-4.283152521E-1
9.857245589E0	-3.974478483E0	7.815557003E0	1.654038668E0
9.865648609E0	-1.220937729E0	8.138587952E0	1.689931035E0
9.874051630E0	6.418746710E-1	9.047860146E0	1.490728498E0
9.882454651E0	1.549950838E0	9.850054741E0	8.446664214E-1
9.890857672E0	2.222932339E0	1.067797089E1	1.477568001E-1
9.899260693E0	2.674577475E0	1.106979561E1	2.147558331E-1
9.907663714E0	2.435295343E0	1.070489025E1	1.142572835E-1
9.916066734E0	1.549352646E0	1.004985523E1	-6.221338734E-2
9.924469755E0	6.281159520E-1	9.698708534E0	-1.465603858E-1
9.932872776E0	1.046859920E-1	9.676574707E0	-2.428714931E-1
9.941275797E0	-1.280160099E-1	9.550353050E0	-3.176472187E-1
9.949678818E0	-4.785645287E-3	9.410373688E0	-2.392822653E-1
9.958081839E0	4.516452849E-1	9.553942680E0	-2.632104978E-2
9.966484859E0	9.086744189E-1	9.807581902E0	7.058826834E-2
9.974887880E0	1.119242787E0	9.893723488E0	1.788634956E-1
9.983290901E0	1.095912814E0	9.768698692E0	1.124626622E-1
9.991693922E0	9.469595551E-1	9.606584549E0	6.460621208E-2
1.000009694E1	7.184450030E-1	9.567701340E0	4.905286431E-2
1.000849996E1	4.821537733E-1	9.659226418E0	1.974078640E-2
1.001690298E1	3.379862010E-1	9.753743172E0	-1.220339537E-1
1.002530601E1	3.020938635E-1	9.753743172E0	-1.525424421E-1
1.003370903E1	3.158525825E-1	9.631111145E0	-1.316052526E-1
1.004211205E1	4.731806815E-1	9.498908043E0	3.948157281E-2
1.005051507E1	7.633104324E-1	9.541379929E0	2.027917206E-1
1.005891809E1	9.146564603E-1	9.625128746E0	2.141576260E-1
1.006732111E1	8.536394835E-1	9.625128746E0	2.087737769E-1
1.007572413E1	6.825526357E-1	9.571290970E0	1.860419661E-1
1.008412715E1	6.125625968E-1	9.617352486E0	1.746760458E-1
1.009253017E1	6.574280262E-1	9.739386559E0	1.902294010E-1
1.010093319E1	7.274180651E-1	9.779465675E0	5.623133108E-2
1.010933621E1	7.992027402E-1	9.690333366E0	-4.606183618E-2
1.011773923E1	8.452646136E-1	9.570692062E0	-1.310070455E-1
1.012614226E1	8.757730722E-1	9.533005714E0	-1.274178028E-1
1.013454528E1	8.524430394E-1	9.589237213E0	-1.112662554E-1
1.014294830E1	7.740781307E-1	9.667601585E0	-8.733802289E-2
1.015135132E1	7.298108935E-1	9.592825890E0	-1.226321608E-1
1.015975434E1	8.249256015E-1	9.473783493E0	-1.884347796E-1
1.016815736E1	1.031306505E0	9.248259544E0	-2.099701911E-1
1.017656038E1	1.308275819E0	9.148957253E0	-1.178465188E-1
1.018496340E1	1.624726534E0	9.421739578E0	1.256231815E-1
1.019336642E1	1.738983870E0	9.941579819E0	1.286142170E-1
1.020176944E1	1.465005636E0	1.036630630E1	-1.752742529E-1
1.021017246E1	9.415757060E-1	1.057866859E1	-5.300102234E-1
1.021857548E1	5.425725579E-1	1.074676514E1	-9.565308690E-1
1.022697850E1	3.463610709E-1	1.110449123E1	-1.130608678E0
1.023538153E1	3.224328458E-1	1.175653553E1	-9.984052777E-1
1.024378455E1	4.067798555E-1	1.293320656E1	-8.590233326E-1
1.025218757E1	4.827519655E-1	1.497069454E1	-5.718846321E-1
1.026059059E1	4.486542344E-1	1.757887077E1	-8.668000102E-1
1.026899361E1	-4.486542568E-2	1.835115433E1	-1.453041553E0
1.027739663E1	-7.824530005E-1	1.623948860E1	-1.740180254E0
1.028579965E1	-9.535398483E-1	1.363250923E1	-2.267797709E0
1.029420267E1	-4.929214716E-1	1.255872917E1	-2.982653379E0
1.030260569E1	1.483550072E-1	1.255932808E1	-2.760719061E0
1.031100871E1	6.891329288E-1	1.323290730E1	-2.124228239E0
1.031941173E1	7.405785918E-1	1.392084408E1	-1.150349498E0
1.032781476E1	5.162515044E-1	1.355294704E1	-1.621137410E-1
1.033621778E1	7.256234884E-1	1.242473125E1	5.718846321E-1
1.034462080E1	1.507478237E0	1.131745243E1	1.007378340E0
1.035302382E1	2.273779631E0	1.049910736E1	1.778465390E0
1.036142684E1	3.072384357E0	9.698708534E0	2.451446772E0
1.036982986E1	4.308277130E0	9.348757744E0	3.087937593E0
1.037823288E1	5.897111416E0	9.502496719E0	3.826123476E0
1.038663590E1	6.972086906E0	1.066062355E1	3.050848961E0
1.039503892E1	5.348556995E0	1.161236858E1	2.320439816E0
1.040344194E1	6.197410822E-1	1.070847988E1	2.288734913E0
1.041184496E1	-6.087340832E0	8.071588516E0	2.252842426E0
1.042024798E1	-1.120738316E1	5.276772022E0	-7.782655358E-1
1.042865100E1	-1.106321526E1	4.249054909E0	-3.547957659E0
1.043705403E1	-6.059823513E0	5.391627789E0	-3.262015581E0
1.044545705E1	5.150550604E-1	7.224529743E0	-1.816152334E0
1.045386007E1	5.937191010E0	8.626724243E0	-1.784447432E0
1.046226309E1	8.833105087E0	9.469595909E0	-1.846660852E0
1.047066611E1	9.413962364E0	9.429515839E0	-1.046859860E0
1.047906913E1	8.476573944E0	8.730812073E0	-4.546362907E-2
1.048747215E1	7.061817646E0	8.062017441E0	4.845465720E-2
1.049587517E1	5.577071190E0	7.811967850E0	-8.434699774E-1
1.050427819E1	3.963112593E0	7.807182312E0	-1.683948994E0
1.051268121E1	2.336591244E0	7.792226791E0	-1.846062660E0
1.052108423E1	8.997012973E-1	7.698906898E0	-1.537986755E0
1.052948726E1	-5.264209956E-2	7.565506935E0	-1.268195987E0
1.053789028E1	-2.003988922E-1	7.490731239E0	-1.226321578E0
1.054629330E1	2.901297510E-1	7.543373585E0	-1.251446247E0
1.055469632E1	1.068993568E0	7.629515171E0	-1.265205026E0
1.056309934E1	1.784447432E0	7.761120319E0	-1.168893814E0
1.057150236E1	2.230110645E0	7.926823139E0	-9.499505758E-1
1.057990538E1	2.489732027E0	8.057829857E0	-9.236295223E-1
1.058830840E1	2.783450842E0	8.182256699E0	-1.123430252E0
1.059671142E1	3.235694408E0	8.223533630E0	-1.227517962E0
1.060511444E1	3.875176191E0	8.136195183E0	-1.216152072E0
1.061351746E1	4.668396950E0	7.987840176E0	-1.079162955E0
1.062192048E1	5.541777134E0	7.928019524E0	-1.117448211E0
1.063032350E1	6.216553211E0	7.913662910E0	-1.171884894E0
1.063872653E1	6.537789822E0	7.750950813E0	-1.112662554E0
1.064712955E1	6.471987247E0	7.473383427E0	-1.092323542E0
1.065553257E1	6.175277233E0	7.282555580E0	-1.200000525E0
1.066393559E1	5.725426197E0	7.164709091E0	-1.266999602E0
1.067233861E1	5.327619553E0	7.172485828E0	-1.214955688E0
1.068074163E1	5.034498692E0	7.250252724E0	-1.037288666E0
1.068914465E1	4.797609329E0	7.336992264E0	-8.327022791E-1
1.069754767E1	4.372883320E0	7.475177765E0	-6.675975323E-1
1.070595069E1	3.814159393E0	7.788039684E0	-6.921239495E-1
1.071435371E1	3.205784082E0	8.385646820E0	-9.816554785E-1
1.072275673E1	2.648854733E0	9.196813583E0	-1.027119160E0
1.073115976E1	2.571686029E0	1.010249710E1	-7.639086246E-1
1.073956278E1	3.576073408E0	1.117567825E1	-5.808576941E-1
1.074796580E1	5.840281963E0	1.218365479E1	-4.456632137E-1
1.075636882E1	8.571090698E0	1.250189972E1	-2.985046208E-1
1.076477184E1	1.096211910E1	1.197488117E1	-2.291127741E-1
1.077317486E1	1.235414314E1	1.096271706E1	-3.218346536E-1
1.078157788E1	1.237627697E1	9.800403595E0	-5.132604837E-1
1.078998090E1	1.155494022E1	8.885149002E0	-8.757730722E-1
1.079838392E1	1.049133110E1	8.321639061E0	-1.121635556E0
1.080678694E1	9.683155060E0	7.893921852E0	-1.384846091E0
1.081518996E1	9.424730301E0	7.741977692E0	-1.831705689E0
1.082359298E1	9.982855797E0	8.184649467E0	-1.445863128E0
1.083199600E1	1.237567902E1	1.077966595E1	-6.640082598E-2
1.084039903E1	1.335613823E1	1.834636879E1	-2.018944025E0
1.084880205E1	7.324429989E0	2.574078941E1	-1.824527264E0
1.085720507E1	-7.496713161E0	2.793979454E1	9.937392235E0
1.086560809E1	-3.058805084E1	1.809930992E1	5.568696499E0
1.087401111E1	-2.926362228E1	7.709076405E0	-6.080760479E0
1.088241413E1	-9.683753014E0	6.996613503E0	-8.717651367E0
1.089081715E1	6.316453457E0	9.277571678E0	-8.891729355E0
1.089922017E1	1.538405514E1	7.587042332E0	7.214360237E-1
1.090762319E1	1.343210983E1	3.023929596E0	3.617947817E0
1.091602621E1	7.278966427E0	4.558925152E0	2.187638044E0
1.092442923E1	5.787639618E0	9.027522087E0	-4.372883439E-1
1.093283226E1	6.031109333E0	1.228893852E1	7.890332937E-1
1.094123528E1	4.770689964E0	1.362114334E1	1.514058471E0
1.094963830E1	1.427318692E0	1.288176060E1	-5.180460811E-1
1.095804132E1	-2.380858421E0	1.067617607E1	-1.209571838E0
1.096644434E1	-4.769493580E0	8.839685440E0	-9.744769931E-1
1.097484736E1	-5.048855782E0	7.913064480E0	-1.794617064E-2
1.098325038E1	-3.336193085E0	8.382656097E0	9.978070259E-1
1.099165340E1	-9.583254457E-1	9.529416084E0	1.451246977E0
1.100005642E1	4.612165689E-1	1.025623608E1	1.914856315E0
1.100845944E1	9.379864931E-1	1.034058285E1	1.276570916E0
1.101686246E1	1.005583763E0	1.004865837E1	8.416753411E-1
1.102526548E1	8.321040869E-1	9.802796364E0	6.071787477E-1
1.103366851E1	4.516452849E-1	9.809376717E0	6.221339107E-1
1.104207153E1	7.357929647E-2	9.956535339E0	3.750749528E-1
1.105047455E1	-3.948157281E-2	1.005942631E1	1.692921966E-1
1.105887757E1	-5.742774159E-2	9.955338478E0	1.256231815E-1
1.106728059E1	-1.166501045E-1	9.711869240E0	-2.075773627E-1
1.107568361E1	3.409772366E-2	9.549157143E0	-3.702892959E-1
1.108408663E1	5.718846321E-1	9.658628464E0	-5.210371017E-1
1.109248965E1	1.133599758E0	9.814162254E0	-3.810569942E-1
1.110089267E1	1.574477315E0	9.891928673E0	-1.956132501E-1
1.110929569E1	1.948953986E0	9.832108498E0	-3.948157281E-2
1.111769871E1	2.170888424E0	9.768698692E0	2.931207791E-2
1.112610173E1	2.093121529E0	9.656833649E0	1.339980662E-1
1.113450476E1	1.794616938E0	9.535996437E0	8.075776696E-2
1.114290778E1	1.534995675E0	9.570692062E0	1.992024779E-1
1.115131080E1	1.442273855E0	9.641280174E0	2.781656384E-1
1.115971382E1	1.463809252E0	9.704689980E0	2.333002090E-1
1.116811684E1	1.466202021E0	9.719645500E0	2.530409992E-1
1.117651986E1	1.482951880E0	9.650852203E0	1.776670814E-1
1.118492288E1	1.579861164E0	9.524032593E0	1.040877849E-1
1.119332590E1	1.725823283E0	9.432506561E0	6.340979785E-2
1.120172892E1	1.835294962E0	9.452247620E0	6.221338734E-2
1.121013194E1	1.785643935E0	9.514460564E0	1.591227055E-1
1.121853496E1	1.685145378E0	9.533005714E0	2.279163599E-1
1.122693798E1	1.725225091E0	9.562915802E0	1.944168359E-1
1.123534100E1	1.735394597E0	9.608379364E0	2.225325108E-1
1.124374403E1	1.704287887E0	9.607781410E0	2.165504545E-1
1.125214705E1	1.668993831E0	9.605986595E0	2.715853751E-1
1.126055007E1	1.723430514E0	9.602995872E0	2.799602449E-1
1.126895309E1	1.804188251E0	9.601201057E0	1.525424421E-1
1.127735611E1	1.852642894E0	9.552745819E0	7.597211748E-2
1.128575913E1	1.929213285E0	9.471988678E0	-2.991028316E-2
1.129416215E1	2.003988981E0	9.462417603E0	5.144568533E-2
1.130256517E1	2.058425665E0	9.457033157E0	-3.110669367E-2
1.131096819E1	2.045265198E0	9.394221306E0	5.862415582E-2
1.131937121E1	1.984248161E0	9.391828537E0	1.692921966E-1
1.132777423E1	1.862214208E0	9.582656860E0	1.100698411E-1
1.133617726E1	1.658824325E0	9.962516785E0	-3.828516230E-2
1.134458028E1	1.450050473E0	1.031246758E1	-2.231307179E-1
1.135298330E1	1.295115232E0	1.045962620E1	-5.240281820E-1
1.136138632E1	1.329213023E0	1.038784122E1	-6.514459848E-1
1.136978934E1	1.493121386E0	1.028255749E1	-7.423732281E-1
1.137819236E1	1.662413478E0	1.024666500E1	-8.225327730E-1
1.138659538E1	1.763510346E0	1.033220863E1	-8.913264275E-1
1.139499840E1	1.663609982E0	1.049491978E1	-8.596215248E-1
1.140340142E1	1.358525038E0	1.085503960E1	-7.944171429E-1
1.141180444E1	1.017547846E0	1.224885941E1	-1.501496136E-1
1.142020746E1	6.909275651E-1	1.484267902E1	-1.130608693E-1
1.142861048E1	1.345962733E-1	1.697587967E1	-6.855437160E-1
1.143701351E1	-7.734799385E-1	1.681257057E1	-8.327022791E-1
1.144541653E1	-1.427318692E0	1.535354614E1	-1.480558991E0
1.145381955E1	-1.422533035E0	1.430249882E1	-1.884945989E0
1.146222257E1	-8.410771489E-1	1.368215942E1	-2.061416626E0
1.147062559E1	1.172483116E-1	1.348654652E1	-2.050050735E0
1.147902861E1	9.397810698E-1	1.341356564E1	-1.673779488E0
1.148743163E1	1.143171072E0	1.341835117E1	-1.071386337E0
1.149583465E1	5.605186820E-1	1.312941742E1	1.034895778E-1
1.150423767E1	-1.722832322E-1	1.190070343E1	9.744769931E-1
1.151264069E1	-1.196411327E-1	1.061037350E1	1.227517962E0
1.152104371E1	8.087740541E-1	9.796216011E0	1.605584025E0
1.152944673E1	2.219342947E0	9.252447128E0	2.130210400E0
1.153784976E1	3.934398651E0	9.038887978E0	2.312663078E0
1.154625278E1	5.670391560E0	9.234500885E0	2.491526604E0
1.155465580E1	6.943971157E0	9.607781410E0	2.334796667E0
1.156305882E1	6.710670948E0	1.019462109E1	1.994417667E0
1.157146184E1	4.298107624E0	9.875179291E0	2.047059774E0
1.157986486E1	1.082752272E-1	8.262416840E0	2.075175524E0
1.158826788E1	-4.511667252E0	6.037091732E0	9.888339639E-1
1.159667090E1	-7.256833076E0	4.499104977E0	-1.546361685E0
1.160507392E1	-6.476772785E0	4.473381996E0	-3.355933666E0
1.161347694E1	-2.428116798E0	5.709274769E0	-2.886342287E0
1.162187996E1	2.458625317E0	7.020541668E0	-1.789233088E0
1.163028298E1	6.424728870E0	7.983652592E0	-1.622333765E0
1.163868600E1	8.669795036E0	8.481359482E0	-1.584646821E0
1.164708903E1	9.036494255E0	8.378468513E0	-9.906286001E-1
1.165549205E1	8.048258781E0	7.826922894E0	-3.631108403E-1
1.166389507E1	6.466004848E0	7.240681171E0	-4.301098585E-1
1.167229809E1	4.809573650E0	6.899106026E0	-1.073779106E0
1.168070111E1	3.164507866E0	6.873383045E0	-1.605584025E0
1.168910413E1	1.642672777E0	7.043871880E0	-1.797009826E0
1.169750715E1	3.984049559E-1	7.251449108E0	-1.809572101E0
1.170591017E1	-3.062812984E-1	7.486543655E0	-1.594816327E0
1.171431319E1	-2.279163599E-1	7.747361660E0	-1.339382529E0
1.172271621E1	4.875376225E-1	8.078168869E0	-1.269990563E0
1.173111923E1	1.378864050E0	8.396414757E0	-1.214357495E0
1.173952226E1	1.841875196E0	8.572885513E0	-1.024128079E0
1.174792528E1	1.883749604E0	8.679964066E0	-9.565308690E-1
1.175632830E1	1.757528186E0	8.895915985E0	-1.058824062E0
1.176473132E1	1.798206210E0	9.145966530E0	-1.204187989E0
1.177313434E1	2.199003935E0	9.280562401E0	-1.277767301E0
1.178153736E1	2.818745136E0	9.212367058E0	-1.184447169E0
1.178994038E1	3.625126362E0	9.142974854E0	-1.067198873E0
1.179834340E1	4.412364960E0	9.209974289E0	-1.000199914E0
1.180674642E1	4.963312149E0	9.259625435E0	-9.870393276E-1
1.181514944E1	5.237888813E0	9.285946846E0	-9.822536707E-1
1.182355246E1	5.289932728E0	9.234500885E0	-1.018146038E0
1.183195548E1	5.167898655E0	9.074779510E0	-9.553344250E-1
1.184035851E1	5.021936417E0	8.933005333E0	-1.058225870E0
1.184876153E1	4.834698200E0	8.892327309E0	-1.330409408E0
1.185716455E1	4.640879631E0	8.959924698E0	-1.405783296E0
1.186556757E1	4.442275047E0	8.933603287E0	-1.174875975E0
1.187397059E1	4.314857483E0	8.944371223E0	-8.309076428E-1
1.188237361E1	4.137788773E0	8.865407944E0	-8.045865893E-1
1.189077663E1	3.669393539E0	8.968897820E0	-1.070189953E0
1.189917965E1	2.847458839E0	9.018548965E0	-1.171884894E0
1.190758267E1	1.977667928E0	9.297910690E0	-1.613958836E0
1.191598569E1	1.170090318E0	9.681958199E0	-1.671984792E0
1.192438871E1	1.111466169E0	9.975677490E0	-1.119242787E0
1.193279173E1	2.485544443E0	1.014556789E1	-8.135597110E-1
1.194119476E1	4.730610371E0	1.021496010E1	-7.088736892E-1
1.194959778E1	7.144968510E0	1.057208824E1	-1.155733347E0
1.195800080E1	9.040083885E0	1.086999512E1	-1.599601984E0
1.196640382E1	1.047936630E1	1.063250732E1	-1.625923038E0
1.197480684E1	1.125583744E1	1.008395290E1	-1.173081279E0
1.198320986E1	1.058225822E1	9.022137642E0	-5.371887088E-1
1.199161288E1	9.208778381E0	8.035696983E0	-4.175475538E-1
1.200001590E1	8.723034859E0	8.520243645E0	-1.442273855E0
1.200841892E1	1.019103146E1	1.010788059E1	-1.650449395E0
1.201682194E1	1.388674641E1	1.508315754E1	-1.757528186E0
1.202522496E1	1.502872086E1	2.054597092E1	2.733799815E-1
1.203362798E1	9.265008926E0	2.205285263E1	7.298108935E-1
1.204203100E1	-3.285345554E0	1.880339813E1	8.041678429E0
1.205043403E1	-1.932264137E1	1.096929741E1	4.795216560E0
1.205883705E1	-2.407179642E1	5.365306377E0	-6.246463299E0
1.206724007E1	-1.356730461E1	6.366104603E0	-7.399205685E0
1.207564309E1	-6.909275651E-1	9.247661591E0	-6.025725842E0
1.208404611E1	9.297910690E0	9.709476471E0	5.312066078E-1
1.209244913E1	1.236132145E1	6.975676060E0	1.922034740E0
1.210085215E1	9.459425926E0	6.702894211E0	2.691925503E-2
1.210925517E1	7.814360619E0	9.000003815E0	-1.008574724E0
1.211765819E1	7.338188648E0	1.110389328E1	-1.007378340E0
1.212606121E1	6.195017815E0	1.241635704E1	1.722832322E-1
1.213446423E1	3.463610888E0	1.247378445E1	-9.625129104E-1
1.214286726E1	8.554340899E-2	1.125823021E1	-1.625324726E0
1.215127028E1	-2.988037348E0	9.624530792E0	-1.234696507E0
1.215967330E1	-4.968098164E0	8.477172852E0	-6.059823632E-1
1.216807632E1	-5.087738991E0	8.217551231E0	-3.475574851E-1
1.217647934E1	-3.209971666E0	9.020941734E0	1.160518974E-1
1.218488236E1	-4.959124923E-1	1.020299530E1	8.614161611E-1
1.219328538E1	1.618744493E0	1.073180962E1	1.031306505E0
1.220168840E1	2.742174864E0	1.051466084E1	1.498505235E0
1.221009142E1	2.838485956E0	9.978070259E0	1.659422517E0
1.221849444E1	1.969292998E0	9.528818130E0	1.432702541E0
1.222689746E1	7.328019142E-1	9.372088432E0	7.944171429E-1
1.223530048E1	-6.520441920E-2	9.491130829E0	2.213360965E-1
1.224370351E1	-1.884347796E-1	9.660423279E0	1.663011760E-1
1.225210653E1	2.039881349E-1	9.661021233E0	9.631111473E-2
1.226050955E1	8.482556343E-1	9.693324089E0	4.426721856E-2
1.226891257E1	1.490728498E0	9.852447510E0	-8.913264424E-2
1.227731559E1	1.919043779E0	1.004985523E1	-2.428714931E-1
1.228571861E1	2.029113531E0	1.011206818E1	-3.996013701E-1
1.229412163E1	1.852044702E0	1.001755238E1	-4.935196638E-1
1.230252465E1	1.604985833E0	9.854242325E0	-4.336991012E-1
1.231092767E1	1.509871125E0	9.713663101E0	-2.584248483E-1
1.231933069E1	1.535593987E0	9.665208817E0	-8.554340899E-2
1.232773371E1	1.551745534E0	9.728618622E0	3.828516230E-2
1.233613673E1	1.538584948E0	9.747760773E0	1.710868180E-1
1.234453976E1	1.469193101E0	9.755537987E0	3.373879790E-1
1.235294278E1	1.277169108E0	9.700503349E0	3.924229145E-1
1.236134580E1	9.798609018E-1	9.642477036E0	4.749752879E-1
1.236974882E1	6.999006271E-1	9.602396965E0	3.020938635E-1
1.237815184E1	5.324030519E-1	9.584450722E0	1.118644550E-1
1.238655486E1	5.910272002E-1	9.634700775E0	1.160518974E-1
1.239495788E1	8.620143533E-1	9.726823807E0	3.649054468E-2
1.240336090E1	1.106082320E0	9.747760773E0	2.333002165E-2
1.241176392E1	1.259222865E0	9.761520386E0	3.589233849E-3
1.242016694E1	1.313061476E0	9.771689415E0	-3.170489892E-2
1.242856996E1	1.211964726E0	9.704092026E0	-3.469592705E-2
1.243697298E1	1.044467092E0	9.655039787E0	-2.632104978E-2
1.244537600E1	8.590233326E-1	9.715457916E0	-1.016949583E-2
1.245377903E1	6.921239495E-1	9.772886276E0	7.357929647E-2
1.246218205E1	6.119644046E-1	9.815957069E0	1.196411327E-1
1.247058507E1	6.370890141E-1	9.813564301E0	4.725824669E-2
1.247898809E1	7.686942816E-1	9.752547264E0	2.512463741E-2
1.248739111E1	1.109671474E0	9.724431038E0	-3.589234129E-2
1.249579413E1	1.389631748E0	9.726225853E0	-2.392822644E-3
1.250419715E1	1.396211982E0	9.691530228E0	1.286142170E-1
1.251260017E1	1.193420291E0	9.734601021E0	2.368894368E-1
1.252100319E1	9.343972206E-1	1.003609657E1	2.548356056E-1
1.252940621E1	6.400800347E-1	1.039202881E1	5.144568533E-2
1.253780923E1	4.241278172E-1	1.061994553E1	-2.931207716E-1
1.254621226E1	3.840480447E-1	1.072522926E1	-6.717849374E-1
1.255461528E1	5.587241054E-1	1.098544884E1	-9.314061999E-1
1.256301830E1	6.927221417E-1	1.163809109E1	-1.295713425E0
1.257142132E1	6.023930907E-1	1.298943806E1	-1.701895118E0
1.257982434E1	2.225325108E-1	1.515314770E1	-1.764108539E0
1.258822736E1	-2.464607358E-1	1.773141479E1	-2.392822742E0
1.259663038E1	-1.084546804E0	1.850010872E1	-2.984447956E0
1.260503340E1	-2.018345833E0	1.641117477E1	-3.165704250E0
1.261343642E1	-2.254637241E0	1.405543995E1	-3.067000389E0
1.262183944E1	-1.863410592E0	1.335015583E1	-2.625524759E0
1.263024246E1	-1.089930773E0	1.384606838E1	-2.000998020E0
1.263864548E1	-9.708877802E-1	1.430249882E1	-9.128618240E-1
1.264704850E1	-1.255633712E0	1.394596863E1	1.286142170E-1
1.265545153E1	-1.104885817E0	1.298225880E1	1.377667665E0
1.266385455E1	-1.549352705E-1	1.134437180E1	2.296511650E0
1.267225757E1	1.797608018E0	9.969695091E0	2.700898647E0
1.268066059E1	3.715455294E0	8.924630165E0	3.525225878E0
1.268906361E1	5.452644825E0	7.981858253E0	4.215555191E0
1.269746663E1	7.315456867E0	7.715058327E0	4.460221291E0
1.270586965E1	9.165108681E0	8.573483467E0	3.927220106E0
1.271427267E1	9.500103951E0	1.004985523E1	3.221337557E0
1.272267569E1	6.370890141E0	1.007079220E1	2.997010469E0
1.273107871E1	4.767699242E-1	8.547760963E0	2.838485956E0
1.273948173E1	-5.972485542E0	6.326025009E0	4.713860750E-1
1.274788476E1	-1.070847988E1	4.364508629E0	-3.281157970E0
1.275628778E1	-1.090708351E1	3.751945972E0	-5.547161102E0
1.276469080E1	-5.758327484E0	4.814359188E0	-4.300500393E0
1.277309382E1	1.503290772E0	6.753143787E0	-2.927020311E0
1.278149684E1	8.232506752E0	8.861220360E0	-2.900100946E0
1.278989986E1	1.220638657E1	1.034716320E1	-2.416152716E0
1.279830288E1	1.290748310E1	1.021316528E1	-1.004387259E0
1.280670590E1	1.114576817E1	8.986844063E0	1.764706671E-1
1.281510892E1	8.185248375E0	7.658827305E0	1.435693651E-1
1.282351194E1	5.339583874E0	6.937391281E0	-8.542376757E-1
1.283191496E1	2.513062000E0	6.613163471E0	-1.674377680E0
1.284031798E1	-2.165504545E-1	6.559923172E0	-2.059023857E0
1.284872101E1	-2.665604353E0	6.656832695E0	-2.075175524E0
1.285712403E1	-4.165306091E0	6.788437843E0	-1.788634896E0
1.286552705E1	-4.033700943E0	7.035496712E0	-1.453041553E0
1.287393007E1	-2.212762833E0	7.580461979E0	-1.223928809E0
1.288233309E1	2.859423161E-1	8.279166222E0	-1.238285661E0
1.289073611E1	2.319841623E0	8.867202759E0	-1.360917926E0
1.289913913E1	3.403192043E0	9.204590797E0	-1.269392371E0
1.290754215E1	3.650250912E0	9.323035240E0	-1.133001566E0
1.291594517E1	3.467200041E0	9.328418732E0	-1.259821177E0
1.292434819E1	3.273381472E0	9.319445610E0	-1.399801254E0
1.293275121E1	3.263810158E0	9.201001167E0	-1.566700578E0
1.294115423E1	3.433700562E0	9.005388260E0	-1.561915040E0
1.294955726E1	3.887140274E0	8.893523216E0	-1.715055585E0
1.295796028E1	4.532604218E0	8.863015175E0	-1.668395638E0
1.296636330E1	5.036293507E0	8.802596092E0	-1.602592945E0
1.297476632E1	5.146961689E0	8.688339233E0	-1.649851203E0
1.298316934E1	4.612165451E0	8.379066467E0	-1.499103427E0
1.299157236E1	3.741776466E0	8.104490280E0	-1.380060434E0
1.299997538E1	2.958127022E0	8.002795219E0	-1.386042476E0
1.300837840E1	2.598007202E0	8.197212219E0	-1.584646821E0
1.301678142E1	2.679961443E0	8.486145973E0	-1.665404558E0
1.302518444E1	3.113062143E0	8.793025017E0	-1.658824325E0
1.303358746E1	3.770490170E0	9.162715912E0	-1.711466432E0
1.304199048E1	4.411168575E0	9.524032593E0	-1.718644857E0
1.305039350E1	4.773082733E0	9.777072906E0	-1.757528186E0
1.305879653E1	4.776672363E0	9.888339996E0	-1.746162295E0
1.306719955E1	4.325624943E0	9.869196892E0	-1.637288928E0
1.307560257E1	3.564707518E0	9.811769485E0	-1.797009826E0
1.308400559E1	2.544766903E0	9.964311600E0	-2.402393818E0
1.309240861E1	1.392024517E0	1.032981491E1	-2.450848579E0
1.310081163E1	9.792626500E-1	1.064746284E1	-2.051845312E0
1.310921465E1	1.792224169E0	1.071147060E1	-1.654636860E0
1.311761767E1	3.681955814E0	1.060439205E1	-1.520638824E0
1.312602069E1	5.837290764E0	1.045184898E1	-1.692921996E0
1.313442371E1	7.467999458E0	1.024905777E1	-2.017747641E0
1.314282673E1	8.530412674E0	9.997811317E0	-2.221137524E0
1.315122976E1	8.974281311E0	9.583852768E0	-1.811366796E0
1.315963278E1	9.069993973E0	9.019744873E0	-1.564906001E0
1.316803580E1	9.120841980E0	8.848059654E0	-1.840080619E0
1.317643882E1	9.509675026E0	9.256035805E0	-2.146361828E0
1.318484184E1	1.164826107E1	1.145264721E1	-1.804188251E0
1.319324486E1	1.509512138E1	1.933939171E1	-2.236690998E0
1.320164788E1	1.357268810E1	2.628754997E1	3.655036688E-1
1.321005090E1	4.223331928E0	2.712144852E1	7.334001541E0
1.321845392E1	-1.423131275E1	1.952124596E1	1.437009621E1
1.322685694E1	-2.846920586E1	6.559325218E0	8.662018180E-1
1.323525996E1	-2.124647141E1	1.825125456E0	-6.220740795E0
1.324366298E1	-7.424928665E0	4.744967461E0	-9.044869423E0
1.325206601E1	3.823730469E0	6.920641422E0	-6.121438503E0
1.326046903E1	1.207119179E1	5.685346603E0	4.162913322E0
1.326887205E1	1.463928890E1	4.688137531E0	6.375676155E0
1.327727507E1	1.267358494E1	7.445267677E0	8.201399446E-1
1.328567809E1	1.157288647E1	9.871589661E0	-1.532602906E0
1.329408111E1	9.280562401E0	1.088913727E1	2.356930375E-1
1.330248413E1	5.705087185E0	1.207717419E1	-5.796613097E-1
1.331088715E1	1.682752490E0	1.379222965E1	-2.228914261E0
1.331929017E1	-2.362912416E0	1.374556923E1	-2.282752752E0
1.332769319E1	-5.445466042E0	1.167637634E1	-1.771286964E0
1.333609621E1	-6.355935097E0	8.933005333E0	-1.280160069E0
1.334449923E1	-4.572085857E0	7.470990658E0	-1.758724600E-1
1.335290226E1	-1.237089276E0	7.797610760E0	1.289731383E0
1.336130528E1	1.729412556E0	8.965308189E0	2.191825628E0
1.336970830E1	3.207578659E0	1.001755238E1	2.282154560E0
1.337811132E1	3.715455294E0	1.062891865E1	2.060818434E0
1.338651434E1	3.582653761E0	1.061695385E1	1.608574986E0
1.339491736E1	2.838485956E0	1.008395290E1	1.013360381E0
1.340332038E1	1.666002750E0	9.470791817E0	4.857429862E-1
1.341172340E1	5.880361795E-1	9.132805824E0	6.053841114E-1
1.342012642E1	3.409772366E-2	9.281160355E0	5.826523304E-1
1.342852944E1	-2.333002165E-2	9.714262009E0	2.805584669E-1
1.343693246E1	1.256231871E-2	9.993025780E0	-8.793623000E-2
1.344533548E1	1.950150430E-1	1.000618649E1	-3.355933726E-1
1.345373850E1	7.734799385E-1	9.930811882E0	-2.626122832E-1
1.346214153E1	1.536192179E0	9.894321442E0	1.112662554E-1
1.347054455E1	2.020738840E0	9.827322960E0	3.505485058E-1
1.347894757E1	1.995614052E0	9.810572624E0	4.223332107E-1
1.348735059E1	1.500299811E0	9.805787086E0	4.432703853E-1
1.349575361E1	9.756734371E-1	9.708877563E0	3.343969584E-1
1.350415663E1	6.281159520E-1	9.636494637E0	3.236292601E-1
1.351255965E1	4.307080805E-1	9.544371605E0	4.019941986E-1
1.352096267E1	4.342973232E-1	9.547362328E0	5.754738450E-1
1.352936569E1	5.479564071E-1	9.728020668E0	8.015955687E-1
1.353776871E1	5.108676553E-1	9.859027863E0	6.161518097E-1
1.354617173E1	2.069791555E-1	9.692128181E0	4.971089065E-1
1.355457476E1	3.589234129E-2	9.573683739E0	6.550351977E-1
1.356297778E1	1.692921966E-1	9.611370087E0	5.904290080E-1
1.357138080E1	4.671986103E-1	9.705288887E0	4.438686073E-1
1.357978382E1	6.113662124E-1	9.720243454E0	5.210371017E-1
1.358818684E1	6.640082598E-1	9.648459435E0	4.624129832E-1
1.359658986E1	7.495517135E-1	9.627521515E0	4.007977843E-1
1.360499288E1	8.183453679E-1	9.716055870E0	3.308077157E-1
1.361339590E1	8.069794178E-1	9.770493507E0	1.788634956E-1
1.362179892E1	7.830511928E-1	9.696315765E0	4.307080805E-2
1.363020194E1	8.482556343E-1	9.575477600E0	4.307080805E-2
1.363860496E1	9.343972206E-1	9.527621269E0	2.219343036E-1
1.364700798E1	9.272187948E-1	9.486943245E0	3.260220885E-1
1.365541101E1	7.417750359E-1	9.321838379E0	5.563312769E-1
1.366381403E1	3.858426511E-1	9.168100357E0	6.981059909E-1
1.367221705E1	-7.178467698E-3	9.253045082E0	5.928218365E-1
1.368062007E1	-2.997010350E-1	9.586245537E0	4.331009090E-1
1.368902309E1	-3.020938635E-1	9.916455269E0	1.573280841E-1
1.369742611E1	1.567298770E-1	1.004806042E1	-8.015955985E-2
1.370582913E1	8.715856671E-1	1.007916737E1	-3.014956415E-1
1.371423215E1	1.494317770E0	1.001994514E1	-4.313062727E-1
1.372263517E1	1.792822361E0	1.003848934E1	-3.870390654E-1
1.373103819E1	1.603191137E0	1.020598698E1	-3.236292601E-1
1.373944121E1	1.100100160E0	1.037946606E1	-3.008974493E-1
1.374784423E1	4.905286431E-1	1.091665554E1	-1.034895778E-1
1.375624726E1	-5.264209956E-2	1.297867012E1	6.837490797E-1
1.376465028E1	-4.773681164E-1	1.664626884E1	8.009973764E-1
1.377305330E1	-8.141579032E-1	1.910250092E1	-4.492524564E-1
1.378145632E1	-8.470591903E-1	1.831287003E1	-1.532602906E0
1.378985934E1	-1.453639716E-1	1.554018688E1	-1.901695848E0
1.379826236E1	5.850451589E-1	1.406919861E1	-2.333600283E0
1.380666538E1	1.025324464E0	1.352124214E1	-2.479562521E0
1.381506840E1	1.335195065E0	1.307378483E1	-2.115853310E0
1.382347142E1	1.595414519E0	1.276869965E1	-1.294517040E0
1.383187444E1	1.801197290E0	1.225843048E1	-6.759724021E-1
1.384027746E1	1.976471543E0	1.143111229E1	-5.802594870E-2
1.384868048E1	1.885544300E0	1.033340454E1	1.115055323E0
1.385708350E1	1.966302037E0	9.384650230E0	1.730010748E0
1.386548653E1	2.421536446E0	8.761918068E0	1.813759565E0
1.387388955E1	3.352344513E0	8.432307243E0	1.987239242E0
1.388229257E1	4.678566456E0	8.497511864E0	2.249253273E0
1.389069559E1	6.214160442E0	9.076574326E0	2.754737139E0
1.389909861E1	7.045666218E0	1.000439167E1	2.435295343E0
1.390750163E1	5.729613781E0	1.064267731E1	1.652244091E0
1.391590465E1	2.069193363E0	9.911669731E0	1.381256819E0
1.392430767E1	-2.547159672E0	8.386843681E0	6.789634228E-1
1.393271069E1	-6.348158360E0	7.076174736E0	-1.552343726E0
1.394111371E1	-7.126423836E0	6.789036274E0	-3.183650494E0
1.394951673E1	-4.441078663E0	7.505088329E0	-2.795415163E0
1.395791976E1	-1.980060786E-1	8.472985268E0	-1.725823283E0
1.396632278E1	3.595216036E0	9.217751503E0	-1.563709617E0
1.397472580E1	5.694319725E0	9.573683739E0	-1.581655741E0
1.398312882E1	6.160920143E0	9.348159790E0	-1.006181955E0
1.399153184E1	5.383851051E0	8.706883430E0	-2.811566591E-1
1.399993486E1	3.995415688E0	8.079365730E0	-2.015953064E-1
1.400833788E1	2.609373093E0	7.819744587E0	-8.255237937E-1
1.401674090E1	1.351346612E0	7.832904816E0	-1.426122308E0
1.402514392E1	2.973082066E-1	7.892725468E0	-1.585843205E0
1.403354694E1	-3.397808075E-1	7.829315662E0	-1.423131227E0
1.404194996E1	-3.254238665E-1	7.795217991E0	-1.190429211E0
1.405035298E1	3.158525825E-1	7.942376614E0	-1.132403374E0
1.405875601E1	1.207179070E0	8.243872643E0	-1.325025558E0
1.406715903E1	1.846062660E0	8.453244209E0	-1.461416483E0
1.407556205E1	2.163111687E0	8.544769287E0	-1.354337573E0
1.408396507E1	2.330011129E0	8.652446747E0	-1.326221943E0
1.409236809E1	2.337189436E0	8.739186287E0	-1.411765337E0
1.410077111E1	2.232503414E0	8.692526817E0	-1.623530149E0
1.410917413E1	2.152343988E0	8.542975426E0	-1.703689694E0
1.411757715E1	2.331207514E0	8.413763046E0	-1.643270969E0
1.412598017E1	2.792423964E0	8.402995110E0	-1.630110383E0
1.413438319E1	3.418745279E0	8.519644737E0	-1.777867198E0
1.414278621E1	4.086941242E0	8.697312355E0	-1.850250125E0
1.415118923E1	4.693521500E0	8.775676727E0	-1.871785522E0
1.415959226E1	5.204389095E0	8.723632812E0	-1.858026743E0
1.416799528E1	5.582455158E0	8.669795036E0	-1.785643935E0
1.417639830E1	5.674578667E0	8.521439552E0	-1.682752490E0
1.418480132E1	5.508277893E0	8.341978073E0	-1.600798368E0
1.419320434E1	5.239683151E0	8.353343964E0	-1.666600943E0
1.420160736E1	4.954339504E0	8.538188934E0	-1.862812400E0
1.421001038E1	4.746761799E0	8.680562019E0	-1.993819475E0
1.421841340E1	4.628317356E0	8.844470978E0	-2.335394859E0
1.422681642E1	4.396811485E0	8.944371223E0	-2.409572363E0
1.423521944E1	4.106681824E0	8.982057571E0	-2.034497499E0
1.424362246E1	4.348356724E0	9.108279228E0	-1.556531072E0
1.425202548E1	5.483152866E0	9.486345291E0	-1.392024517E0
1.426042850E1	7.258029461E0	9.857233047E0	-1.403988719E0
1.426883153E1	9.304491043E0	1.014556789E1	-1.498505235E0
1.427723455E1	1.117508030E1	1.040339470E1	-1.536790371E0
1.428563757E1	1.231765270E1	1.027238750E1	-1.537388563E0
1.429404059E1	1.254437256E1	9.393623352E0	-1.487139225E0
1.430244361E1	1.260180092E1	9.023932457E0	-1.692921996E0
1.431084663E1	1.297268772E1	8.634500504E0	-1.913061738E0
1.431924965E1	1.408056450E1	8.825327873E0	-1.313061476E0
1.432765267E1	1.666780472E1	9.964311600E0	1.001994491E0
1.433605569E1	1.873879242E1	1.367258835E1	2.200798512E0
1.434445871E1	1.424327660E1	1.810110474E1	-1.631905079E0
1.435286173E1	4.794020176E0	2.142653084E1	9.014959335E-1
1.436126476E1	-1.201974678E1	1.969951057E1	8.968897820E0
1.436966778E1	-3.351028442E1	1.193480110E1	-1.727617979E0
1.437807080E1	-2.968176842E1	7.322635651E0	-1.281476212E1
1.438647382E1	-1.066540909E1	7.279564857E0	-7.299305439E0
1.439487684E1	5.677569866E0	7.888537884E0	1.758126378E0
1.440327986E1	1.774696732E1	7.660023689E0	3.445664644E-1
1.441168288E1	1.750110435E1	6.519843578E0	-2.839084148E0
1.442008590E1	1.157348537E1	7.182057381E0	8.279166222E-1
1.442848892E1	7.773084164E0	9.205786705E0	1.989632010E0
1.443689194E1	4.786841869E0	1.198505020E1	6.664010882E-1
1.444529496E1	1.274776220E0	1.355713463E1	-1.417747438E-1
1.445369798E1	-2.906083107E0	1.252822113E1	-4.121637046E-1
1.446210101E1	-6.135795593E0	9.646066666E0	-3.852444589E-1
1.447050403E1	-6.238088608E0	7.229913712E0	4.450650215E-1
1.447890705E1	-2.539382935E0	7.277770042E0	1.520638824E0
1.448731007E1	1.785045743E0	8.738588333E0	1.953141451E0
1.449571309E1	4.529613495E0	9.945169449E0	2.199003935E0
1.450411611E1	5.500501156E0	1.067258739E1	2.069791555E0
1.451251913E1	5.225924492E0	1.094716358E1	1.516451359E0
1.452092215E1	4.127619267E0	1.057089233E1	6.753742099E-1
1.452932517E1	2.696112871E0	9.837491989E0	-1.076770201E-2
1.453772819E1	1.463809252E0	9.323035240E0	-4.630111754E-1
1.454613121E1	9.649057388E-1	9.244071960E0	-7.411768436E-1
1.455453423E1	1.073180914E0	9.537193298E0	-7.597211599E-1
1.456293726E1	1.584048629E0	9.797411919E0	-7.447660565E-1
1.457134028E1	2.139183521E0	9.838688850E0	-5.216353536E-1
1.457974330E1	2.525026083E0	9.884152412E0	-3.212364316E-1
1.458814632E1	2.555534601E0	9.927821159E0	-7.118647546E-2
1.459654934E1	2.252842426E0	9.760323524E0	1.692921966E-1
1.460495236E1	1.809572101E0	9.476774216E0	2.578266263E-1
1.461335538E1	1.408176184E0	9.282357216E0	2.027917206E-1
1.462175840E1	1.264008522E0	9.248857498E0	2.949153781E-1
1.463016142E1	1.509871125E0	9.452845573E0	4.390829504E-1
1.463856444E1	1.887338877E0	9.621540070E0	3.308077157E-1
1.464696746E1	1.995614052E0	9.613164902E0	8.015955985E-2
1.465537048E1	1.713859200E0	9.546165466E0	-2.512463629E-1
1.466377351E1	1.327418327E0	9.560523033E0	-4.725824594E-1
1.467217653E1	1.246660590E0	9.634700775E0	-5.982056856E-1
1.468057955E1	1.446461320E0	9.721440315E0	-6.909275651E-1
1.468898257E1	1.576870084E0	9.713663101E0	-5.503492355E-1
1.469738559E1	1.495514154E0	9.780662537E0	-3.499503136E-1
1.470578861E1	1.271785259E0	1.004806042E1	-2.033899277E-1
1.471419163E1	9.589236975E-1	1.032443142E1	-1.668993831E-1
1.472259465E1	6.065805554E-1	1.036929703E1	-3.541377485E-1
1.473099767E1	3.619144261E-1	1.028734303E1	-5.054838061E-1
1.473940069E1	2.691925466E-1	1.019162941E1	-6.675975323E-1
1.474780371E1	3.254238665E-1	1.010189915E1	-7.914260626E-1
1.475620673E1	3.511467278E-1	1.004746246E1	-1.004985452E0
1.476460976E1	3.230310678E-1	1.008335495E1	-1.078564763E0
1.477301278E1	3.170489967E-1	1.012463093E1	-1.119242787E0
1.478141580E1	1.998006850E-1	1.010369396E1	-1.089930773E0
1.478981882E1	-1.453639716E-1	1.000199890E1	-1.099501967E0
1.479822184E1	-6.675975323E-1	9.956535339E0	-1.162911773E0
1.480662486E1	-1.403988719E0	1.017906761E1	-1.284347534E0
1.481502788E1	-2.200798512E0	1.111705399E1	-1.576271892E0
1.482343090E1	-2.688934565E0	1.362532997E1	-1.578664780E0
1.483183392E1	-2.258824587E0	1.857966995E1	-1.762912035E0
1.484023694E1	-1.073779106E0	2.410589409E1	-1.984846354E0
1.484863996E1	-3.541377485E-1	2.379961205E1	-1.294517040E0
1.485704298E1	-1.615155339E-1	1.852224159E1	-1.023529887E0
1.486544600E1	-5.802595019E-1	1.499821186E1	-1.299900889E0
1.487384903E1	-1.601396561E0	1.389332676E1	-1.882553220E0
1.488225205E1	-2.289931297E0	1.312223911E1	-1.597807288E0
1.489065507E1	-1.808973908E0	1.224347496E1	-4.749752879E-1
1.489905809E1	-1.657029688E-1	1.096750259E1	8.291130662E-1
1.490746111E1	2.082952023E0	9.665208817E0	1.642074585E0
1.491586413E1	4.393222332E0	8.593822479E0	2.492722988E0
1.492426715E1	6.592824459E0	7.774280548E0	2.845066071E0
1.493267017E1	8.637491226E0	8.627322197E0	1.988435626E0
1.494107319E1	8.606983185E0	9.681360245E0	1.674975872E0
1.494947621E1	5.357530117E0	9.296713829E0	1.637288928E0
1.495787923E1	5.419743061E-1	7.615158081E0	1.126421213E0
1.496628226E1	-3.592823267E0	5.712863922E0	-1.174875975E0
1.497468528E1	-5.360520840E0	4.793421745E0	-2.441277266E0
1.498308830E1	-3.396013498E0	5.037489891E0	-1.823330879E0
1.499149132E1	1.506281853E0	6.391229153E0	-1.141376376E0
1.499989434E1	6.193223000E0	8.142775536E0	-1.506880045E0
1.500829736E1	8.851051331E0	9.366703987E0	-1.779063582E0
1.501670038E1	9.035298347E0	9.312865257E0	-1.054636598E0
1.502510340E1	7.334001541E0	8.281558990E0	-9.391828626E-2
1.503350642E1	5.258825779E0	7.383652687E0	-2.554338276E-1
1.504190944E1	3.219542980E0	6.900302410E0	-1.012163997E0
1.505031246E1	1.347159147E0	6.664609432E0	-1.676172256E0
1.505871548E1	-6.999006122E-2	6.602396011E0	-1.771885157E0
1.506711851E1	-6.257231236E-1	6.686144829E0	-1.582852125E0
1.507552153E1	-3.649054468E-2	6.917650223E0	-1.298106313E0
1.508392455E1	1.311864972E0	7.090531826E0	-8.943174481E-1
1.509232757E1	2.708076954E0	7.252645493E0	-8.081758618E-1
1.510073059E1	3.632902861E0	7.417151928E0	-9.559326172E-1
1.510913361E1	3.850051641E0	7.540382385E0	-1.026520967E0
1.511753663E1	3.614358664E0	7.617550850E0	-1.121635556E0
1.512593965E1	3.402593851E0	7.732406139E0	-1.226919770E0
1.513434267E1	3.358326674E0	7.849654675E0	-1.331007600E0
1.514274569E1	3.553939819E0	7.918448448E0	-1.381256819E0
1.515114871E1	3.903291941E0	7.977072716E0	-1.346560955E0
1.515955173E1	4.247260094E0	7.951349735E0	-1.218544960E0
1.516795476E1	4.450051785E0	7.856832981E0	-1.172483087E0
1.517635778E1	4.475774765E0	7.867002487E0	-1.304088354E0
1.518476080E1	4.288536549E0	7.880163193E0	-1.331007600E0
1.519316382E1	4.004388809E0	7.770093441E0	-1.130010486E0
1.520156684E1	3.885345697E0	7.686344624E0	-8.787640929E-1
1.520996986E1	3.957728624E0	7.724629879E0	-9.002995491E-1
1.521837288E1	4.088137627E0	7.749754429E0	-8.506484628E-1
1.522677590E1	4.181457520E0	7.726424217E0	-7.010970116E-1
1.523517892E1	4.262215137E0	7.701299667E0	-7.022934556E-1
1.524358194E1	4.342374802E0	7.746165276E0	-7.902296782E-1
1.525198496E1	4.308277130E0	7.816154957E0	-8.697910309E-1
1.526038798E1	4.122833252E0	7.910073280E0	-1.056431174E0
1.526879100E1	3.925425529E0	8.159524918E0	-1.238883972E0
1.527719403E1	3.799802303E0	8.513663292E0	-1.417747378E0
1.528559705E1	3.747758389E0	8.961718559E0	-1.795813441E0
1.529400007E1	3.627519131E0	9.431310654E0	-1.931007862E0
1.530240309E1	3.414557934E0	9.868000984E0	-1.854437590E0
1.531080611E1	3.354139090E0	1.042732334E1	-1.740180254E0
1.531920913E1	3.670589924E0	1.085264683E1	-1.403390527E0
1.532761215E1	4.586442947E0	1.126660538E1	-1.342373490E0
1.533601517E1	5.502295494E0	1.147597694E1	-1.478764415E0
1.534441819E1	5.958726406E0	1.133181000E1	-1.694118381E0
1.535282121E1	6.099903107E0	1.082273674E1	-1.610369682E0
1.536122423E1	6.643671989E0	1.002233791E1	-1.138983607E0
1.536962726E1	8.058428764E0	9.743574142E0	-1.090528965E0
1.537803028E1	9.299106598E0	9.868000984E0	-8.303094506E-1
1.538643330E1	9.381659508E0	9.893723488E0	-1.013958573E0
1.539483632E1	9.397810936E0	9.773484230E0	-1.807179332E0
1.540323934E1	1.134078312E1	1.187916756E1	-3.256631613E0
1.541164236E1	1.349432373E1	1.764168358E1	-4.510470867E0
1.542004538E1	1.005583763E1	2.004467583E1	-3.397209883E0
1.542844840E1	1.930409670E0	2.008475494E1	-6.939185411E-2
1.543685142E1	-1.205922794E1	1.549352646E1	8.612366676E0
1.544525444E1	-2.546262360E1	7.543971539E0	3.350549936E0
1.545365746E1	-1.993819427E1	5.962316036E0	-3.204587698E0
1.546206048E1	-6.640082836E0	8.596813202E0	-4.174877167E0
1.547046351E1	5.215754986E0	1.086461163E1	-2.673381090E0
1.547886653E1	1.136830044E1	8.690134048E0	2.562713146E0
1.548726955E1	1.047039413E1	4.997410297E0	4.211966038E0
1.549567257E1	7.925028801E0	5.408377171E0	1.850848317E0
1.550407559E1	7.131807804E0	8.604590416E0	-1.822732687E0
1.551247861E1	6.317649841E0	1.156869888E1	-1.080359459E0
1.552088163E1	4.606781960E0	1.328913879E1	-1.495514214E-1
1.552928465E1	2.002792597E0	1.308036518E1	-2.225923300E0
1.553768767E1	-6.275177598E-1	1.119242764E1	-2.764308453E0
1.554609069E1	-2.600399971E0	9.183652878E0	-1.454836130E0
1.555449371E1	-3.388236761E0	8.549555779E0	-9.451649189E-1
1.556289673E1	-2.665006161E0	9.428318977E0	-7.178467698E-3
1.557129976E1	-9.278169870E-1	1.011625576E1	9.230313301E-1
1.557970278E1	8.877372146E-1	1.025384331E1	1.350748420E0
1.558810580E1	2.187039852E0	1.009950638E1	1.699502230E0
1.559650882E1	2.551945448E0	9.791430473E0	1.670190215E0
1.560491184E1	2.069193363E0	9.568898201E0	1.408774376E0
1.561331486E1	1.301695466E0	9.647860527E0	1.205384374E0
1.562171788E1	8.452646136E-1	9.977472305E0	8.907282352E-1
1.563012090E1	7.657032609E-1	1.005105114E1	5.688936114E-1
1.563852392E1	8.859425783E-1	9.872187614E0	3.170489967E-1
1.564692694E1	1.247856975E0	9.777072906E0	8.554340899E-2
1.565532996E1	1.720439434E0	1.002532864E1	-4.905286431E-2
1.566373298E1	1.990828395E0	1.027298546E1	-1.369891018E-1
1.567213600E1	2.032104731E0	1.032861900E1	-2.273181453E-2
1.568053903E1	1.971087694E0	1.016650486E1	3.708875179E-2
1.568894205E1	1.878963947E0	1.001276588E1	2.273181528E-1
1.569734507E1	1.787438512E0	9.887143135E0	3.152543902E-1
1.570574809E1	1.776670814E0	9.734002113E0	3.601198196E-1
1.571415111E1	1.846660852E0	9.661021233E0	4.474578202E-1
1.572255413E1	1.910070658E0	9.707083702E0	5.904290080E-1
1.573095715E1	1.914856315E0	9.811170578E0	6.951149702E-1
1.573936017E1	1.744965911E0	9.831509590E0	5.958128572E-1
1.574776319E1	1.552941918E0	9.646664619E0	4.737788737E-1
1.575616621E1	1.469193101E0	9.584450722E0	4.342973232E-1
1.576456923E1	1.453041553E0	9.732208252E0	4.701896608E-1
1.577297226E1	1.395015597E0	9.891928673E0	5.341976285E-1
1.578137528E1	1.262213945E0	9.894919395E0	6.107679605E-1
1.578977830E1	1.047458172E0	9.793823242E0	7.567301393E-1
1.579818132E1	8.590233326E-1	9.635896683E0	8.673982024E-1
1.580658434E1	8.829515576E-1	9.543174744E0	7.758727670E-1
1.581498736E1	1.082752228E0	9.507881165E0	7.579265833E-1
1.582339038E1	1.340578914E0	9.459425926E0	7.196413875E-1
1.583179340E1	1.594218135E0	9.390632629E0	6.388836503E-1
1.584019642E1	1.871785522E0	9.339186668E0	5.359922647E-1
1.584859944E1	2.091326952E0	9.315856934E0	3.690928817E-1
1.585700246E1	2.161317110E0	9.331410408E0	3.050848842E-1
1.586540548E1	2.052443504E0	9.277571678E0	1.770688742E-1
1.587380851E1	1.935195327E0	9.168698311E0	1.178465188E-1
1.588221153E1	1.918445587E0	9.053244591E0	1.776670814E-1
1.589061455E1	1.984248161E0	8.998209953E0	9.750752151E-2
1.589901757E1	2.082353830E0	9.022137642E0	3.146561682E-1
1.590742059E1	2.243271112E0	9.272786140E0	3.672982752E-1
1.591582361E1	2.402992249E0	9.835697174E0	3.266202807E-1
1.592422663E1	2.290529490E0	1.042911720E1	1.890329868E-1
1.593262965E1	1.780858278E0	1.067498016E1	-6.999006122E-2
1.594103267E1	1.246062398E0	1.064507008E1	-3.427718580E-1
1.594943569E1	9.684949517E-1	1.046500969E1	-5.820540786E-1
1.595783871E1	9.672985673E-1	1.041057301E1	-7.710871100E-1
1.596624173E1	8.398807645E-1	1.060199928E1	-7.980063558E-1
1.597464476E1	4.612165689E-1	1.096750259E1	-6.011967063E-1
1.598304778E1	-2.093719877E-2	1.183011532E1	-3.607180119E-1
1.599145080E1	-4.259224236E-1	1.386580944E1	1.944168359E-1
1.599985382E1	-5.030909777E-1	1.722473335E1	-3.218346536E-1
1.600825684E1	-7.567301393E-1	1.961875343E1	-8.171489239E-1
1.601665986E1	-8.135597110E-1	1.892543221E1	-9.493523836E-1
1.602506288E1	-2.410768867E-1	1.781635857E1	-1.259821177E0
1.603346590E1	-3.768695518E-2	1.676949883E1	-1.353739381E0
1.604186892E1	-5.144568682E-1	1.495215034E1	-1.515853167E0
1.605027194E1	-1.264008522E0	1.279681587E1	-8.697910309E-1
1.605867496E1	-1.254437327E0	1.086520958E1	-4.199403822E-1
1.606707798E1	-2.566302419E-1	9.775876999E0	2.667997181E-1
1.607548100E1	1.420738459E0	8.926424980E0	9.146564603E-1
1.608388403E1	3.574877024E0	7.933403492E0	1.634896040E0
1.609228705E1	6.240481377E0	7.192226887E0	2.749353170E0
1.610069007E1	9.403194427E0	7.369295597E0	3.212962627E0
1.610909309E1	1.228235817E1	9.052646637E0	2.699702263E0
1.611749611E1	1.279860973E1	1.030349445E1	2.401795626E0
1.612589913E1	9.181260109E0	9.778867722E0	2.948555708E0
1.613430215E1	3.306880951E0	7.947760582E0	2.834896564E0
1.614270517E1	-3.194418192E0	5.602196217E0	1.470389485E0
1.615110819E1	-9.241081238E0	3.616153240E0	-1.709671736E0
1.615951121E1	-1.228415298E1	2.642872572E0	-5.041677475E0
1.616791423E1	-9.257232666E0	3.398406267E0	-5.209773064E0
1.617631726E1	-2.514856577E0	5.097310543E0	-3.185445070E0
1.618472028E1	5.213960648E0	6.960721016E0	-2.221735716E0
1.619312330E1	1.157408333E1	8.732605934E0	-2.501696110E0
1.620152632E1	1.440838146E1	9.766305923E0	-1.907079697E0
1.620992934E1	1.393998623E1	9.378668785E0	-5.647061467E-1
1.621833236E1	1.119841003E1	8.208578110E0	4.851447940E-1
1.622673538E1	8.306085587E0	7.196413994E0	1.274178028E-1
1.623513840E1	5.764309883E0	6.597609997E0	-9.164510965E-1
1.624354142E1	3.313461065E0	6.391229153E0	-1.915454507E0
1.625194444E1	1.068993568E0	6.440880299E0	-2.389233351E0
1.626034746E1	-4.450650215E-1	6.724429607E0	-2.228316069E0
1.626875048E1	-5.796613097E-1	7.246663570E0	-1.710269928E0
1.627715350E1	7.722834945E-1	7.883154392E0	-1.101894855E0
1.628555653E1	2.840280533E0	8.388637543E0	-7.351947427E-1
1.629395955E1	4.511068821E0	8.669196129E0	-6.771687865E-1
1.630236257E1	5.299503803E0	8.742775917E0	-6.227321029E-1
1.631076559E1	5.406582832E0	8.783453941E0	-6.239284873E-1
1.631916861E1	5.259424210E0	8.934201241E0	-6.843472719E-1
1.632757163E1	5.322235584E0	8.994022369E0	-8.745766878E-1
1.633597465E1	5.617151260E0	8.918049812E0	-1.149751306E0
1.634437767E1	5.950351715E0	8.676973343E0	-1.281954765E0
1.635278069E1	6.086144447E0	8.340183258E0	-1.229910851E0
1.636118371E1	5.892923832E0	8.063214302E0	-1.208973646E0
1.636958673E1	5.365904808E0	8.014161110E0	-1.290329576E0
1.637798976E1	4.592424870E0	7.979465485E0	-1.314257860E0
1.638639278E1	3.725624800E0	7.773084164E0	-1.040877819E0
1.639479580E1	3.079562664E0	7.527820110E0	-8.775677085E-1
1.640319882E1	2.811566591E0	7.521239758E0	-1.043868899E0
1.641160184E1	2.916850805E0	7.766504288E0	-1.229312658E0
1.642000486E1	3.290131092E0	8.128418922E0	-1.246062398E0
1.642840788E1	3.805784464E0	8.556734085E0	-1.161117196E0
1.643681090E1	4.308875561E0	8.952746391E0	-1.054636598E0
1.644521392E1	4.681557655E0	9.150154114E0	-1.055832982E0
1.645361694E1	4.881956577E0	9.363713264E0	-1.140179992E0
1.646201996E1	4.872983456E0	9.605388641E0	-1.375274777E0
1.647042298E1	4.735994339E0	9.854242325E0	-1.735394597E0
1.647882601E1	4.582255363E0	1.021974564E1	-2.096710920E0
1.648722903E1	4.308875561E0	1.035793114E1	-2.311466694E0
1.649563205E1	3.872783422E0	1.020897770E1	-2.112862349E0
1.650403507E1	3.463012457E0	9.994820595E0	-1.407577872E0
1.651243809E1	3.639483213E0	9.975079536E0	-8.745766878E-1
1.652084111E1	4.728217602E0	9.930811882E0	-7.525427341E-1
1.652924413E1	6.558726788E0	1.020718288E1	-8.243274093E-1
1.653764715E1	8.025527000E0	1.051525879E1	-9.415757060E-1
1.654605017E1	8.481359482E0	1.050030422E1	-1.132403374E0
1.655445319E1	8.240880966E0	1.016530895E1	-1.333400369E0
1.656285621E1	8.111070633E0	9.775876999E0	-1.182652593E0
1.657125923E1	8.206185341E0	9.558728218E0	-1.036092162E0
1.657966226E1	8.546564102E0	9.291330338E0	-1.001994491E0
1.658806528E1	9.149555206E0	9.661021233E0	-9.116654396E-1
1.659646830E1	9.448657990E0	1.089332485E1	-7.992027402E-1
1.660487132E1	8.637491226E0	1.299362469E1	-1.155135155E0
1.661327434E1	5.547161102E0	1.564427471E1	6.400800496E-2
1.662167736E1	-7.908278704E-1	1.767219162E1	8.249256015E-1
1.663008038E1	-1.386281776E1	1.571007729E1	9.518050194E0
1.663848340E1	-2.464427948E1	1.025503922E1	2.492124796E0
1.664688642E1	-1.793181229E1	9.087940216E0	-1.088136077E0
1.665528944E1	-3.158525944E0	1.160399342E1	-1.471585870E0
1.666369246E1	9.618548393E0	1.290269756E1	-6.811768055E0
1.667209548E1	1.595294857E1	1.041775131E1	-4.913063049E0
1.668049851E1	1.288176060E1	5.600999832E0	1.709073544E0
1.668890153E1	8.477172852E0	5.176871777E0	2.418545485E0
1.669730455E1	6.105885029E0	8.332406998E0	-6.311069727E-1
1.670570757E1	4.315455437E0	1.162313557E1	-1.093519926E0
1.671411059E1	1.430309772E0	1.251924801E1	4.546363056E-1
1.672251361E1	-1.882553220E0	1.166979599E1	-4.905286431E-2
1.673091663E1	-4.322035789E0	1.020658493E1	-8.500502706E-1
1.673931965E1	-4.783850670E0	8.843274117E0	-4.695914388E-1
1.674772267E1	-3.032902718E0	8.461619377E0	9.810572863E-2
1.675612569E1	-2.482553422E-1	9.106484413E0	5.264210105E-1
1.676452871E1	2.301297188E0	9.999007225E0	1.048056364E0
1.677293173E1	3.557528973E0	1.060439205E1	1.676172256E0
1.678133476E1	3.200998545E0	1.059242725E1	1.461416483E0
1.678973778E1	1.747358680E0	1.012463093E1	7.603194118E-1
1.679814080E1	3.002992272E-1	9.851250648E0	1.525424421E-1
1.680654382E1	-6.412764788E-1	9.702896118E0	4.965107143E-2
1.681494684E1	-9.140582681E-1	9.690333366E0	-1.034895778E-1
1.682334986E1	-3.726821244E-1	9.716055870E0	-9.870393574E-2
1.683175288E1	7.280163169E-1	9.739984512E0	5.982056633E-2
1.684015590E1	1.804188251E0	9.787242889E0	-8.793623000E-2
1.684855892E1	2.413161755E0	9.792028427E0	-2.596212626E-1
1.685696194E1	2.398206472E0	9.801599503E0	-3.876372576E-1
1.686536496E1	1.938186288E0	9.809376717E0	-4.187439680E-1
1.687376798E1	1.424327731E0	9.853045464E0	-2.967100143E-1
1.688217100E1	1.025922656E0	9.840482712E0	-1.232303679E-1
1.689057403E1	8.147560954E-1	9.713663101E0	1.453639716E-1
1.689897705E1	7.986045480E-1	9.664012909E0	3.732803464E-1
1.690738007E1	9.086744189E-1	9.634101868E0	3.373879790E-1
1.691578309E1	1.124028444E0	9.626923561E0	3.032902777E-1
1.692418611E1	1.372283816E0	9.657432556E0	2.973082066E-1
1.693258913E1	1.461416483E0	9.670592308E0	2.662015259E-1
1.694099215E1	1.347757339E0	9.748359680E0	2.979064286E-1
1.694939517E1	1.187438250E0	9.857831001E0	1.776670814E-1
1.695779819E1	1.039681435E0	9.915857315E0	4.965107143E-2
1.696620121E1	9.242277741E-1	9.857831001E0	-4.845465720E-2
1.697460423E1	8.745766878E-1	9.734601021E0	-1.734796464E-1
1.698300726E1	9.074779749E-1	9.688538551E0	-2.656033039E-1
1.699141028E1	1.010369420E0	9.702297211E0	-2.087737769E-1
1.699981330E1	1.205384374E0	9.738788605E0	-5.503492057E-2
1.700821632E1	1.444666624E0	9.840482712E0	9.690931439E-2
1.701661934E1	1.491326690E0	9.885947227E0	1.561316848E-1
1.702502236E1	1.403390527E0	9.807581902E0	5.024927482E-2
1.703342538E1	1.299302697E0	9.729815483E0	3.110669367E-2
1.704182840E1	1.281356573E0	9.711869240E0	1.483550072E-1
1.705023142E1	1.348355532E0	9.654440880E0	5.449653864E-1
1.705863444E1	1.296311617E0	9.393623352E0	5.736792088E-1
1.706703746E1	1.213759303E0	9.376873970E0	3.320041299E-1
1.707544048E1	1.258026481E0	9.727422714E0	3.457628787E-1
1.708384350E1	1.265803218E0	1.020299530E1	-2.440679073E-1
1.709224653E1	1.273579836E0	1.067198944E1	-6.610172391E-1
1.710064955E1	1.249053478E0	1.102433205E1	-1.033101201E0
1.710905257E1	1.077966571E0	1.115234852E1	-1.409970760E0
1.711745559E1	8.159525394E-1	1.117089272E1	-1.493121386E0
1.712585861E1	5.461617708E-1	1.131326580E1	-1.645663738E0
1.713426163E1	2.679961324E-1	1.179601765E1	-1.554736495E0
1.714266465E1	-7.118647546E-2	1.285663605E1	-1.106680512E0
1.715106767E1	-3.056831062E-1	1.517348671E1	-4.839483798E-1
1.715947069E1	-2.769692242E-1	1.859163284E1	-7.692924738E-1
1.716787371E1	-6.520441771E-1	2.025344849E1	-1.105484009E0
1.717627673E1	-1.547558069E0	1.873101616E1	-1.152742267E0
1.718467976E1	-2.260619164E0	1.577946854E1	-1.607378602E0
1.719308278E1	-2.230708838E0	1.374796295E1	-2.098505497E0
1.720148580E1	-1.406381488E0	1.299900913E1	-1.781456470E0
1.720988882E1	-5.240281820E-1	1.230509090E1	-7.118647099E-1
1.721829184E1	3.828516304E-1	1.108714390E1	1.674975827E-2
1.722669486E1	1.487737536E0	9.854242325E0	6.664010882E-1
1.723509788E1	2.533401012E0	8.449654579E0	1.588834286E0
1.724350090E1	3.827918053E0	7.039085865E0	2.086541414E0
1.725190392E1	5.770291805E0	6.139982700E0	2.492124796E0
1.726030694E1	8.464610100E0	6.401997089E0	2.681157827E0
1.726870996E1	1.084187984E1	8.635697365E0	2.359323025E0
1.727711298E1	9.760921478E0	9.851848602E0	2.630310297E0
1.728551600E1	3.236890793E0	7.913662910E0	2.931207657E0
1.729391903E1	-4.451248169E0	5.091926575E0	1.443470240E0
1.730232205E1	-1.069651508E1	2.773879766E0	-2.708076954E0
1.731072507E1	-1.191386414E1	2.466402054E0	-5.871986866E0
1.731912809E1	-6.958926678E0	4.134797573E0	-4.379463673E0
1.732753111E1	8.404789567E-1	6.230910301E0	-1.846062660E0
1.733593413E1	8.401798248E0	8.297710419E0	-1.900499344E0
1.734433715E1	1.234098244E1	9.756733894E0	-2.330609322E0
1.735274017E1	1.257607746E1	9.668199539E0	-1.360319614E0
1.736114319E1	1.027059269E1	8.596215248E0	-1.076770201E-1
1.736954621E1	7.503293514E0	7.737790108E0	-2.291127741E-1
1.737794923E1	5.120042324E0	7.310073376E0	-1.161715388E0
1.738635226E1	2.885145903E0	7.055237770E0	-2.072184324E0
1.739475528E1	9.158528447E-1	7.020541668E0	-2.515454769E0
1.740315830E1	-3.355933726E-1	7.173084259E0	-2.349153519E0
1.741156132E1	-4.013960063E-1	7.601997375E0	-1.941775560E0
1.741996434E1	6.490531564E-1	8.212765694E0	-1.518245935E0
1.742836736E1	2.158924341E0	8.757730484E0	-1.135992527E0
1.743677038E1	3.303889751E0	9.102895737E0	-8.811569214E-1
