"Time (s)"	"Gyroscope x (rad/s)"	"Gyroscope y (rad/s)"	"Gyroscope z (rad/s)"
1.730211000E-2	-1.221694518E-3	-0.000000000E0	-8.551862091E-3
2.570513100E-2	-1.221694518E-3	-0.000000000E0	-8.551862091E-3
3.410815100E-2	-1.221694518E-3	-0.000000000E0	-8.551862091E-3
4.251117200E-2	-1.221694518E-3	-0.000000000E0	-8.551862091E-3
5.091419300E-2	-1.221694518E-3	-0.000000000E0	-8.551862091E-3
5.931721400E-2	-1.221694518E-3	-0.000000000E0	-8.551862091E-3
6.772023500E-2	-1.221694518E-3	-0.000000000E0	-8.551862091E-3
7.612325600E-2	-1.221694518E-3	-0.000000000E0	-8.551862091E-3
8.452627600E-2	-1.221694518E-3	-0.000000000E0	-8.551862091E-3
9.292929700E-2	-8.093725890E-3	4.001049697E-2	-2.702999115E-2
1.013323180E-1	-1.023169141E-2	5.787777901E-2	-3.405473381E-2
1.097353390E-1	-1.023169141E-2	4.153761268E-2	-3.023693897E-2
1.181383600E-1	-1.236965694E-2	2.244863659E-2	-2.504473738E-2
1.265413810E-1	-1.145338640E-2	8.093725890E-3	-2.535016090E-2
1.349444010E-1	-1.099525020E-2	5.955760833E-3	-3.206948191E-2
1.433474220E-1	-1.466033421E-2	1.588202827E-2	-4.306473210E-2
1.517504430E-1	-1.496575773E-2	3.268032894E-2	-5.039490014E-2
1.601534640E-1	-1.420219894E-2	5.314370990E-2	-5.314370990E-2
1.685564850E-1	-1.221694518E-2	6.795676053E-2	-5.528167635E-2
1.769595060E-1	-1.130067464E-2	7.085828483E-2	-5.512896553E-2
1.853625260E-1	-1.130067464E-2	7.284353673E-2	-5.299099907E-2
1.937655470E-1	-1.053711493E-2	7.696675509E-2	-4.810422286E-2
2.021685680E-1	-5.192201585E-3	7.956285775E-2	-4.535540938E-2
2.105715890E-1	-1.832541777E-3	7.971556485E-2	-5.161659420E-2
2.189746100E-1	-2.137965523E-3	7.467607409E-2	-5.482354015E-2
2.273776310E-1	-5.650337320E-3	6.627693027E-2	-5.680879578E-2
2.357806510E-1	-7.482878864E-3	5.894676223E-2	-5.711421743E-2
2.441836720E-1	-9.009997360E-3	5.375456065E-2	-5.619794875E-2
2.525866930E-1	-1.053711493E-2	5.024218559E-2	-5.665608495E-2
2.609897140E-1	-1.863084175E-2	5.573981255E-2	-5.909947306E-2
2.693927350E-1	-1.969982497E-2	4.428642616E-2	-6.337540597E-2
2.777957560E-1	-1.756185852E-2	3.252761811E-2	-6.245913357E-2
2.861987760E-1	-2.092151903E-2	2.199050039E-2	-5.971032009E-2
2.946017970E-1	-2.183778957E-2	1.817270555E-2	-6.001574174E-2
3.030048180E-1	-2.596100792E-2	2.626643144E-2	-6.612421572E-2
3.114078390E-1	-2.916795574E-2	4.627167806E-2	-7.223268598E-2
3.198108600E-1	-2.932066843E-2	7.528692484E-2	-7.528692484E-2
3.282138810E-1	-3.161134571E-2	9.529217333E-2	-8.047912270E-2
3.366169010E-1	-3.542914242E-2	9.284878522E-2	-8.490777016E-2
3.450199220E-1	-3.924693540E-2	7.956285775E-2	-8.597674966E-2
3.534229430E-1	-4.062134400E-2	6.413896382E-2	-7.727217674E-2
3.618259640E-1	-5.192201585E-2	5.283828825E-2	-7.177454978E-2
3.702289850E-1	-7.345438004E-2	5.100574717E-2	-7.727217674E-2
3.786320060E-1	-1.056765765E-1	5.680879578E-2	-8.903098851E-2
3.870350260E-1	-1.466033459E-1	4.413371533E-2	-9.376505762E-2
3.954380470E-1	-1.916533262E-1	1.282779220E-2	-9.498675168E-2
4.038410680E-1	-2.214321345E-1	-4.428642616E-2	-1.004843712E-1
4.122440890E-1	-2.486148328E-1	-1.003316641E-1	-1.007898003E-1
4.206471100E-1	-2.744231224E-1	-1.466033459E-1	-8.322793990E-2
4.290501310E-1	-2.599155009E-1	-1.760767251E-1	-6.826218218E-2
4.374531510E-1	-2.028012872E-1	-2.467822880E-1	-4.734066129E-2
4.458561720E-1	-1.249182671E-1	-3.625378609E-1	-3.573456407E-2
4.542591930E-1	-3.344388679E-2	-4.640912116E-1	-1.969982497E-2
4.626622140E-1	6.704048812E-2	-4.944808483E-1	4.520269856E-2
4.710652350E-1	1.653869003E-1	-4.159869850E-1	1.238492802E-1
4.794682560E-1	2.525853515E-1	-2.605263591E-1	1.801999360E-1
4.878712760E-1	3.235963285E-1	-9.116895497E-2	2.021904439E-1
4.962742970E-1	3.709369898E-1	1.180462316E-1	1.892099380E-1
5.046773180E-1	4.173613787E-1	3.132119179E-1	1.882936656E-1
5.130803390E-1	4.796678126E-1	4.019374847E-1	2.367033064E-1
5.214833600E-1	5.115845799E-1	4.228590131E-1	2.903051674E-1
5.298863810E-1	5.154023767E-1	3.558185399E-1	3.607053161E-1
5.382894010E-1	5.581616759E-1	3.206948051E-3	4.419479966E-1
5.466924220E-1	8.018897176E-1	-6.762079000E-1	6.855233312E-1
5.550954430E-1	9.506310225E-1	-1.375627995E0	9.857547879E-1
5.634984640E-1	8.956547976E-1	-1.797876239E0	1.146254897E0
5.719014850E-1	9.336800575E-1	-2.037481070E0	1.198024154E0
5.803045060E-1	1.020878434E0	-2.037633657E0	1.259261608E0
5.887075260E-1	1.069593549E0	-1.775122166E0	1.262773991E0
5.971105470E-1	1.131136417E0	-1.396702290E0	1.134954214E0
6.055135680E-1	1.235743999E0	-1.107924223E0	9.732323885E-1
6.139165890E-1	1.318819284E0	-9.058864713E-1	8.480086923E-1
6.223196100E-1	1.380667567E0	-7.971556783E-1	7.692093849E-1
6.307226310E-1	1.447097182E0	-8.009734750E-1	7.661551833E-1
6.391256510E-1	1.515970230E0	-8.244910836E-1	8.535063267E-1
6.475286720E-1	1.555217147E0	-8.073873520E-1	9.341381788E-1
6.559316930E-1	1.581178188E0	-7.342383862E-1	9.002361298E-1
6.643347140E-1	1.609582543E0	-7.411104441E-1	7.892146707E-1
6.727377350E-1	1.638445020E0	-8.315158486E-1	7.148439884E-1
6.811407560E-1	1.656770468E0	-9.726215601E-1	7.415685654E-1
6.895437760E-1	1.649898410E0	-1.150225401E0	8.614473343E-1
6.979467970E-1	1.624090195E0	-1.353790283E0	9.733850956E-1
7.063498180E-1	1.588202834E0	-1.534600973E0	9.897252917E-1
7.147528390E-1	1.563463569E0	-1.640124917E0	9.231429100E-1
7.231558600E-1	1.547123432E0	-1.685633063E0	8.590039611E-1
7.315588810E-1	1.525591016E0	-1.659366608E0	8.086090684E-1
7.399619010E-1	1.513832211E0	-1.562089205E0	7.493568659E-1
7.483649220E-1	1.503600478E0	-1.456107140E0	6.829272509E-1
7.567679430E-1	1.481457353E0	-1.392426372E0	6.090146899E-1
7.651709640E-1	1.451983929E0	-1.362647533E0	5.260922313E-1
7.735739850E-1	1.411515355E0	-1.375780702E0	4.492781460E-1
7.819770060E-1	1.371199369E0	-1.429687977E0	3.915531039E-1
7.903800260E-1	1.336075664E0	-1.464964390E0	3.573456407E-1
7.987830470E-1	1.307213187E0	-1.479472041E0	3.506263196E-1
8.071860680E-1	1.268729806E0	-1.492299795E0	3.405473530E-1
8.155890890E-1	1.223985195E0	-1.456565261E0	2.771719396E-1
8.239921100E-1	1.182905674E0	-1.372879267E0	1.856975704E-1
8.323951310E-1	1.161831498E0	-1.254832983E0	1.041494608E-1
8.407981510E-1	1.149156451E0	-1.077076435E0	4.337015375E-2
8.492011720E-1	1.130067468E0	-8.406785131E-1	-2.153236605E-2
8.576041930E-1	1.083490372E0	-6.224533319E-1	-1.226275861E-1
8.660072140E-1	1.013548255E0	-4.761554301E-1	-2.522799075E-1
8.744102350E-1	9.518527389E-1	-3.895678520E-1	-3.726168275E-1
8.828132560E-1	9.214630723E-1	-3.124483824E-1	-4.598152637E-1
8.912162760E-1	9.139801860E-1	-2.287622988E-1	-5.111264586E-1
8.996192970E-1	9.100096822E-1	-1.240019947E-1	-5.554128885E-1
9.080223180E-1	8.971819282E-1	-3.252761811E-2	-6.116108298E-1
9.164253390E-1	8.643488884E-1	-1.893626526E-2	-6.775823236E-1
9.248283600E-1	8.524373770E-1	-5.497625098E-3	-7.185090780E-1
9.332313810E-1	8.921424150E-1	8.093725890E-2	-6.905628443E-1
9.416344010E-1	9.567395449E-1	2.692309320E-1	-6.497887969E-1
9.500374220E-1	9.993461370E-1	5.121954083E-1	-6.566607952E-1
9.584404430E-1	9.801044464E-1	6.960604787E-1	-7.157602906E-1
9.668434640E-1	9.374978542E-1	7.956285477E-1	-7.915053368E-1
9.752464850E-1	8.973346353E-1	8.483141065E-1	-8.559496999E-1
9.836495060E-1	8.686248064E-1	8.835905790E-1	-9.020686746E-1
9.920525260E-1	8.699992299E-1	9.443698525E-1	-9.232956171E-1
1.000455547E0	8.794673681E-1	1.026376128E0	-9.057337642E-1
1.008858568E0	8.666395545E-1	1.127471328E0	-8.710681796E-1
1.017261589E0	8.249492049E-1	1.237576604E0	-8.484668136E-1
1.025664610E0	7.704311013E-1	1.300646544E0	-8.704573512E-1
1.034067631E0	7.389724851E-1	1.325538516E0	-9.112313986E-1
1.042470651E0	7.321004272E-1	1.331188917E0	-9.518527389E-1
1.050873672E0	7.345438004E-1	1.337602735E0	-1.002400398E0
1.059276693E0	7.317950130E-1	1.314085126E0	-1.040731072E0
1.067679714E0	7.166765332E-1	1.251473308E0	-1.049130201E0
1.076082735E0	6.879667044E-1	1.190999389E0	-1.050504565E0
1.084485756E0	6.519267559E-1	1.146254897E0	-1.074785709E0
1.092888776E0	6.197045445E-1	1.092042208E0	-1.113269091E0
1.101291797E0	6.050441861E-1	1.064859509E0	-1.160762548E0
1.109694818E0	6.022953987E-1	1.075549364E0	-1.202605486E0
1.118097839E0	5.961869359E-1	1.116781473E0	-1.237882018E0
1.126500860E0	5.628957748E-1	1.158624530E0	-1.247502804E0
1.134903881E0	4.984513521E-1	1.194053650E0	-1.253458619E0
1.143306901E0	4.306473136E-1	1.243837714E0	-1.289498568E0
1.151709922E0	3.912476599E-1	1.287971497E0	-1.342336893E0
1.160112943E0	3.834593594E-1	1.321720719E0	-1.366159916E0
1.168515964E0	3.859027624E-1	1.337602735E0	-1.350277901E0
1.176918985E0	3.629959822E-1	1.338671803E0	-1.316528559E0
1.185322006E0	3.162661791E-1	1.339588046E0	-1.275449038E0
1.193725026E0	2.663294077E-1	1.364632726E0	-1.233453274E0
1.202128047E0	2.225011140E-1	1.437781692E0	-1.217113137E0
1.210531068E0	1.769929975E-1	1.576596737E0	-1.228108406E0
1.218934089E0	1.227803007E-1	1.704569221E0	-1.233300567E0
1.227337110E0	5.711421743E-2	1.769471765E0	-1.224748731E0
1.235740131E0	-3.390202299E-2	1.761836171E0	-1.228261113E0
1.244143151E0	-1.545443535E-1	1.585301399E0	-1.201078415E0
1.252546172E0	-2.970244884E-1	1.208866715E0	-1.129151106E0
1.260949193E0	-4.202629030E-1	7.518002391E-1	-1.019351363E0
1.269352214E0	-5.239542127E-1	3.573456407E-1	-8.101361990E-1
1.277755235E0	-7.597413063E-1	9.223793447E-2	-4.049917459E-1
1.286158256E0	-9.274188280E-1	-4.132381678E-1	3.608580232E-1
1.294561276E0	-4.063661397E-1	-1.227650285E0	4.854708612E-1
1.302964297E0	2.548760176E-1	-7.029324770E-1	-2.634278834E-1
1.311367318E0	5.787777901E-2	-2.516690791E-1	-2.199050188E-1
1.319770339E0	-9.252808690E-1	-4.446968138E-1	3.390202224E-1
1.328173360E0	-1.294996142E0	-1.511846930E-1	-8.246437646E-3
1.336576381E0	-9.013051391E-1	-2.053973973E-1	-2.510582209E-1
1.344979401E0	-4.862344265E-1	-3.042019308E-1	-4.947862774E-2
1.353382422E0	-4.553866386E-1	3.680354655E-1	4.492781460E-1
1.361785443E0	-4.352286756E-1	1.051420808E0	1.321720719E0
1.370188464E0	-5.099047422E-1	1.049282908E0	1.866291046E0
1.378591485E0	-6.543701291E-1	3.839175105E-1	1.613400340E0
1.386994506E0	-7.849387527E-1	-2.322746664E-1	7.559235096E-1
1.395397526E0	-8.922951221E-1	-2.098260373E-1	1.498102844E-1
1.403800547E0	-9.323056340E-1	9.727742523E-2	1.411057115E-1
1.412203568E0	-8.681666851E-1	2.113531530E-1	3.564293683E-1
1.420606589E0	-7.821899056E-1	4.734066129E-2	4.621059597E-1
1.429009610E0	-6.873558760E-1	-1.722589284E-1	5.088357925E-1
1.437412631E0	-5.874823332E-1	-2.515163720E-1	5.450284481E-1
1.445815651E0	-5.218162537E-1	-1.302631795E-1	4.581354558E-1
1.454218672E0	-4.822639227E-1	7.207997888E-2	2.255553454E-1
1.462621693E0	-4.524851143E-1	3.264978528E-1	-2.428117767E-2
1.471024714E0	-4.185830951E-1	5.810684562E-1	-1.676775664E-1
1.479427735E0	-3.637595475E-1	6.557445526E-1	-1.728697717E-1
1.487830756E0	-3.269560039E-1	4.795151055E-1	-1.201841980E-1
1.496233776E0	-3.185568452E-1	1.577513069E-1	-7.941014320E-2
1.504636797E0	-3.121429384E-1	-1.052184403E-1	-7.024743408E-2
1.513039818E0	-2.904578745E-1	-2.406738251E-1	-8.567132801E-2
1.521442839E0	-2.689255178E-1	-2.741177082E-1	-1.443126649E-1
1.529845860E0	-2.574721277E-1	-2.249445021E-1	-2.321219593E-1
1.538248881E0	-2.568612695E-1	-1.287360638E-1	-3.066453338E-1
1.546651901E0	-2.544178963E-1	-5.650337320E-3	-3.555130959E-1
1.555054922E0	-2.619007528E-1	9.147437662E-2	-3.762819171E-1
1.563457943E0	-2.799207568E-1	9.513945878E-2	-3.660502136E-1
1.571860964E0	-2.935121059E-1	3.833066672E-2	-3.388675153E-1
1.580263985E0	-3.052709103E-1	-1.618745178E-2	-3.096995652E-1
1.588667006E0	-2.999260128E-1	-2.901524492E-2	-2.877090573E-1
1.597070026E0	-2.793098986E-1	-2.229592577E-2	-2.605263591E-1
1.605473047E0	-2.673983872E-1	-2.473931387E-2	-2.287622988E-1
1.613876068E0	-2.673983872E-1	-1.603474095E-2	-2.079934925E-1
1.622279089E0	-2.707580328E-1	-5.344913341E-3	-1.965401024E-1
1.630682110E0	-2.725905776E-1	3.069507517E-2	-1.867665499E-1
1.639085131E0	-2.586938143E-1	1.076618284E-1	-1.737860441E-1
1.647488151E0	-2.391466945E-1	1.834068894E-1	-1.585148573E-1
1.655891172E0	-2.286095917E-1	1.747023165E-1	-1.301104724E-1
1.664294193E0	-2.350234836E-1	1.203369126E-1	-1.062874198E-1
1.672697214E0	-2.396048307E-1	7.360709459E-2	-9.147437662E-2
1.681100235E0	-2.249445021E-1	3.802524135E-2	-7.711946964E-2
1.689503256E0	-2.142546773E-1	1.038440317E-2	-6.291726977E-2
1.697906276E0	-2.147128135E-1	9.315420873E-3	-5.238015205E-2
1.706309297E0	-2.128802687E-1	2.886253223E-2	-5.833591148E-2
1.714712318E0	-2.024958730E-1	5.238015205E-2	-8.017370105E-2
1.723115339E0	-1.969982386E-1	4.535540938E-2	-1.001789495E-1
1.731518360E0	-1.994416267E-1	4.902049154E-2	-1.159082651E-1
1.739921381E0	-2.011214644E-1	5.864133686E-2	-1.276670843E-1
1.748324401E0	-1.959292591E-1	6.444438547E-2	-1.365243644E-1
1.756727422E0	-1.837123185E-1	4.840964451E-2	-1.369825006E-1
1.765130443E0	-1.714953631E-1	3.955236077E-2	-1.366770715E-1
1.773533464E0	-1.623326540E-1	4.077405483E-2	-1.206423342E-1
1.781936485E0	-1.553079188E-1	4.001049697E-2	-1.151447073E-1
1.790339506E0	-1.420219839E-1	3.405473381E-2	-1.116323397E-1
1.798742526E0	-1.363716573E-1	2.336490713E-2	-9.636115283E-2
1.807145547E0	-1.395785958E-1	6.719320081E-3	-6.795676053E-2
1.815548568E0	-1.430909634E-1	-2.214321308E-2	-4.917320609E-2
1.823951589E0	-1.420219839E-1	-5.558710173E-2	-3.405473381E-2
1.832354610E0	-1.353026628E-1	-7.253811508E-2	-1.740914769E-2
1.840757631E0	-1.212531775E-1	-5.283828825E-2	-5.650337320E-3
1.849160651E0	-1.186570823E-1	-7.330167107E-3	1.710372418E-2
1.857563672E0	-1.166718230E-1	1.786728203E-2	5.741964281E-2
1.865966693E0	-1.110214889E-1	5.115845799E-2	7.773031294E-2
1.874369714E0	-1.020114943E-1	7.605048269E-2	9.147437662E-2
1.882772735E0	-8.918370306E-2	6.200099736E-2	1.227803007E-1
1.891175756E0	-8.353336155E-2	2.550287358E-2	1.551551968E-1
1.899578776E0	-7.605048269E-2	-5.344913341E-3	1.690519750E-1
1.907981797E0	-6.245913357E-2	-1.527118124E-2	1.869192570E-1
1.916384818E0	-5.482354015E-2	-2.260134928E-2	2.142546773E-1
1.924787839E0	-4.749337584E-2	-2.657185495E-2	2.228065431E-1
1.933190860E0	-3.756710514E-2	-3.665083647E-2	2.113531530E-1
1.941593881E0	-2.825168520E-2	-5.451811850E-2	2.006633282E-1
1.949996901E0	-2.046338283E-2	-8.597674966E-2	2.037175596E-1
1.958399922E0	-1.572931744E-2	-1.188097894E-1	2.104368806E-1
1.966802943E0	-1.511846948E-2	-1.412584335E-1	2.073826492E-1
1.975205964E0	-1.068982668E-2	-1.354553849E-1	1.910424829E-1
1.983608985E0	-2.290677279E-3	-1.035386100E-1	1.658450365E-1
1.992012006E0	1.298050396E-2	-7.238540053E-2	1.420219839E-1
2.000415026E0	2.046338283E-2	-5.864133686E-2	1.447708011E-1
2.008818047E0	2.657185495E-2	-7.192726433E-2	1.673721522E-1
2.017221068E0	4.230117425E-2	-9.239064902E-2	1.855448484E-1
2.025624089E0	5.879404768E-2	-1.218640283E-1	1.994416267E-1
2.034027110E0	7.192726433E-2	-1.446180940E-1	2.018850148E-1
2.042430131E0	8.490777016E-2	-1.521009654E-1	2.024958730E-1
2.050833151E0	9.330692142E-2	-1.450762302E-1	2.173089087E-1
2.059236172E0	1.053711548E-1	-1.452289373E-1	2.345653474E-1
2.067639193E0	1.209477559E-1	-1.574458778E-1	2.475458533E-1
2.076042214E0	1.241547018E-1	-1.637070626E-1	2.538070381E-1
2.084445235E0	1.211004704E-1	-1.514901221E-1	2.635805905E-1
2.092848256E0	1.253764033E-1	-1.157555580E-1	2.724378705E-1
2.101251276E0	1.265980899E-1	-6.704048812E-2	2.744231224E-1
2.109654297E0	1.375933439E-1	-2.535016090E-2	2.712161839E-1
2.118057318E0	1.513374150E-1	-4.275931045E-3	2.753393948E-1
2.126460339E0	1.566823274E-1	-1.695101149E-2	2.858765125E-1
2.134863360E0	1.600419879E-1	-4.107947648E-2	2.964136302E-1
2.143266381E0	1.589729935E-1	-4.779879749E-2	3.057290614E-1
2.151669401E0	1.614163816E-1	-3.466558084E-2	3.066453338E-1
2.160072422E0	1.624853760E-1	-8.857285604E-3	3.081724346E-1
2.168475443E0	1.702736765E-1	1.114796288E-2	3.133646548E-1
2.176878464E0	1.803526580E-1	2.550287358E-2	3.174878657E-1
2.185281485E0	1.899735034E-1	2.122694254E-2	3.174878657E-1
2.193684506E0	1.973036677E-1	7.330167107E-3	3.231382072E-1
2.202087526E0	1.992889196E-1	-1.236965694E-2	3.326063454E-1
2.210490547E0	1.896680743E-1	-1.252236869E-2	3.432961702E-1
2.218893568E0	1.763821393E-1	-3.054236295E-4	3.512371778E-1
2.227296589E0	1.708845198E-1	1.206423342E-2	3.471139669E-1
2.235699610E0	1.646233350E-1	3.588727489E-2	3.341334462E-1
2.244102631E0	1.676775664E-1	4.749337584E-2	3.261924386E-1
2.252505651E0	1.800472289E-1	2.611372061E-2	3.303156495E-1
2.260908672E0	1.918060333E-1	-8.399149403E-3	3.675773442E-1
2.269311693E0	2.089097649E-1	4.886778072E-3	4.314108789E-1
2.277714714E0	2.397575527E-1	7.437065244E-2	5.012001991E-1
2.286117735E0	2.637332976E-1	1.415638477E-1	5.668662786E-1
2.294520756E0	2.982461751E-1	1.734806150E-1	6.158867478E-1
2.302923776E0	3.536805511E-1	2.327328026E-1	6.175665855E-1
2.311326797E0	4.022429287E-1	2.840439677E-1	5.856497884E-1
2.319729818E0	4.283566475E-1	2.673983872E-1	5.896202922E-1
2.328132839E0	4.193466306E-1	1.918060333E-1	6.392516494E-1
2.336535860E0	3.797942698E-1	6.139015034E-2	7.102626562E-1
2.344938881E0	3.289412558E-1	-1.006370857E-1	7.805100679E-1
2.353341901E0	2.730487287E-1	-2.325800955E-1	8.368607163E-1
2.361744922E0	2.254026383E-1	-2.773246467E-1	8.767185211E-1
2.370147943E0	1.910424829E-1	-2.148655206E-1	8.926005363E-1
2.378550964E0	1.687465608E-1	-9.132166207E-2	8.648070097E-1
2.386953985E0	1.698155403E-1	3.436015919E-2	8.229639530E-1
2.395357006E0	1.730224788E-1	1.426328421E-1	7.962393761E-1
2.403760026E0	1.672194302E-1	2.299840003E-1	8.043331504E-1
2.412163047E0	1.491994411E-1	2.738122940E-1	8.498412371E-1
2.420566068E0	1.288887709E-1	2.770192325E-1	9.090934396E-1
2.428969089E0	1.374406368E-1	2.264716178E-1	9.124531150E-1
2.437372110E0	1.679829955E-1	2.142546773E-1	9.243646264E-1
2.445775131E0	1.421747059E-1	2.203631550E-1	1.023321867E0
2.454178151E0	1.278197914E-1	2.458660156E-1	1.098914266E0
2.462581172E0	1.385096163E-1	2.596100867E-1	1.129456639E0
2.470984193E0	1.521009654E-1	2.728960216E-1	1.141062737E0
2.479387214E0	1.652341783E-1	3.071034551E-1	1.166260123E0
2.487790235E0	1.882936656E-1	3.480302393E-1	1.213295341E0
2.496193256E0	2.151709497E-1	3.603998721E-1	1.268271565E0
2.504596276E0	2.496838123E-1	3.391729295E-1	1.308587551E0
2.512999297E0	2.870981991E-1	2.915268540E-1	1.347376347E0
2.521402318E0	3.161134422E-1	2.486148328E-1	1.371504784E0
2.529805339E0	3.520007432E-1	2.034121305E-1	1.340809703E0
2.538208360E0	3.906368315E-1	1.543916464E-1	1.209630251E0
2.546611381E0	4.396573007E-1	6.704048812E-2	1.077229142E0
2.555014401E0	4.698942602E-1	-2.412846684E-2	1.018740535E0
2.563417422E0	4.781406820E-1	-8.154810965E-2	1.002094984E0
2.571820443E0	4.888305068E-1	-1.230857223E-1	9.582666159E-1
2.580223464E0	5.066977739E-1	-1.105633527E-1	8.701519370E-1
2.588626485E0	5.224271417E-1	-4.581354442E-4	7.591304183E-1
2.597029506E0	5.335750580E-1	1.853921413E-1	6.429167390E-1
2.605432526E0	5.347967744E-1	4.121691883E-1	5.051707029E-1
2.613835547E0	5.297572613E-1	6.482616663E-1	3.455868363E-1
2.622238568E0	5.111264586E-1	8.883246183E-1	1.763821393E-1
2.630641589E0	4.876088202E-1	1.107771516E0	2.336490713E-2
2.639044610E0	4.564556181E-1	1.273005724E0	-1.105633527E-1
2.647447631E0	4.283566475E-1	1.366923451E0	-2.284568697E-1
2.655850651E0	4.030064642E-1	1.391662717E0	-3.242071867E-1
2.664253672E0	3.826957941E-1	1.366159916E0	-4.037700295E-1
2.672656693E0	3.732276857E-1	1.287207842E0	-4.953971207E-1
2.681059714E0	3.741439581E-1	1.178629756E0	-5.948125124E-1
2.689462735E0	3.657447994E-1	1.067455530E0	-6.650599241E-1
2.697865756E0	3.445178568E-1	9.477295280E-1	-7.104153633E-1
2.706268776E0	3.174878657E-1	8.104416132E-1	-7.586722970E-1
2.714671797E0	2.870981991E-1	6.687250137E-1	-8.162446618E-1
2.723074818E0	2.525853515E-1	5.519005060E-1	-8.761076927E-1
2.731477839E0	2.221956849E-1	4.836383164E-1	-9.420791864E-1
2.739880860E0	1.882936656E-1	4.450022280E-1	-1.003774762E0
2.748283881E0	1.536280811E-1	4.295783341E-1	-1.058903694E0
2.756686901E0	1.209477559E-1	4.370612204E-1	-1.106855273E0
2.765089922E0	9.345962852E-2	4.683671296E-1	-1.158929944E0
2.773492943E0	7.055285573E-2	5.013529062E-1	-1.213753462E0
2.781895964E0	4.581354558E-2	5.199837089E-1	-1.268577099E0
2.790298985E0	2.260134928E-2	5.150969625E-1	-1.327218413E0
2.798702006E0	3.206948051E-3	4.844018817E-1	-1.368603230E0
2.807105026E0	-1.099525020E-2	4.234698713E-1	-1.384027123E0
2.815508047E0	-2.596100792E-2	3.400892019E-1	-1.391204596E0
2.823911068E0	-4.107947648E-2	2.460187376E-1	-1.399298310E0
2.832314089E0	-5.528167635E-2	1.421747059E-1	-1.411209822E0
2.840717110E0	-7.009471953E-2	3.695625812E-2	-1.428924441E0
2.849120131E0	-8.796200156E-2	-5.940489471E-2	-1.446791768E0
2.857523151E0	-1.123958975E-1	-1.371352077E-1	-1.457939744E0
2.865926172E0	-1.397313178E-1	-1.884463727E-1	-1.469698548E0
2.874329193E0	-1.701209545E-1	-2.176143378E-1	-1.487718463E0
2.882732214E0	-1.980672181E-1	-2.220429778E-1	-1.511236072E0
2.891135235E0	-2.254026383E-1	-2.006633282E-1	-1.539029717E0
2.899538256E0	-2.507528067E-1	-1.605001241E-1	-1.564074397E0
2.907941276E0	-2.675510943E-1	-9.193251282E-2	-1.591562510E0
2.916344297E0	-2.757975459E-1	-1.404948719E-2	-1.605917454E0
2.924747318E0	-2.878617644E-1	7.360709459E-2	-1.624701023E0
2.933150339E0	-2.930539846E-1	1.582094431E-1	-1.665933132E0
2.941553360E0	-2.932066917E-1	2.116585821E-1	-1.699529767E0
2.949956381E0	-2.892361879E-1	2.382304370E-1	-1.704722047E0
2.958359401E0	-2.866400778E-1	2.376195788E-1	-1.702889442E0
2.966762422E0	-2.684673667E-1	2.211267054E-1	-1.697544575E0
2.975165443E0	-2.420482337E-1	2.086043358E-1	-1.674790502E0
2.983568464E0	-2.199050188E-1	2.183778882E-1	-1.637681484E0
2.991971485E0	-2.049392611E-1	2.498365343E-1	-1.613553047E0
3.000374506E0	-1.930277348E-1	2.939702570E-1	-1.603474021E0
3.008777526E0	-1.757712960E-1	3.384093940E-1	-1.590340853E0
3.017180547E0	-1.505738497E-1	3.871244490E-1	-1.556744218E0
3.025583568E0	-1.224748790E-1	4.362976551E-1	-1.499477267E0
3.033986589E0	-9.559759498E-2	4.709632397E-1	-1.422663212E0
3.042389610E0	-6.627693027E-2	4.860817194E-1	-1.338671803E0
3.050792631E0	-3.466558084E-2	4.970769584E-1	-1.262468576E0
3.059195651E0	-1.007897966E-2	5.016583204E-1	-1.183669329E0
3.067598672E0	-3.054236295E-3	5.048652887E-1	-1.091431379E0
3.076001693E0	1.221694518E-3	5.057815313E-1	-9.706363082E-1
3.084404714E0	3.512371797E-3	4.834856093E-1	-8.231166601E-1
3.092807735E0	6.108472589E-4	4.509579837E-1	-6.432221532E-1
3.101210756E0	-9.468132630E-3	4.249969721E-1	-4.301891923E-1
3.109613776E0	-2.428117767E-2	4.172086716E-1	-2.391466945E-1
3.118016797E0	-2.458660305E-2	4.414898455E-1	-1.087308154E-1
3.126419818E0	-1.191152167E-2	4.834856093E-1	-2.428117767E-2
3.134822839E0	8.704573847E-3	4.957025647E-1	5.665608495E-2
3.143225860E0	1.954711229E-2	4.494308829E-1	1.459924877E-1
3.151628881E0	9.162708884E-4	3.510844707E-1	2.350234836E-1
3.160031901E0	-4.184303805E-2	2.090624720E-1	3.625378609E-1
3.168434922E0	-1.388150454E-1	1.641651988E-1	5.118899941E-1
3.176837943E0	-3.100049794E-1	3.370349705E-1	6.219952106E-1
3.185240964E0	-4.028537571E-1	6.103891134E-1	5.380037427E-1
3.193643985E0	-7.873821259E-1	8.736643195E-1	-1.119377613E-1
3.202047006E0	-9.265025854E-1	3.901786804E-1	-7.585195899E-1
3.210450026E0	-2.985515893E-1	-4.882196784E-1	-9.028322697E-1
3.218853047E0	4.718795121E-1	-5.086830258E-1	-2.460187376E-1
3.227256068E0	5.627430081E-1	-3.521534503E-1	1.296828747E0
3.235659089E0	2.932066917E-1	-4.459185004E-1	2.271130085E0
3.244062110E0	8.399149403E-3	-4.781406820E-1	1.945243120E0
3.252465131E0	-1.724116355E-1	-6.079457402E-1	8.525900841E-1
3.260868151E0	-2.218902707E-1	-4.098785222E-1	4.947862774E-2
3.269271172E0	-1.861557066E-1	2.658712566E-1	-1.559187621E-1
3.277674193E0	-1.791309565E-1	8.877137899E-1	-4.199574888E-2
3.286083297E0	-1.918060333E-1	1.024390817E0	5.024218559E-2
3.294486318E0	-1.646233350E-1	7.362236381E-1	3.741439432E-2
3.302889339E0	-1.485885978E-1	2.137965411E-1	1.801999472E-2
3.311292359E0	-2.072299272E-1	-2.046338320E-1	1.010952219E-1
3.319695380E0	-2.579302490E-1	-3.258870244E-1	2.229592502E-1
3.328098401E0	-2.293731421E-1	-2.570139766E-1	2.506000996E-1
3.336501422E0	-1.634016484E-1	-1.476723254E-1	1.528645307E-1
3.344904443E0	-1.090362370E-1	-3.298575059E-2	2.458660305E-2
3.353307464E0	-6.474980712E-2	7.757759839E-2	-2.535016090E-2
3.361710484E0	-2.504473738E-2	1.009425074E-1	1.618745178E-2
3.370113505E0	2.260134928E-2	2.061609551E-2	9.239064902E-2
3.378516526E0	6.566607952E-2	-8.674030751E-2	1.692046970E-1
3.386919547E0	9.575030953E-2	-1.742441803E-1	2.715215981E-1
3.395322568E0	1.113269106E-1	-2.055501044E-1	3.571929336E-1
3.403725589E0	1.133121699E-1	-1.835595965E-1	3.883461356E-1
3.412128609E0	1.065928489E-1	-1.243074164E-1	3.808632791E-1
3.420531630E0	1.009425074E-1	-3.573456407E-2	3.692571819E-1
3.428934651E0	9.666658193E-2	4.779879749E-2	3.739912212E-1
3.437337672E0	8.979454637E-2	1.012479365E-1	3.917058110E-1
3.445740693E0	8.170082420E-2	1.232384369E-1	4.048390090E-1
3.454143714E0	8.047912270E-2	1.217113137E-1	4.275930822E-1
3.462546734E0	7.605048269E-2	1.111742035E-1	4.621059597E-1
3.470949755E0	8.307522535E-2	1.068982705E-1	4.877615273E-1
3.479352776E0	9.193251282E-2	1.032331884E-1	4.986040890E-1
3.487755797E0	9.743013978E-2	9.177979827E-2	4.917320311E-1
3.496158818E0	1.035386100E-1	8.521319181E-2	4.769189954E-1
3.504561839E0	1.079672500E-1	8.200624585E-2	4.578300118E-1
3.512964859E0	1.140757278E-1	7.070557028E-2	4.419479966E-1
3.521367880E0	1.131594554E-1	6.016845629E-2	4.346178174E-1
3.529770901E0	1.151447073E-1	4.795150831E-2	4.337015450E-1
3.538173922E0	1.206423342E-1	1.847812906E-2	4.324798584E-1
3.546576943E0	1.246128380E-1	-2.214321308E-2	4.372139275E-1
3.554979964E0	1.197260618E-1	-5.405998230E-2	4.526378214E-1
3.563382984E0	1.212531775E-1	-7.635590434E-2	4.624113739E-1
3.571786005E0	1.290414780E-1	-9.254335612E-2	4.590517282E-1
3.580189026E0	1.430909634E-1	-1.027750522E-1	4.509579837E-1
3.588592047E0	1.583621502E-1	-1.104106456E-1	4.430169761E-1
3.596995068E0	1.692046970E-1	-1.256818175E-1	4.520269632E-1
3.605398089E0	1.745496094E-1	-1.404948682E-1	4.810422063E-1
3.613801109E0	1.756185889E-1	-1.305686086E-1	5.262449384E-1
3.622204130E0	1.750077456E-1	-9.804098308E-2	5.719057322E-1
3.630607151E0	1.702736765E-1	-2.870982140E-2	6.149705052E-1
3.639010172E0	1.670667231E-1	9.345962852E-2	6.569662094E-1
3.647413193E0	1.496575773E-1	2.110477239E-1	6.952968836E-1
3.655816214E0	1.154501289E-1	2.736595869E-1	7.374453545E-1
3.664219234E0	9.636115283E-2	3.078670204E-1	7.780666947E-1
3.672622255E0	9.895725548E-2	3.258870244E-1	8.055548072E-1
3.681025276E0	1.363716573E-1	3.420744538E-1	8.228112459E-1
3.689428297E0	2.089097649E-1	3.234436214E-1	8.452599049E-1
3.697831318E0	2.944283783E-1	1.821851879E-1	8.664868474E-1
3.706234339E0	3.440597057E-1	-6.612421572E-2	8.919897079E-1
3.714637359E0	3.132119179E-1	-2.867927849E-1	9.839222431E-1
3.723040380E0	2.298312783E-1	-4.541649222E-1	1.127471328E0
3.731443401E0	1.539335102E-1	-5.801522136E-1	1.259719729E0
3.739846422E0	1.107160673E-1	-6.213843822E-1	1.342795014E0
3.748249443E0	7.314895838E-2	-5.627430081E-1	1.390746474E0
3.756652464E0	2.412846684E-2	-4.289674759E-1	1.425106645E0
3.765055484E0	-4.260659590E-2	-2.585411072E-1	1.444042921E0
3.773458505E0	-9.880454093E-2	-1.382041872E-1	1.441294074E0
3.781861526E0	-1.108687744E-1	-9.239064902E-2	1.382500052E0
3.790264547E0	-7.162184268E-2	-1.206423342E-1	1.370435834E0
3.798667568E0	-7.910472155E-2	-1.818797737E-1	1.469240427E0
3.807070589E0	-7.482878864E-2	-3.040492237E-1	1.586981177E0
3.815473609E0	-2.672456764E-2	-4.656183124E-1	1.668681979E0
3.823876630E0	2.672456764E-2	-5.813738704E-1	1.719993114E0
3.832279651E0	5.482354015E-2	-6.096255779E-1	1.769013643E0
3.840682672E0	5.482354015E-2	-5.465555787E-1	1.796959877E0
3.849085693E0	3.420744836E-2	-4.253024161E-1	1.791004181E0
3.857488714E0	1.298050396E-2	-3.135173619E-1	1.755880475E0
3.865891734E0	1.832541777E-3	-2.205158621E-1	1.703042150E0
3.874294755E0	9.162708884E-4	-1.664558798E-1	1.654327035E0
3.882697776E0	-1.068982761E-3	-1.571404636E-1	1.615232825E0
3.891100797E0	-1.038440317E-2	-1.641651988E-1	1.563921690E0
3.899503818E0	-1.435491070E-2	-1.527118087E-1	1.489703774E0
3.907906839E0	-2.107422985E-2	-8.719844371E-2	1.394716978E0
3.916309859E0	-3.665083647E-2	2.153236605E-2	1.269951463E0
3.924712880E0	-5.772506446E-2	1.224748790E-1	1.090973258E0
3.933115901E0	-8.536590636E-2	1.902789176E-1	8.554915786E-1
3.941518922E0	-1.201841980E-1	2.127275616E-1	5.954233408E-1
3.949921943E0	-1.537808031E-1	1.856975704E-1	3.521534503E-1
3.958324964E0	-1.861557066E-1	1.142284349E-1	1.282779276E-1
3.966727984E0	-2.081461996E-1	2.137965336E-2	-8.276980370E-2
3.975131005E0	-2.223484069E-1	-8.246438205E-2	-2.791571915E-1
3.983534026E0	-2.386885732E-1	-1.736333370E-1	-4.672981501E-1
3.991937047E0	-2.567085624E-1	-2.446443290E-1	-6.713211536E-1
4.000340068E0	-2.800734639E-1	-3.098522723E-1	-8.932114244E-1
4.008743089E0	-3.122956753E-1	-3.787252903E-1	-1.127929449E0
4.017146109E0	-3.532224298E-1	-4.391991794E-1	-1.356997132E0
4.025549130E0	-3.961344361E-1	-5.033381581E-1	-1.567739487E0
4.033952151E0	-4.350759685E-1	-5.674771070E-1	-1.754658699E0
4.042355172E0	-4.657710493E-1	-6.126797795E-1	-1.924932480E0
4.050758193E0	-4.886777997E-1	-6.181774139E-1	-2.091541052E0
4.059161214E0	-5.109737515E-1	-5.902311802E-1	-2.254484415E0
4.067564234E0	-5.329642296E-1	-5.439594984E-1	-2.422009468E0
4.075967255E0	-5.534276366E-1	-4.679090083E-1	-2.590145111E0
4.084370276E0	-5.670189857E-1	-3.584146202E-1	-2.737359285E0
4.092773297E0	-5.725166202E-1	-2.185306102E-1	-2.855863571E0
4.101176318E0	-5.641174316E-1	-4.596625641E-2	-2.966732502E0
4.109579339E0	-5.477772951E-1	1.530172378E-1	-3.079433680E0
4.117982359E0	-5.218162537E-1	3.784198761E-1	-3.184346676E0
4.126385380E0	-4.868452549E-1	6.218425035E-1	-3.278111696E0
4.134788401E0	-4.489727318E-1	8.466343284E-1	-3.359507322E0
4.143191422E0	-4.141544402E-1	1.010952234E0	-3.427464008E0
4.151594443E0	-3.771981895E-1	1.094638348E0	-3.478469610E0
4.159997464E0	-3.196258247E-1	1.095096469E0	-3.470223188E0
4.168400484E0	-2.504473627E-1	9.772028923E-1	-3.394172907E0
4.176803505E0	-1.814216375E-1	7.664605975E-1	-3.293688536E0
4.185206526E0	-1.059819981E-1	5.292991400E-1	-3.147543192E0
4.193609547E0	-3.710897267E-2	2.812951505E-1	-2.912977934E0
4.202012568E0	1.114796288E-2	5.451811850E-2	-2.649397373E0
4.210415589E0	3.665083647E-2	-9.086353332E-2	-2.411930323E0
4.218818609E0	2.275406010E-2	-1.461452097E-1	-2.147128105E0
4.227221630E0	-2.702999115E-2	-1.542389393E-1	-1.845674992E0
4.235624651E0	-7.482878864E-2	-1.053711548E-1	-1.567739487E0
4.244027672E0	-8.414421231E-2	-2.443389036E-2	-1.245364904E0
4.252430693E0	-6.154286116E-2	-4.734066315E-3	-7.869240046E-1
4.260833714E0	-6.963659078E-2	2.290677279E-3	-3.472666740E-1
4.269236734E0	-6.749862432E-2	-5.787777901E-2	8.215895295E-2
4.277639755E0	-3.161134571E-2	-2.669402659E-1	6.262711287E-1
4.286042776E0	-4.520269856E-2	-4.770717025E-1	1.257734537E0
4.294445797E0	-1.805053651E-1	-5.062396526E-1	1.818797708E0
4.302848818E0	-8.116632700E-1	1.754658818E-1	1.625464559E0
4.311251839E0	-1.656770468E0	1.217113137E0	3.252761662E-1
4.319654859E0	-1.260177851E0	1.796654463E0	-1.230093718E0
4.328057880E0	3.370349705E-1	1.991820216E0	-1.057071209E0
4.336460901E0	7.510367036E-1	9.527690411E-1	1.939592719E0
4.344863922E0	4.407263100E-1	1.450762246E-2	4.122913361E0
4.353266943E0	5.192201585E-2	-5.832064152E-1	3.794125080E0
4.361669964E0	-3.677300513E-1	-1.151905179E0	1.935774922E0
4.370072984E0	-4.300364852E-1	-1.043327093E0	7.084301114E-1
4.378476005E0	-2.828222811E-1	-3.002314270E-1	6.365028620E-1
4.386879026E0	-2.249445021E-1	7.430956960E-1	7.870767117E-1
4.395282047E0	-3.471139669E-1	1.362952948E0	7.220214605E-1
4.403685068E0	-3.297048211E-1	1.493063450E0	5.517477989E-1
4.412088089E0	-2.024958730E-1	1.177560806E0	4.957025647E-1
4.420491109E0	-1.550024897E-1	5.954233408E-1	5.488462448E-1
4.428894130E0	-1.940967143E-1	2.244863659E-1	6.809419990E-1
4.437297151E0	-1.701209545E-1	4.611896724E-2	9.113841057E-1
4.445700172E0	-1.001789495E-1	-7.528692484E-2	1.046992183E0
4.454103193E0	-5.344913527E-2	-1.050657257E-1	9.865183234E-1
4.462506214E0	-2.779355086E-2	-2.916795574E-2	8.991671801E-1
4.470909234E0	-7.330167107E-3	9.834641218E-2	8.721371889E-1
4.479312255E0	9.009997360E-3	2.246390730E-1	8.620582223E-1
4.487715276E0	1.679829881E-2	2.849602401E-1	8.328902125E-1
4.496118297E0	3.191677108E-2	2.822114229E-1	8.327375054E-1
4.504521318E0	4.138490185E-2	2.351761907E-1	8.658760190E-1
4.512924339E0	4.230117425E-2	1.546970755E-1	9.054283500E-1
4.521327359E0	2.855710872E-2	6.032116711E-2	9.272661209E-1
4.529730380E0	1.267508045E-2	9.009997360E-3	9.191724062E-1
4.538133401E0	-3.054236295E-4	-3.054236295E-4	8.855758309E-1
4.546536422E0	-1.068982761E-3	2.076880634E-2	8.215895891E-1
4.554939443E0	-7.635590737E-4	4.825693369E-2	7.554653287E-1
4.563342464E0	-3.512371797E-3	4.581354558E-2	7.065975666E-1
4.571745484E0	-4.734066315E-3	1.145338640E-2	6.769714952E-1
4.580148505E0	-5.497625098E-3	-1.710372418E-2	6.681141853E-1
4.588551526E0	-3.206948051E-3	-3.038965166E-2	6.624638438E-1
4.596954547E0	6.872031838E-3	-2.687728032E-2	6.450546980E-1
4.605357568E0	1.649287529E-2	-5.497625098E-3	6.178719997E-1
4.613760589E0	2.535016090E-2	6.872031838E-3	6.021426916E-1
4.622163609E0	3.268032894E-2	-6.108472589E-4	5.935907960E-1
4.630566630E0	4.932591692E-2	-1.099525020E-2	5.963396430E-1
4.638969651E0	6.230641901E-2	-2.321219631E-2	6.149705052E-1
4.647372672E0	7.314895838E-2	-4.214845970E-2	6.302416325E-1
4.655775693E0	8.765657991E-2	-6.413896382E-2	6.345176101E-1
4.664178714E0	1.010952219E-1	-6.856760383E-2	6.368082762E-1
4.672581734E0	1.123958975E-1	-6.169557199E-2	6.314633489E-1
4.680984755E0	1.241547018E-1	-4.871506989E-2	6.183301210E-1
4.689387776E0	1.349972486E-1	-2.901524492E-2	6.022953987E-1
4.697790797E0	1.453816444E-1	-1.053711493E-2	5.885513425E-1
4.706193818E0	1.533226669E-1	-7.941014133E-3	5.845808387E-1
4.714596839E0	1.566823274E-1	-1.740914769E-2	5.888567567E-1
4.722999859E0	1.588202864E-1	-2.000524849E-2	5.963396430E-1
4.731402880E0	1.539335102E-1	-6.719320081E-3	6.015318632E-1
4.739805901E0	1.469087601E-1	2.947338112E-2	6.062659025E-1
4.748208922E0	1.397313178E-1	8.750387281E-2	6.168029904E-1
4.756611943E0	1.285833418E-1	1.452289373E-1	6.284091473E-1
4.765014964E0	1.145338640E-1	1.714953631E-1	6.394043565E-1
4.773417984E0	1.026223376E-1	1.511846930E-1	6.623111367E-1
4.781821005E0	8.948912472E-2	8.582404256E-2	7.139277458E-1
4.790224026E0	7.101099193E-2	-1.603474095E-2	7.899782062E-1
4.798627047E0	4.902049154E-2	-1.180462316E-1	8.846595287E-1
4.807030068E0	3.329117596E-2	-1.971509457E-1	9.912523627E-1
4.815433089E0	2.916795574E-2	-2.440334857E-1	1.103648305E0
4.823836109E0	5.390727147E-2	-2.391466945E-1	1.206575990E0
4.832239130E0	1.159082651E-1	-2.156290859E-1	1.281862974E0
4.840642151E0	1.641651988E-1	-2.817533016E-1	1.333479524E0
4.849045172E0	1.707318127E-1	-4.103366435E-1	1.395175099E0
4.857448193E0	1.337755471E-1	-4.318690002E-1	1.565754294E0
4.865851214E0	5.024218559E-2	-4.367557764E-1	1.764585018E0
4.874254234E0	-4.550812021E-2	-4.937172830E-1	1.845827699E0
4.882657255E0	-7.788302749E-2	-5.952706337E-1	1.922794461E0
4.891060276E0	-6.551336497E-2	-6.053496599E-1	2.102689028E0
4.899463297E0	-7.024743594E-3	-5.395308137E-1	2.278002024E0
4.907866318E0	1.009425074E-1	-4.253024161E-1	2.305032015E0
4.916269339E0	2.246390730E-1	-3.284831047E-1	2.199966431E0
4.924672359E0	3.509317636E-1	-2.029540092E-1	2.067718029E0
4.933075380E0	4.340069890E-1	9.315420873E-3	1.995943427E0
4.941478401E0	4.508052766E-1	2.556395829E-1	1.996859670E0
4.949881422E0	4.356867969E-1	4.308000207E-1	2.010298252E0
4.958284443E0	3.836120665E-1	4.567610323E-1	1.950435281E0
4.966687464E0	3.387148082E-1	3.365768492E-1	1.725948930E0
4.975090484E0	3.361186981E-1	1.308740228E-1	1.381125689E0
4.983493505E0	3.677300513E-1	-8.658760041E-2	1.076923728E0
4.991896526E0	4.045335948E-1	-3.066453338E-1	9.797990322E-1
5.000299547E0	3.694098890E-1	-4.547757804E-1	1.033859015E0
5.008702568E0	3.081724346E-1	-5.653391480E-1	1.031415582E0
5.017105589E0	2.751866877E-1	-6.229115129E-1	8.721371889E-1
5.025508609E0	2.654131353E-1	-5.270084739E-1	5.793886185E-1
5.033911630E0	2.522799075E-1	-2.899997234E-1	2.562504113E-1
5.042314651E0	2.377723008E-1	-3.206948051E-3	-6.123743951E-2
5.050717672E0	2.263189107E-1	2.307475507E-1	-3.616215885E-1
5.059120693E0	2.160872221E-1	3.246653080E-1	-6.248967648E-1
5.067523714E0	1.908897758E-1	2.958027720E-1	-8.477032781E-1
5.075926734E0	1.589729935E-1	2.028012872E-1	-1.030652046E0
5.084329755E0	1.313321590E-1	9.147437662E-2	-1.180462360E0
5.092732776E0	1.088835225E-1	-7.635590737E-4	-1.319582820E0
5.101135797E0	8.704573661E-2	-5.818320066E-2	-1.477944970E0
5.109538818E0	5.497625470E-2	-9.483403713E-2	-1.652189136E0
5.117941839E0	1.038440317E-2	-1.349972486E-1	-1.831625462E0
5.126344859E0	-4.596625641E-2	-1.919587553E-1	-2.006480455E0
5.134747880E0	-1.032331884E-1	-2.596100867E-1	-2.155832767E0
5.143150901E0	-1.525591016E-1	-3.301629424E-1	-2.273878813E0
5.151553922E0	-1.985253543E-1	-3.888042867E-1	-2.372988939E0
5.159956943E0	-2.441861928E-1	-4.126273096E-1	-2.472557068E0
5.168359964E0	-2.901524603E-1	-4.211791754E-1	-2.585411072E0
5.176762984E0	-3.355078697E-1	-4.094203711E-1	-2.713536263E0
5.185166005E0	-3.820849657E-1	-3.881934285E-1	-2.836163759E0
5.193569026E0	-4.347705245E-1	-3.532224298E-1	-2.948559761E0
5.201972047E0	-4.804313779E-1	-3.013004065E-1	-3.055152655E0
5.210375068E0	-5.147915483E-1	-2.571666837E-1	-3.156553268E0
5.218778089E0	-5.454866290E-1	-2.127275616E-1	-3.255968571E0
5.227181109E0	-5.752654076E-1	-1.637070626E-1	-3.346832037E0
5.235584130E0	-5.969504714E-1	-9.788827598E-2	-3.423035383E0
5.243987151E0	-6.122216582E-1	-2.550287358E-2	-3.478927851E0
5.252390172E0	-6.073349118E-1	5.375456065E-2	-3.518785715E0
5.260793193E0	-5.700731874E-1	1.006370857E-1	-3.538485527E0
5.269196214E0	-5.129590034E-1	7.040014863E-2	-3.553603888E0
5.277599234E0	-4.123218954E-1	-4.978405312E-2	-3.532682419E0
5.286002255E0	-2.741177082E-1	-2.732014358E-1	-3.447010994E0
5.294405276E0	-1.411057115E-1	-5.761816502E-1	-3.286052942E0
5.302808297E0	-1.771457121E-2	-8.455653191E-1	-3.003077745E0
5.311211318E0	5.818320066E-2	-1.013395548E0	-2.642067194E0
5.319614339E0	9.177979827E-2	-1.000720501E0	-2.318776131E0
5.328017359E0	9.575030953E-2	-7.962393761E-1	-2.074742794E0
5.336420380E0	6.994201243E-2	-4.130854607E-1	-1.885380030E0
5.344823401E0	2.183778957E-2	5.558710173E-2	-1.695253849E0
5.353226422E0	-2.458660305E-2	5.169295073E-1	-1.480388284E0
5.361629443E0	-2.046338283E-2	7.711946368E-1	-1.157860994E0
5.370032464E0	-1.679830020E-3	8.177717924E-1	-7.261446714E-1
5.378435484E0	-1.527118147E-3	6.810947061E-1	-2.516690791E-1
5.386838505E0	-8.399149776E-2	4.668400288E-1	1.766875684E-1
5.395241526E0	-3.955236077E-1	2.556395829E-1	6.250494719E-1
5.403644547E0	-8.773293495E-1	-8.322793990E-2	9.865183234E-1
5.412047568E0	-1.686854720E0	1.725643501E-2	6.003101468E-1
5.420450589E0	-2.153542042E0	7.907418013E-1	-6.161921620E-1
5.428853609E0	-7.727217674E-1	1.318666577E0	-1.075702071E0
5.437256630E0	8.525900841E-1	9.434536099E-1	9.626953006E-1
5.445659651E0	1.005301833E0	4.902049154E-2	3.982876778E0
5.454062672E0	8.272398710E-1	6.566607952E-2	4.134672165E0
5.462465693E0	4.596625566E-1	-2.044811249E-1	2.556243181E0
5.470868714E0	-1.359135211E-1	-1.322942495E0	1.187028885E0
5.479271734E0	-3.620797098E-1	-1.716022611E0	1.021947503E0
5.487674755E0	-2.950392365E-1	-9.552124143E-1	1.337602735E0
5.496077776E0	-2.487675399E-1	2.428117767E-2	1.344016671E0
5.504480797E0	-3.150444627E-1	5.537330508E-1	1.046075940E0
5.512883818E0	-3.768927455E-1	7.734853625E-1	7.488987446E-1
5.521286839E0	-3.463504016E-1	1.052184463E0	5.946598053E-1
5.529689859E0	-2.269297540E-1	1.225054145E0	5.491516590E-1
5.538092880E0	-1.175880954E-1	1.103953719E0	5.199837089E-1
5.546495901E0	-7.146912813E-2	7.258392572E-1	5.225798488E-1
5.554898922E0	-4.489727318E-2	3.405473530E-1	6.418477297E-1
5.563301943E0	-1.145338640E-2	3.054236248E-2	8.777875304E-1
5.571704964E0	3.833066672E-2	-2.157817930E-1	1.066997409E0
5.580107984E0	7.589777559E-2	-3.520007432E-1	1.084559321E0
5.588511005E0	1.001789495E-1	-3.228327632E-1	9.993461370E-1
5.596914026E0	1.119377613E-1	-1.146865711E-1	8.880192041E-1
5.605317047E0	1.101052165E-1	1.776038408E-1	7.510367036E-1
5.613720068E0	1.053711548E-1	4.185830951E-1	5.984776020E-1
5.622123089E0	7.895200700E-2	5.370874405E-1	4.698942602E-1
5.630526109E0	5.146388337E-2	4.993676245E-1	4.030064642E-1
5.638929130E0	2.901524492E-2	3.310792148E-1	3.993414044E-1
5.647332151E0	1.114796288E-2	1.007898003E-1	4.362976551E-1
5.655735172E0	1.832541777E-3	-1.232384369E-1	4.966188073E-1
5.664138193E0	9.620844387E-3	-2.893888950E-1	5.479300022E-1
5.672541214E0	2.855710872E-2	-3.602471650E-1	5.613686442E-1
5.680944234E0	5.283828825E-2	-3.394783735E-1	5.387672782E-1
5.689347255E0	7.635590434E-2	-2.596100867E-1	4.969242513E-1
5.697750276E0	9.254335612E-2	-1.684411317E-1	4.378247857E-1
5.706153297E0	1.096470803E-1	-8.872556686E-2	3.804051280E-1
5.714556318E0	1.175880954E-1	-3.787253052E-2	3.382566571E-1
5.722959339E0	1.313321590E-1	-3.558185324E-2	3.219164908E-1
5.731362359E0	1.357607991E-1	-5.894676223E-2	3.190149665E-1
5.739765380E0	1.403421611E-1	-8.353336155E-2	3.405473530E-1
5.748168401E0	1.441599578E-1	-9.529217333E-2	3.820849657E-1
5.756571422E0	1.485885978E-1	-8.872556686E-2	4.265241027E-1
5.764974443E0	1.579040140E-1	-6.872031838E-2	4.610369802E-1
5.773377464E0	1.638597846E-1	-5.161659420E-2	4.842491746E-1
5.781780484E0	1.666085869E-1	-3.680354729E-2	5.095993280E-1
5.790183505E0	1.704263836E-1	-1.863084175E-2	5.387672782E-1
5.798586526E0	1.727170646E-1	-9.315420873E-3	5.706840754E-1
5.806989547E0	1.731752008E-1	-3.970507067E-3	5.989357233E-1
5.815392568E0	1.759240031E-1	4.581354558E-3	6.310052276E-1
5.823795589E0	1.754658818E-1	2.764083818E-2	6.762079000E-1
5.832198609E0	1.747023165E-1	6.719319522E-2	7.302678823E-1
5.840601630E0	1.780619770E-1	1.079672500E-1	7.925743461E-1
5.849004651E0	1.676775664E-1	1.270562261E-1	8.635852933E-1
5.857407672E0	1.478250325E-1	1.262926757E-1	9.416210651E-1
5.865810693E0	1.224748790E-1	1.327065676E-1	1.032179117E0
5.874213714E0	9.605573118E-2	1.485885978E-1	1.129609346E0
5.882616734E0	8.032641560E-2	1.502684206E-1	1.236507535E0
5.891019755E0	9.101624042E-2	1.308740228E-1	1.357608080E0
5.899422776E0	1.264453828E-1	1.009425074E-1	1.488482118E0
5.907825797E0	1.450762302E-1	-2.825168520E-2	1.610040665E0
5.916228818E0	1.136175916E-1	-2.396048307E-1	1.681204319E0
5.924631839E0	6.123743951E-2	-4.017847776E-1	1.812842011E0
5.933034859E0	1.068982761E-3	-4.827220440E-1	2.078713179E0
5.941437880E0	-1.404948719E-2	-4.928010404E-1	2.247307062E0
5.949840901E0	-5.650337320E-3	-4.453076422E-1	2.340155840E0
5.958243922E0	-1.527118147E-4	-3.477247953E-1	2.423689127E0
5.966646943E0	7.101099193E-2	-2.180724740E-1	2.456064224E0
5.975049964E0	1.791309565E-1	-1.058292910E-1	2.413915634E0
5.983452984E0	2.982461751E-1	3.390202299E-2	2.312362194E0
5.991856005E0	3.755183518E-1	2.142546773E-1	2.203325987E0
6.000259026E0	3.976615667E-1	4.162923992E-1	2.110171795E0
6.008662047E0	3.868190348E-1	6.039752364E-1	2.027402163E0
6.017065068E0	3.387148082E-1	7.461498976E-1	1.922794461E0
6.025468089E0	2.791571915E-1	7.495095730E-1	1.685022116E0
6.033871109E0	2.909159958E-1	6.048914790E-1	1.226123214E0
6.042274130E0	3.477247953E-1	3.588727713E-1	7.221741676E-1
6.050677151E0	4.482091665E-1	-2.137965336E-2	5.056288242E-1
6.059080172E0	4.301891923E-1	-3.483356535E-1	5.696150661E-1
6.067483193E0	3.501681983E-1	-6.099309921E-1	6.592568755E-1
6.075886214E0	3.429907262E-1	-8.257128000E-1	5.813738704E-1
6.084289234E0	3.907895386E-1	-8.603783846E-1	2.912214398E-1
6.092692255E0	3.978142738E-1	-7.021689415E-1	-8.170082420E-2
6.101095276E0	3.639122546E-1	-4.346178174E-1	-4.480564594E-1
6.109498297E0	3.416163325E-1	-1.374406368E-1	-7.892146707E-1
6.117901318E0	3.420744538E-1	8.017370105E-2	-1.086849928E0
6.126304339E0	3.448232710E-1	2.002051920E-1	-1.323553324E0
6.134707359E0	3.365768492E-1	2.651077211E-1	-1.504974961E0
6.143110380E0	3.246653080E-1	3.127537966E-1	-1.651272893E0
6.151513401E0	3.177932799E-1	3.663556576E-1	-1.796043634E0
6.159916422E0	3.043546379E-1	4.391991794E-1	-1.957001925E0
6.168319443E0	2.828222811E-1	5.167768002E-1	-2.136438370E0
6.176722464E0	2.677038014E-1	5.632011890E-1	-2.339392185E0
6.185125484E0	2.447970361E-1	5.416688323E-1	-2.538223028E0
6.193528505E0	2.112004459E-1	4.665345848E-1	-2.698112249E0
6.201931526E0	1.731752008E-1	3.344388604E-1	-2.797527790E0
6.210334547E0	1.420219839E-1	1.977618039E-1	-2.881519318E0
6.218737568E0	1.136175916E-1	8.200624585E-2	-2.953599215E0
6.227140589E0	7.375980914E-2	1.068982668E-2	-3.018807173E0
6.235543609E0	2.550287358E-2	2.290677279E-3	-3.093636036E0
6.243946630E0	-2.870982140E-2	4.764608666E-2	-3.182208776E0
6.252349651E0	-8.383878320E-2	1.462979168E-1	-3.280249834E0
6.260752672E0	-1.444653720E-1	2.808370292E-1	-3.378748894E0
6.269155693E0	-2.102841735E-1	4.109475017E-1	-3.470681429E0
6.277558714E0	-2.713688910E-1	5.201364160E-1	-3.552993059E0
6.285961734E0	-3.119902313E-1	5.897729993E-1	-3.602777243E0
6.294364755E0	-3.122956753E-1	5.725166202E-1	-3.606595039E0
6.302767776E0	-2.812951505E-1	4.468347728E-1	-3.584757090E0
6.311170797E0	-2.304421216E-1	1.922641695E-1	-3.515731335E0
6.319573818E0	-1.780619770E-1	-2.243336588E-1	-3.378748894E0
6.327976839E0	-1.133121699E-1	-6.852179170E-1	-3.172740698E0
6.336379859E0	-3.405473381E-2	-1.086239100E0	-2.880755663E0
6.344782880E0	3.894151375E-2	-1.387692213E0	-2.516537905E0
6.353185901E0	4.764608666E-2	-1.521620512E0	-2.161941051E0
6.361588922E0	-1.252236869E-2	-1.485275149E0	-1.881104112E0
6.369991943E0	-1.122431830E-1	-1.276670814E0	-1.695253849E0
6.378394964E0	-1.899735034E-1	-9.565867782E-1	-1.555217147E0
6.386797984E0	-2.113531530E-1	-5.926745534E-1	-1.356233597E0
6.395201005E0	-1.995943487E-1	-2.634278834E-1	-1.026223421E0
6.403604026E0	-1.742441803E-1	-4.871506989E-2	-6.042806506E-1
6.412007047E0	-1.310267299E-1	1.557660475E-2	-1.777565479E-1
6.420410068E0	-8.933641016E-2	-3.894151375E-2	2.021904439E-1
6.428813089E0	-9.651386738E-2	-1.296523362E-1	5.506787896E-1
6.437216109E0	-1.653869003E-1	-1.785201132E-1	9.248227477E-1
6.445619130E0	-2.925958335E-1	-1.623326540E-1	1.309351087E0
6.454022151E0	-1.071884274E0	3.629959822E-1	1.119377613E0
6.462425172E0	-2.516079903E0	1.225817680E0	2.473931387E-2
6.470828193E0	-2.564642191E0	1.567128658E0	-1.495659471E0
6.479231214E0	-2.866400778E-1	1.735417008E0	-1.263079405E0
6.487634234E0	9.672766328E-1	1.065928459E0	2.201951742E0
6.496037255E0	1.117086887E0	4.071297050E-1	5.300932407E0
6.504440276E0	6.681141853E-1	7.689039707E-1	4.711006641E0
6.512843297E0	-4.485146105E-1	-7.711946964E-2	2.429950476E0
6.521246318E0	-7.434011102E-1	-1.092958450E0	1.016297102E0
6.529649339E0	-2.470877171E-1	-9.261971712E-1	1.145644069E0
6.538052359E0	-1.618745178E-1	2.394521236E-1	1.519940734E0
6.546455380E0	-5.086830258E-1	9.532271624E-1	1.412584305E0
6.554858401E0	-5.777087808E-1	1.120293856E0	1.052184463E0
6.563261422E0	-2.971771955E-1	1.004385591E0	7.982246280E-1
6.571664443E0	-1.944021434E-1	8.251019120E-1	6.612421870E-1
6.580067464E0	-1.985253543E-1	6.752916574E-1	6.169557571E-1
6.588470484E0	-1.812689304E-1	4.164451063E-1	7.125533223E-1
6.596873505E0	-1.501157135E-1	1.809635013E-1	8.049439788E-1
6.605276526E0	-1.479777545E-1	3.955236077E-2	8.532009125E-1
6.613679547E0	-1.536280811E-1	-1.027750522E-1	8.565605879E-1
6.622082568E0	-1.117850468E-1	-2.037175596E-1	7.879929543E-1
6.630485589E0	-6.032116711E-2	-1.855448484E-1	7.114843726E-1
6.638888609E0	-4.123219103E-2	-1.006370857E-1	6.948387623E-1
6.647291630E0	-3.115320951E-2	-1.985253580E-2	7.044596076E-1
6.655694651E0	-2.702999115E-2	2.901524492E-2	6.726955175E-1
6.664097672E0	-2.596100792E-2	5.085303262E-2	6.300889254E-1
6.672500693E0	-3.268032894E-2	5.161659420E-2	6.059604883E-1
6.680903714E0	-4.917320609E-2	2.977880463E-2	5.896202922E-1
6.689306734E0	-5.665608495E-2	-8.093725890E-3	5.793886185E-1
6.697709755E0	-6.093201414E-2	-5.176930502E-2	5.789304972E-1
6.706112776E0	-6.062658876E-2	-9.437590092E-2	5.706840754E-1
6.714515797E0	-4.428642616E-2	-1.360662282E-1	5.551074743E-1
6.722918818E0	-3.145863488E-2	-1.514901221E-1	5.396835804E-1
6.731321839E0	-2.214321308E-2	-1.374406368E-1	5.222744346E-1
6.739724859E0	-1.298050396E-2	-9.193251282E-2	5.002838969E-1
6.748127880E0	-0.000000000E0	-1.557660475E-2	4.863871336E-1
6.756530901E0	9.773556143E-3	5.787777901E-2	4.818057716E-1
6.764933922E0	1.954711229E-2	9.193251282E-2	4.683671296E-1
6.773336943E0	3.038965166E-2	7.986827940E-2	4.498890042E-1
6.781739964E0	3.130592033E-2	2.794626169E-2	4.645493329E-1
6.790142984E0	2.031067200E-2	-1.588202827E-2	4.969242513E-1
6.798546005E0	1.740914769E-2	-8.704573847E-3	5.268557668E-1
6.806949026E0	1.572931744E-2	4.046862945E-2	5.512896776E-1
6.815352047E0	1.893626526E-2	8.903098851E-2	5.615213513E-1
6.823755068E0	2.916795574E-2	1.212531775E-1	5.676298141E-1
6.832158089E0	3.878879920E-2	1.320957243E-1	5.832064152E-1
6.840561109E0	4.092676565E-2	1.168245375E-1	6.174138784E-1
6.848964130E0	4.230117425E-2	7.895200700E-2	6.549809575E-1
6.857367151E0	4.474456236E-2	4.856235534E-2	6.942279339E-1
6.865770172E0	4.535540938E-2	5.543438718E-2	7.374453545E-1
6.874173193E0	5.375456065E-2	1.047603041E-1	7.837170362E-1
6.882576214E0	5.864133686E-2	1.406475753E-1	8.353336453E-1
6.890979234E0	6.337540597E-2	1.354553849E-1	8.776348233E-1
6.899382255E0	5.741964281E-2	1.012479365E-1	9.144383669E-1
6.907785276E0	4.260659590E-2	6.734590977E-2	9.584193230E-1
6.916188297E0	2.336490713E-2	4.321744293E-2	1.022100210E0
6.924591318E0	6.108472589E-3	1.634016447E-2	1.096470833E0
6.932994339E0	4.428642802E-3	-3.542914242E-2	1.170994163E0
6.941397359E0	2.535016090E-2	-1.175880954E-1	1.238187432E0
6.949800380E0	6.551336497E-2	-2.371614426E-1	1.296065211E0
6.958203401E0	8.612946421E-2	-4.373666346E-1	1.329356313E0
6.966606422E0	7.620319724E-2	-6.233696342E-1	1.350736022E0
6.975009443E0	2.535016090E-2	-6.991146803E-1	1.407392025E0
6.983412464E0	-6.719319522E-2	-7.240067124E-1	1.503447771E0
6.991815484E0	-1.006370857E-1	-7.911999226E-1	1.506043911E0
7.000218505E0	-7.101099193E-2	-8.484668136E-1	1.525285602E0
7.008621526E0	-6.551336497E-2	-8.845068216E-1	1.707776189E0
7.017024547E0	-2.321219631E-2	-8.223531246E-1	1.901109338E0
7.025427568E0	6.291726977E-2	-7.130114436E-1	1.975938201E0
7.033830589E0	1.543916464E-1	-5.720584393E-1	1.966622710E0
7.042233609E0	2.298312783E-1	-3.869717419E-1	1.948144674E0
7.050636630E0	2.974826097E-1	-2.183778882E-1	1.963263035E0
7.059039651E0	3.709369898E-1	-7.391251624E-2	1.985711694E0
7.067442672E0	4.202629030E-1	2.580829710E-2	2.026638508E0
7.075845693E0	4.422534108E-1	8.276980370E-2	2.087112427E0
7.084248714E0	4.384356141E-1	1.156028435E-1	2.141019583E0
7.092651734E0	4.068242610E-1	1.540862173E-1	2.158123255E0
7.101054755E0	3.552076817E-1	2.304421216E-1	2.114905834E0
7.109457776E0	2.942756712E-1	3.500154912E-1	1.951962471E0
7.117860797E0	2.105895877E-1	5.296045542E-1	1.585454106E0
7.126263818E0	1.653869003E-1	5.836645365E-1	1.115254402E0
7.134666839E0	2.467822880E-1	2.991624475E-1	8.034168482E-1
7.143069859E0	3.335226178E-1	-1.501157135E-1	7.650861740E-1
7.151472880E0	2.877090573E-1	-5.851916671E-1	8.632798791E-1
7.159875901E0	1.808107942E-1	-9.605573416E-1	9.283351302E-1
7.168278922E0	1.589729935E-1	-1.183058381E0	8.272398710E-1
7.176681943E0	1.881409585E-1	-1.187487125E0	5.523586273E-1
7.185084964E0	1.919587553E-1	-1.016144395E0	1.714953631E-1
7.193487984E0	1.513374150E-1	-7.324058414E-1	-2.435753495E-1
7.201891005E0	8.429691941E-2	-4.121691883E-1	-6.322268844E-1
7.210294026E0	1.527118124E-2	-1.513374150E-1	-9.634588361E-1
7.218697047E0	-4.795150831E-2	-1.466033421E-2	-1.227650285E0
7.227100068E0	-1.010952219E-1	9.620844387E-3	-1.445111871E0
7.235503089E0	-1.365243644E-1	-2.458660305E-2	-1.642415524E0
7.243906109E0	-1.577513069E-1	-7.543963939E-2	-1.823837161E0
7.252309130E0	-1.679829955E-1	-1.185043678E-1	-2.002051830E0
7.260712151E0	-1.748550236E-1	-1.232384369E-1	-2.186069727E0
7.269115172E0	-1.817270666E-1	-1.316375881E-1	-2.369476557E0
7.277518193E0	-1.885990947E-1	-1.763821393E-1	-2.548301935E0
7.285921214E0	-2.011214644E-1	-2.617480457E-1	-2.721935272E0
7.294324234E0	-2.194468826E-1	-3.582619131E-1	-2.873425484E0
7.302727255E0	-2.350234836E-1	-4.692834020E-1	-2.992540836E0
7.311130276E0	-2.490729690E-1	-5.865660906E-1	-3.085847616E0
7.319533297E0	-2.600682080E-1	-6.896465421E-1	-3.175184011E0
7.327936318E0	-2.678565085E-1	-7.233958840E-1	-3.262077093E0
7.336339339E0	-2.816005945E-1	-6.827745438E-1	-3.326063395E0
7.344742359E0	-2.993151546E-1	-5.522059202E-1	-3.410512924E0
7.353145380E0	-3.190149665E-1	-2.956500649E-1	-3.512524366E0
7.361548401E0	-3.478775024E-1	2.290677279E-2	-3.601555347E0
7.369951422E0	-3.817795515E-1	4.071297050E-1	-3.698527336E0
7.378354443E0	-4.121691883E-1	8.064711094E-1	-3.805273056E0
7.386757464E0	-4.170559645E-1	1.161831498E0	-3.895678282E0
7.395160484E0	-3.819322586E-1	1.422968745E0	-3.943935394E0
7.403563505E0	-3.167243004E-1	1.530783176E0	-3.933703661E0
7.411966526E0	-2.211267054E-1	1.434269309E0	-3.860860109E0
7.420369547E0	-1.064401343E-1	1.111742020E0	-3.705552101E0
7.428772568E0	1.343864016E-2	6.285618544E-1	-3.463504076E0
7.437175589E0	1.389677525E-1	1.275143623E-1	-3.099438906E0
7.445578609E0	2.312056869E-1	-2.828222811E-1	-2.595795393E0
7.453981630E0	2.386885732E-1	-5.657972693E-1	-2.082530975E0
7.462384651E0	1.693574041E-1	-6.478035450E-1	-1.711899400E0
7.470787672E0	5.909947306E-2	-5.323534012E-1	-1.466491580E0
7.479190693E0	-4.993676394E-2	-2.728960216E-1	-1.219251156E0
7.487593714E0	-1.342336833E-1	3.130592033E-2	-9.032903910E-1
7.495996734E0	-1.592784226E-1	2.454078794E-1	-4.960079789E-1
7.504399755E0	-1.484358907E-1	2.770192325E-1	-3.619270027E-2
7.512802776E0	-1.324011385E-1	1.527118087E-1	4.358395338E-1
7.521205797E0	-1.114796251E-1	-2.214321308E-2	9.304730892E-1
7.529608818E0	-2.596100867E-1	6.612421572E-2	1.414111376E0
7.538011839E0	-9.266552925E-1	7.372926474E-1	1.557355046E0
7.546414859E0	-1.633863688E0	1.645775199E0	9.216157794E-1
7.554817880E0	-1.655243397E0	2.248528719E0	-7.853968740E-1
7.563220901E0	-7.375980914E-2	2.332367659E0	-1.510930657E0
7.571623922E0	7.814263701E-1	1.542236567E0	7.464553714E-1
7.580026943E0	5.653391480E-1	4.894413650E-1	3.773356199E0
7.588429964E0	9.727742523E-2	-6.536065787E-2	4.509121895E0
7.596832984E0	-3.710896969E-1	-8.967237473E-1	3.189233541E0
7.605236005E0	-4.410317242E-1	-1.334243178E0	1.529103398E0
7.613639026E0	-2.959555089E-1	-1.079977989E0	9.000834227E-1
7.622042047E0	-2.982461751E-1	9.315420687E-2	9.307785034E-1
7.630445068E0	-4.645493329E-1	1.063637733E0	8.716790676E-1
7.638848089E0	-4.669927359E-1	1.521315098E0	6.499415040E-1
7.647251109E0	-2.660239935E-1	1.515359282E0	4.333961308E-1
7.655654130E0	-1.976090819E-1	1.085017443E0	3.295520842E-1
7.664057151E0	-2.414373755E-1	5.966450572E-1	3.680354655E-1
7.672460172E0	-2.790044844E-1	2.730487287E-1	6.427640319E-1
7.680863193E0	-2.644968629E-1	1.120904684E-1	9.828532338E-1
7.689266214E0	-2.176143378E-1	-8.551862091E-3	1.079061627E0
7.697669234E0	-1.455343664E-1	-9.819369763E-2	9.671239257E-1
7.706072255E0	-8.353336155E-2	-7.345438004E-2	8.399149776E-1
7.714475276E0	-5.741964281E-2	6.352811307E-2	7.983773947E-1
7.722878297E0	-4.016320780E-2	1.976090819E-1	7.898254991E-1
7.731281318E0	-1.130067464E-2	2.732014358E-1	7.849387527E-1
7.739684339E0	1.175880991E-2	2.802261710E-1	7.956285477E-1
7.748087359E0	3.038965166E-2	2.429644912E-1	8.211314082E-1
7.756490380E0	4.520269856E-2	1.794363856E-1	8.255600929E-1
7.764893401E0	4.703523964E-2	1.233911440E-1	7.892146707E-1
7.773296422E0	4.153761268E-2	8.093725890E-2	7.412631512E-1
7.781699443E0	3.542914242E-2	4.428642616E-2	6.934643388E-1
7.790102464E0	3.619270027E-2	2.031067200E-2	6.426113248E-1
7.798505484E0	4.001049697E-2	-1.649287529E-2	6.016845703E-1
7.806908505E0	4.749337584E-2	-7.207997888E-2	5.770979524E-1
7.815311526E0	5.665608495E-2	-1.114796251E-1	5.398362875E-1
7.823714547E0	6.306997687E-2	-1.236965731E-1	4.944808483E-1
7.832117568E0	7.269082218E-2	-1.056765765E-1	4.504998624E-1
7.840520589E0	8.506047726E-2	-7.345438004E-2	4.017847776E-1
7.848923609E0	9.651386738E-2	-6.032116711E-2	3.611634374E-1
7.857326630E0	1.072036922E-1	-6.978929788E-2	3.324536085E-1
7.865729651E0	1.185043678E-1	-9.315420687E-2	3.239017725E-1
7.874132672E0	1.227803007E-1	-1.227803007E-1	3.170297146E-1
7.882535693E0	1.244601309E-1	-1.418692768E-1	3.086305857E-1
7.890938714E0	1.201841980E-1	-1.308740228E-1	3.167243004E-1
7.899341734E0	1.139230132E-1	-9.437590092E-2	3.374931216E-1
7.907744755E0	1.149920002E-1	-5.253286287E-2	3.655920923E-1
7.916147776E0	1.177408099E-1	-3.619270027E-2	4.020902216E-1
7.924550797E0	1.156028435E-1	-6.459710002E-2	4.523324072E-1
7.932953818E0	1.123958975E-1	-1.201841980E-1	5.157077909E-1
7.941356839E0	1.047603041E-1	-1.783674061E-1	5.848862529E-1
7.949759859E0	9.391776472E-2	-2.112004459E-1	6.529957056E-1
7.958162880E0	8.017370105E-2	-2.063136548E-1	7.160657048E-1
7.966565901E0	6.887302548E-2	-1.592784226E-1	7.766922712E-1
7.974968922E0	6.306997687E-2	-6.948387623E-2	8.525900841E-1
7.983371943E0	6.215370819E-2	3.390202299E-2	9.547542930E-1
7.991774964E0	4.871506989E-2	1.015533581E-1	1.090362310E0
8.000177984E0	3.527642787E-2	1.241547018E-1	1.248113632E0
8.008581005E0	1.298050396E-2	9.407047927E-2	1.425259352E0
8.016984026E0	1.068982761E-3	4.840964451E-2	1.607139111E0
8.025387047E0	3.313846514E-2	1.893626526E-2	1.766417503E0
8.033790068E0	9.849911928E-2	-8.246437646E-3	1.886907220E0
8.042193089E0	1.269035190E-1	-1.252236813E-1	1.969829679E0
8.050596109E0	7.437065244E-2	-3.116848171E-1	2.026180267E0
8.058999130E0	-3.924693540E-2	-4.321744442E-1	2.070924997E0
8.067402151E0	-1.708845198E-1	-5.364766121E-1	2.142241240E0
8.075805172E0	-2.461714447E-1	-7.038487792E-1	2.140866995E0
8.084208193E0	-2.040229887E-1	-8.331956863E-1	2.134605646E0
8.092611214E0	-1.637070626E-1	-9.703308940E-1	2.263799906E0
8.101014234E0	-1.067455560E-1	-9.898779988E-1	2.353289127E0
8.109417255E0	-1.374406274E-3	-8.828269839E-1	2.285485029E0
8.117820276E0	1.113269106E-1	-7.617265582E-1	2.144684792E0
8.126223297E0	2.055501044E-1	-6.511631608E-1	2.008160353E0
8.134626318E0	2.774773538E-1	-5.202891231E-1	1.959445238E0
8.143029339E0	3.048127890E-1	-4.149180055E-1	1.988613248E0
8.151432359E0	2.915268540E-1	-3.794888556E-1	2.028929234E0
8.159835380E0	2.512109280E-1	-3.830012381E-1	2.031067133E0
8.168238401E0	2.014268786E-1	-3.617742956E-1	1.989834905E0
8.176641422E0	1.282779276E-1	-2.699944973E-1	1.814827204E0
8.185044443E0	5.940489471E-2	-1.133121699E-1	1.434422135E0
8.193447464E0	7.238540053E-2	-1.079672500E-1	1.008661509E0
8.201850484E0	1.652341783E-1	-2.889307439E-1	7.437065244E-1
8.210253505E0	1.945548505E-1	-5.288410187E-1	6.522321701E-1
8.218656526E0	1.058292910E-1	-7.887565494E-1	6.684195995E-1
8.227059547E0	5.024218559E-2	-9.962918758E-1	6.597150564E-1
8.235462568E0	7.467607409E-2	-1.032331824E0	5.234960914E-1
8.243865589E0	1.105633527E-1	-8.672503829E-1	2.591519356E-1
8.252268609E0	1.180462316E-1	-5.583143830E-1	-6.780404598E-2
8.260671630E0	1.085781008E-1	-1.878355294E-1	-3.970507085E-1
8.269074651E0	9.865183383E-2	1.372879148E-1	-6.823163629E-1
8.277477672E0	1.058292910E-1	3.116848171E-1	-9.177979827E-1
8.285880693E0	1.178935245E-1	3.187095523E-1	-1.108993173E0
8.294283714E0	1.267508119E-1	2.452551723E-1	-1.249946237E0
8.302686734E0	1.330119967E-1	1.647760421E-1	-1.337755442E0
8.311089755E0	1.351499557E-1	1.081199646E-1	-1.396854997E0
8.319492776E0	1.276670843E-1	8.124268800E-2	-1.486802220E0
8.327895797E0	1.070509851E-1	7.467607409E-2	-1.630504012E0
8.336298818E0	6.704048812E-2	6.917845458E-2	-1.803984642E0
8.344701839E0	1.527118124E-2	7.253811508E-2	-1.968608022E0
8.353104859E0	-1.939439960E-2	7.666133344E-2	-2.109866381E0
8.361507880E0	-4.062134400E-2	6.444438547E-2	-2.233562946E0
8.369910901E0	-6.154286116E-2	3.374931216E-2	-2.343973637E0
8.378313922E0	-8.582404256E-2	-1.389677543E-2	-2.433768272E0
8.386716943E0	-1.160609797E-1	-7.406523079E-2	-2.518828630E0
8.395119964E0	-1.444653720E-1	-1.308740228E-1	-2.611219406E0
8.403522984E0	-1.667613089E-1	-1.747023165E-1	-2.697959661E0
8.411926005E0	-1.844758689E-1	-2.183778882E-1	-2.785768986E0
8.420329026E0	-2.021904439E-1	-2.626643181E-1	-2.883198977E0
8.428732047E0	-2.246390730E-1	-2.991624475E-1	-2.986584902E0
8.437135068E0	-2.580829561E-1	-3.408527672E-1	-3.081724405E0
8.445538089E0	-2.936648130E-1	-3.794888556E-1	-3.158538580E0
8.453941109E0	-3.290939629E-1	-3.634541333E-1	-3.225579023E0
8.462344130E0	-3.683409095E-1	-2.602209449E-1	-3.273377657E0
8.470747151E0	-4.136963189E-1	-7.773031294E-2	-3.327743053E0
8.479150172E0	-4.558447599E-1	1.681357026E-1	-3.408375025E0
8.487553193E0	-5.041016936E-1	4.442386627E-1	-3.515273333E0
8.495956214E0	-5.418215394E-1	7.142331600E-1	-3.595599651E0
8.504359234E0	-5.592306852E-1	9.055810571E-1	-3.621866226E0
8.512762255E0	-5.334223509E-1	9.907942414E-1	-3.623393297E0
8.521165276E0	-4.346178174E-1	9.141329527E-1	-3.583535433E0
8.529568297E0	-3.309265077E-1	6.190937161E-1	-3.467474461E0
8.537971318E0	-1.924168915E-1	2.061609477E-1	-3.239170313E0
8.546374339E0	-1.099525020E-2	-2.235700935E-1	-2.870371342E0
8.554777359E0	1.495048702E-1	-5.812211633E-1	-2.427965164E0
8.563180380E0	2.026485801E-1	-8.354863524E-1	-2.065427303E0
8.571583401E0	1.472141892E-1	-9.289459586E-1	-1.814063668E0
8.579986422E0	2.596100792E-3	-8.814526200E-1	-1.612331390E0
8.588389443E0	-1.177408099E-1	-6.910209656E-1	-1.376697063E0
8.596792464E0	-1.831014603E-1	-3.886515796E-1	-1.117697716E0
8.605195484E0	-1.994416267E-1	-1.061347127E-1	-8.276980519E-1
8.613598505E0	-1.606528312E-1	6.459710002E-2	-4.648547769E-1
8.622001526E0	-9.300149232E-2	1.542389393E-1	-3.573456407E-2
8.630404547E0	-4.764608666E-2	2.209739983E-1	4.256078303E-1
8.638807568E0	-5.604523420E-2	2.521272004E-1	8.819107413E-1
8.647210589E0	-2.354816198E-1	3.391729295E-1	1.287665963E0
8.655613609E0	-7.404996157E-1	5.932853818E-1	1.527881742E0
8.664016630E0	-1.649592996E0	1.285375357E0	1.149003744E0
8.672419651E0	-2.162246466E0	1.828418612E0	-3.100049868E-2
8.680822672E0	-9.865183234E-1	1.887365341E0	-1.037065983E0
8.689225693E0	4.691306949E-1	1.563005447E0	1.895153672E-1
8.697628714E0	6.430694461E-1	6.241331697E-1	3.281166077E0
8.706031734E0	5.088357925E-1	4.567610323E-1	4.466820717E0
8.714434755E0	5.589252338E-2	-6.810946763E-2	3.622935057E0
8.722837776E0	-4.060607255E-1	-1.101204872E0	2.192025423E0
8.731240797E0	-4.338542521E-1	-1.642720938E0	1.480082870E0
8.739643818E0	-3.374931216E-1	-9.681929350E-1	1.453663707E0
8.748046839E0	-4.204156399E-1	1.704263836E-1	1.350430608E0
8.756449859E0	-5.670189857E-1	9.379559755E-1	1.042410851E0
8.764852880E0	-4.937172830E-1	1.313932419E0	6.803311110E-1
8.773255901E0	-3.141281903E-1	1.496117592E0	4.752391577E-1
8.781658922E0	-2.293731421E-1	1.384790778E0	4.492781460E-1
8.790061943E0	-2.451024652E-1	9.796462655E-1	5.170822144E-1
8.798464964E0	-2.560977042E-1	4.729484916E-1	6.765133142E-1
8.806867984E0	-2.304421216E-1	8.383878320E-2	8.677085042E-1
8.815271005E0	-2.063136548E-1	-1.298050433E-1	1.001484036E0
8.823674026E0	-1.838650256E-1	-2.108950168E-1	1.028514028E0
8.832077047E0	-1.382041872E-1	-1.673721522E-1	9.565867782E-1
8.840480068E0	-8.964183182E-2	5.803049076E-3	8.432746530E-1
8.848883089E0	-5.589252338E-2	2.150182426E-1	7.492041588E-1
8.857286109E0	-3.649812192E-2	3.689517379E-1	6.769714952E-1
8.865689130E0	-1.771457121E-2	4.278984964E-1	6.264238358E-1
8.874092151E0	-1.038440317E-2	3.848337829E-1	6.032116413E-1
8.882495172E0	-1.038440317E-2	2.846548259E-1	6.001574397E-1
8.890898193E0	-1.313321572E-2	1.792836636E-1	6.123743653E-1
8.899301214E0	-2.764083818E-2	7.467607409E-2	6.213843822E-1
8.907704234E0	-3.939964995E-2	-2.031067200E-2	6.067240238E-1
8.916107255E0	-4.077405483E-2	-7.116370648E-2	5.657972693E-1
8.924510276E0	-3.985778242E-2	-8.078455180E-2	5.265503526E-1
8.932913297E0	-3.634541109E-2	-7.070557028E-2	5.010474920E-1
8.941316318E0	-3.405473381E-2	-7.238540053E-2	4.778352678E-1
8.949719339E0	-2.702999115E-2	-1.078145429E-1	4.563029110E-1
8.958122359E0	-2.015795931E-2	-1.572931707E-1	4.384356141E-1
8.966525380E0	-1.954711229E-2	-1.931804419E-1	4.321744442E-1
8.974928401E0	-1.099525020E-2	-2.089097649E-1	4.375193417E-1
8.983331422E0	-4.123218823E-3	-2.131856978E-1	4.349232614E-1
8.991734443E0	1.985253533E-3	-2.061609477E-1	4.323271513E-1
9.000137464E0	6.413896102E-3	-1.882936656E-1	4.457657933E-1
9.008540484E0	4.581354558E-3	-1.566823274E-1	4.692834020E-1
9.016943505E0	2.290677279E-3	-1.279724985E-1	5.007420182E-1
9.025346526E0	7.635590737E-4	-1.152974218E-1	5.274665952E-1
9.033749547E0	-2.596100792E-3	-1.070509851E-1	5.590779781E-1
9.042152568E0	-5.192201585E-3	-1.047603041E-1	6.116108298E-1
9.050555589E0	-1.084253844E-2	-9.972081333E-2	6.682668924E-1
9.058958609E0	-1.496575773E-2	-1.038440317E-1	7.175928354E-1
9.067361630E0	-1.740914769E-2	-1.094943732E-1	7.534800768E-1
9.075764651E0	-2.214321308E-2	-1.052184403E-1	7.937960029E-1
9.084167672E0	-2.779355086E-2	-9.132166207E-2	8.464815617E-1
9.092570693E0	-3.497100621E-2	-7.910472155E-2	9.161182046E-1
9.100973714E0	-3.833066672E-2	-6.688777357E-2	9.885035753E-1
9.109376734E0	-3.649812192E-2	-4.520269856E-2	1.045006990E0
9.117779755E0	-3.573456407E-2	-1.679829881E-2	1.085170150E0
9.126182776E0	-3.512371704E-2	4.581354442E-4	1.127013206E0
9.134585797E0	-4.734066129E-2	-1.588202827E-2	1.185654521E0
9.142988818E0	-6.749862432E-2	-6.520794332E-2	1.260635972E0
9.151391839E0	-7.605048269E-2	-1.354553849E-1	1.356844425E0
9.159794859E0	-6.505523622E-2	-1.768402755E-1	1.456107140E0
9.168197880E0	-4.963133857E-2	-1.533226669E-1	1.545901656E0
9.176600901E0	-2.199050039E-2	-1.956238300E-1	1.618439794E0
9.185003922E0	2.290677279E-3	-3.387148082E-1	1.656465054E0
9.193406943E0	-6.872031838E-2	-4.251496792E-1	1.774969459E0
9.201809964E0	-1.459924877E-1	-5.441122055E-1	1.926154137E0
9.210212984E0	-1.824906170E-1	-7.409577370E-1	2.026333094E0
9.218616005E0	-1.866138428E-1	-9.335273504E-1	2.172325611E0
9.227019026E0	-1.294996142E-1	-1.012632012E0	2.332673073E0
9.235422047E0	-8.551862091E-3	-9.988879561E-1	2.414373875E0
9.243825068E0	1.579040140E-1	-8.359444737E-1	2.370698214E0
9.252228089E0	2.880144715E-1	-5.402944088E-1	2.285790443E0
9.260631109E0	3.891097009E-1	-2.069245130E-1	2.251888514E0
9.269034130E0	4.588989913E-1	6.001574174E-2	2.286706686E0
9.277437151E0	4.677563012E-1	1.211004704E-1	2.370851040E0
9.285840172E0	4.133908749E-1	2.916795574E-2	2.429645061E0
9.294243193E0	3.222219348E-1	-3.054236248E-2	2.418497086E0
9.302646214E0	2.145601064E-1	1.725643501E-2	2.325800896E0
9.311049234E0	1.229330078E-1	7.635590434E-2	2.033205032E0
9.319452255E0	9.376505762E-2	9.208522737E-2	1.488634825E0
9.327855276E0	1.969982386E-1	-2.328855246E-1	9.743013978E-1
9.336258297E0	3.642176688E-1	-7.789829373E-1	7.609629631E-1
9.344661318E0	3.837648034E-1	-1.273005724E0	8.999307156E-1
9.353064339E0	2.654131353E-1	-1.632336617E0	1.187945247E0
9.361467359E0	1.875301152E-1	-1.795280099E0	1.351804972E0
9.369870380E0	1.997470558E-1	-1.744427085E0	1.200620294E0
9.378273401E0	1.889045089E-1	-1.470767498E0	7.800519466E-1
9.386676422E0	1.316375881E-1	-9.738432169E-1	2.221956849E-1
9.395079443E0	7.238540053E-2	-3.162661791E-1	-3.310792148E-1
9.403482464E0	3.451287001E-2	3.155026138E-1	-7.870767117E-1
9.411885484E0	-5.344913341E-3	6.998782754E-1	-1.130831003E0
9.420288505E0	-6.734590977E-2	7.794411182E-1	-1.402047157E0
9.428691526E0	-1.342336833E-1	6.157340407E-1	-1.615690947E0
9.437094547E0	-1.734806150E-1	3.304683566E-1	-1.755727768E0
9.445497568E0	-1.780619770E-1	1.801999472E-2	-1.854379535E0
9.453900589E0	-1.594311297E-1	-2.504473627E-1	-1.973189354E0
9.462303609E0	-1.462979168E-1	-4.570664763E-1	-2.140103340E0
9.470706630E0	-1.588202864E-1	-6.215370893E-1	-2.334505558E0
9.479109651E0	-1.980672181E-1	-7.585195899E-1	-2.526311636E0
9.487512672E0	-2.441861928E-1	-8.530482054E-1	-2.708191395E0
9.495915693E0	-2.857238054E-1	-9.214630723E-1	-2.886405945E0
9.504318714E0	-3.217637837E-1	-9.683456421E-1	-3.054236412E0
9.512721734E0	-3.579564989E-1	-1.001331329E0	-3.208933353E0
9.521124755E0	-3.970507085E-1	-1.000720501E0	-3.349733591E0
9.529527776E0	-4.239279926E-1	-9.710944295E-1	-3.486716270E0
9.537930797E0	-4.445441067E-1	-8.703046441E-1	-3.640496969E0
9.546333818E0	-4.700469673E-1	-7.073611021E-1	-3.794735909E0
9.554736839E0	-5.059342384E-1	-4.900522232E-1	-3.957373857E0
9.563139859E0	-5.387672782E-1	-1.956238300E-1	-4.135588646E0
9.571542880E0	-5.607577562E-1	1.701209545E-1	-4.309985638E0
9.579945901E0	-5.624375939E-1	5.271611810E-1	-4.460101128E0
9.588348922E0	-5.265503526E-1	8.014315963E-1	-4.570053577E0
9.596751943E0	-4.614951015E-1	9.434536099E-1	-4.632359982E0
9.605154964E0	-3.585673273E-1	9.031376839E-1	-4.634039879E0
9.613557984E0	-2.467822880E-1	6.578825116E-1	-4.544092655E0
9.621961005E0	-1.288887709E-1	1.980672181E-1	-4.317773819E0
9.630364026E0	-6.872031838E-3	-3.805578351E-1	-3.936605215E0
9.638767047E0	1.046075895E-1	-9.274188280E-1	-3.419675589E0
9.647170068E0	1.827960461E-1	-1.335312128E0	-2.884878874E0
9.655573089E0	1.831014603E-1	-1.511083364E0	-2.415290117E0
9.663976109E0	8.078455180E-2	-1.406323075E0	-2.047101974E0
9.672379130E0	7.788302377E-3	-1.128540277E0	-1.703958392E0
9.680782151E0	-8.017370105E-2	-6.317687631E-1	-1.382958174E0
9.689185172E0	-1.771457046E-1	-5.085303262E-2	-9.929322004E-1
9.697588193E0	-2.709107697E-1	5.216635466E-1	-4.761554301E-1
9.705991214E0	-3.834593594E-1	1.017824292E0	1.980672181E-1
9.714394234E0	-5.291464329E-1	1.330730796E0	1.096470833E0
9.722797255E0	-8.105943203E-1	1.552621007E0	1.987086177E0
9.731200276E0	-1.592173338E0	2.283805132E0	1.422357798E0
9.739603297E0	-1.370893955E0	2.774468184E0	-5.419742465E-1
9.748006318E0	3.955236077E-1	3.202977657E0	-2.069397688E0
9.756409339E0	9.020686746E-1	2.561588049E0	4.543176591E-1
9.764812359E0	9.361234307E-2	6.161921620E-1	4.214998722E0
9.773215380E0	-4.494308829E-1	-1.698155403E-1	5.012612820E0
9.781618401E0	-5.470137000E-1	-9.290986657E-1	3.596668720E0
9.790021422E0	-3.355078697E-1	-1.573389769E0	1.863847733E0
9.798424443E0	-3.431434333E-1	-1.200620294E0	1.141368151E0
9.806827464E0	-4.477510452E-1	4.688252881E-2	9.793408513E-1
9.815230484E0	-5.016583204E-1	1.086849928E0	7.896727920E-1
9.823633505E0	-3.778090179E-1	1.531394124E0	5.265503526E-1
9.832036526E0	-2.651077211E-1	1.285680771E0	3.843756318E-1
9.840439547E0	-2.631224692E-1	8.244910836E-1	3.910949528E-1
9.848842568E0	-2.780882120E-1	4.480564594E-1	6.496360302E-1
9.857245589E0	-2.321219593E-1	1.348445266E-1	9.680401683E-1
9.865648609E0	-1.814216375E-1	-1.437018216E-1	1.085475564E0
9.874051630E0	-1.568350345E-1	-3.799470067E-1	1.006370902E0
9.882454651E0	-1.181989461E-1	-4.033119082E-1	9.144383669E-1
9.890857672E0	-9.697200358E-2	-2.744231224E-1	8.554915786E-1
9.899260693E0	-6.642963737E-2	-7.055285573E-2	7.759287357E-1
9.907663714E0	-3.161134571E-2	1.247655526E-1	6.685723066E-1
9.916066734E0	-9.315420873E-3	2.707580328E-1	5.885513425E-1
9.924469755E0	1.068982761E-3	3.161134422E-1	5.671716928E-1
9.932872776E0	4.886778072E-3	2.560977042E-1	5.714476109E-1
9.941275797E0	-4.581354442E-4	1.475196183E-1	5.810684562E-1
9.949678818E0	-6.719320081E-3	4.840964451E-2	6.073349118E-1
9.958081839E0	-8.246437646E-3	-2.977880463E-2	6.290199757E-1
9.966484859E0	-4.581354558E-3	-8.704573661E-2	6.168029904E-1
9.974887880E0	2.596100792E-3	-9.910997003E-2	5.882459283E-1
9.983290901E0	6.108472589E-3	-8.307522535E-2	5.659499764E-1
9.991693922E0	9.315420873E-3	-6.276455522E-2	5.534276366E-1
1.000009694E1	1.007897966E-2	-4.062134400E-2	5.502206683E-1
1.000849996E1	1.068982668E-2	-2.260134928E-2	5.567872524E-1
1.001690298E1	9.315420873E-3	-2.993151546E-2	5.757235289E-1
1.002530601E1	8.857285604E-3	-6.291726977E-2	6.007682681E-1
1.003370903E1	6.413896102E-3	-8.612946421E-2	6.236750484E-1
1.004211205E1	4.734066315E-3	-7.375980914E-2	6.548282504E-1
1.005051507E1	3.359660041E-3	-3.863608837E-2	6.812474132E-1
1.005891809E1	6.261184346E-3	-1.527118124E-2	6.888830066E-1
1.006732111E1	7.177455351E-3	-1.527118124E-2	6.919372082E-1
1.007572413E1	9.926267900E-3	-1.466033421E-2	7.079719901E-1
1.008412715E1	1.068982668E-2	-6.108472589E-4	7.420266867E-1
1.009253017E1	1.664558798E-2	1.389677543E-2	7.748597264E-1
1.010093319E1	1.740914769E-2	3.008422814E-2	8.070819378E-1
1.010933621E1	1.557660475E-2	4.443913698E-2	8.420529366E-1
1.011773923E1	1.298050396E-2	5.467082933E-2	8.788564801E-1
1.012614226E1	9.468132630E-3	8.063183725E-2	9.187142849E-1
1.013454528E1	2.748812549E-3	1.047603041E-1	9.607100487E-1
1.014294830E1	1.527118147E-4	1.160609797E-1	1.003927469E0
1.015135132E1	-3.054236295E-4	1.166718230E-1	1.059209108E0
1.015975434E1	-6.413896102E-3	1.166718230E-1	1.123500824E0
1.016815736E1	-1.023169141E-2	1.340809762E-1	1.184280157E0
1.017656038E1	-1.343864016E-2	1.884463727E-1	1.244295835E0
1.018496340E1	-1.068982668E-2	2.637332976E-1	1.298508525E0
1.019336642E1	-3.970507067E-3	3.228327632E-1	1.333174109E0
1.020176944E1	-5.192201585E-3	3.319954872E-1	1.359287858E0
1.021017246E1	-1.359135192E-2	2.912214398E-1	1.408002973E0
1.021857548E1	-2.214321308E-2	2.174616307E-1	1.492605329E0
1.022697850E1	-2.504473738E-2	1.392731816E-1	1.600572586E0
1.023538153E1	-7.024743594E-3	9.483403713E-2	1.722894669E0
1.024378455E1	3.603998944E-2	8.612946421E-2	1.841246367E0
1.025218757E1	1.029277667E-1	9.636115283E-2	1.935011387E0
1.026059059E1	1.575985998E-1	1.036913246E-1	1.983726501E0
1.026899361E1	1.443126649E-1	1.244601309E-1	2.012130976E0
1.027739663E1	9.330692142E-2	1.366770715E-1	2.100398302E0
1.028579965E1	5.100574717E-2	5.940489471E-2	2.214168549E0
1.029420267E1	1.985253580E-2	-1.566823274E-1	2.288233757E0
1.030260569E1	2.794626169E-2	-4.010212123E-1	2.328244209E0
1.031100871E1	1.010952219E-1	-5.770979524E-1	2.363826275E0
1.031941173E1	2.243336588E-1	-6.290199757E-1	2.374057770E0
1.032781476E1	3.559712470E-1	-4.869979918E-1	2.375890493E0
1.033621778E1	4.353813827E-1	-2.716743052E-1	2.406127453E0
1.034462080E1	4.514161348E-1	-1.363716573E-1	2.414526463E0
1.035302382E1	4.237752855E-1	-1.169772521E-1	2.350845575E0
1.036142684E1	3.636068404E-1	-1.317902952E-1	2.278460264E0
1.036982986E1	2.631224692E-1	-1.088835225E-1	2.252499342E0
1.037823288E1	1.812689304E-1	-2.687728032E-2	2.200424433E0
1.038663590E1	1.091889441E-1	7.238540053E-2	1.962499499E0
1.039503892E1	1.298050396E-2	1.400367320E-1	1.365243673E0
1.040344194E1	4.947862774E-2	-1.690519750E-1	6.769714952E-1
1.041184496E1	2.890834510E-1	-1.001942158E0	2.567085624E-1
1.042024798E1	4.999784827E-1	-1.954100370E0	3.677300513E-1
1.042865100E1	4.239279926E-1	-2.592130423E0	8.617527485E-1
1.043705403E1	2.470877171E-1	-2.885795116E0	1.289956689E0
1.044545705E1	2.002051920E-1	-2.979407549E0	1.339129925E0
1.045386007E1	2.504473627E-1	-2.874189138E0	9.584193230E-1
1.046226309E1	2.423536479E-1	-2.476527452E0	3.698680103E-1
1.047066611E1	1.884463727E-1	-1.739845753E0	-2.191414535E-1
1.047906913E1	1.372879148E-1	-7.681404352E-1	-6.884248853E-1
1.048747215E1	1.041494608E-1	1.658450365E-1	-1.052031636E0
1.049587517E1	4.993676394E-2	8.076927662E-1	-1.379751205E0
1.050427819E1	-2.977880463E-2	1.106549859E0	-1.678913713E0
1.051268121E1	-1.078145429E-1	1.138313890E0	-1.906912446E0
1.052108423E1	-1.510319859E-1	1.039662004E0	-2.038855553E0
1.052948726E1	-1.605001241E-1	8.713735938E-1	-2.076269865E0
1.053789028E1	-1.553079188E-1	6.600204706E-1	-2.060387850E0
1.054629330E1	-1.513374150E-1	4.112529159E-1	-2.065579891E0
1.055469632E1	-1.527118087E-1	1.388150454E-1	-2.123457670E0
1.056309934E1	-1.685938388E-1	-1.401894391E-1	-2.220124245E0
1.057150236E1	-1.855448484E-1	-3.683409095E-1	-2.341835737E0
1.057990538E1	-1.994416267E-1	-5.186093450E-1	-2.450871944E0
1.058830840E1	-2.234173864E-1	-6.051968932E-1	-2.541429996E0
1.059671142E1	-2.663294077E-1	-6.157340407E-1	-2.631682634E0
1.060511444E1	-3.205420971E-1	-5.496098399E-1	-2.723767996E0
1.061351746E1	-3.692571819E-1	-3.982724249E-1	-2.830818892E0
1.062192048E1	-4.126273096E-1	-1.605001241E-1	-2.965816259E0
1.063032350E1	-4.581354558E-1	1.516428292E-1	-3.145710707E0
1.063872653E1	-4.955498278E-1	5.178457499E-1	-3.357674599E0
1.064712955E1	-5.131117105E-1	8.974873424E-1	-3.563988447E0
1.065553257E1	-5.166240931E-1	1.246433854E0	-3.751518488E0
1.066393559E1	-5.137225389E-1	1.530630469E0	-3.922555685E0
1.067233861E1	-4.995203316E-1	1.738013148E0	-4.061981678E0
1.068074163E1	-4.651601911E-1	1.865985632E0	-4.173614025E0
1.068914465E1	-4.020902216E-1	1.881409526E0	-4.262644768E0
1.069754767E1	-3.049654961E-1	1.747634053E0	-4.316857815E0
1.070595069E1	-1.915006191E-1	1.478403091E0	-4.316093922E0
1.071435371E1	-7.391251624E-2	1.044548869E0	-4.242028713E0
1.072275673E1	4.199574888E-2	4.760027230E-1	-4.078779697E0
1.073115976E1	1.400367320E-1	-1.186570823E-1	-3.788321972E0
1.073956278E1	2.090624720E-1	-6.577298045E-1	-3.374778509E0
1.074796580E1	2.150182426E-1	-1.024848938E0	-2.925652981E0
1.075636882E1	1.632489264E-1	-1.177713513E0	-2.531656504E0
1.076477184E1	7.223268598E-2	-1.185501814E0	-2.188513041E0
1.077317486E1	-4.718795046E-2	-1.062874198E0	-1.873621225E0
1.078157788E1	-1.701209545E-1	-8.276980519E-1	-1.535059214E0
1.078998090E1	-2.648022771E-1	-5.754181147E-1	-1.139382839E0
1.079838392E1	-3.052709103E-1	-4.117110670E-1	-6.901046634E-1
1.080678694E1	-2.622061968E-1	-3.344388604E-1	-2.014268786E-1
1.081518996E1	-1.879882365E-1	-2.867927849E-1	2.933593988E-1
1.082359298E1	-2.141019702E-1	-1.566823274E-1	8.399149776E-1
1.083199600E1	-4.280512035E-1	1.469087601E-1	1.511999726E0
1.084039903E1	-1.083032131E0	8.538117409E-1	1.657075882E0
1.084880205E1	-1.999303102E0	1.758629203E0	1.603474021E-1
1.085720507E1	-1.210699320E0	2.189276695E0	-1.884005666E0
1.086560809E1	5.729747415E-1	2.177059650E0	-1.635238171E0
1.087401111E1	8.432746530E-1	1.060736299E0	2.352067471E0
1.088241413E1	3.130592108E-1	5.711421967E-1	4.698331833E0
1.089081715E1	-3.333698809E-1	-3.894151375E-2	4.119248390E0
1.089922017E1	-4.056025743E-1	-1.083490372E0	2.229287148E0
1.090762319E1	-1.803526580E-1	-1.668987393E0	1.092500329E0
1.091602621E1	-2.438807636E-1	-1.015075445E0	9.452861547E-1
1.092442923E1	-4.442386627E-1	1.482831687E-1	9.776610136E-1
1.093283226E1	-4.853181541E-1	8.976400495E-1	8.003626466E-1
1.094123528E1	-3.205420971E-1	1.168092728E0	4.952444136E-1
1.094963830E1	-1.988307834E-1	1.085170150E0	2.586938143E-1
1.095804132E1	-1.907370538E-1	8.704573512E-1	1.992889196E-1
1.096644434E1	-2.166980654E-1	4.723376334E-1	3.859027624E-1
1.097484736E1	-2.310529798E-1	1.664558798E-1	6.577298045E-1
1.098325038E1	-2.231119573E-1	-4.734066129E-2	8.974873424E-1
1.099165340E1	-1.986780763E-1	-2.490729690E-1	9.816315174E-1
1.100005642E1	-1.305686086E-1	-3.513898849E-1	9.261971712E-1
1.100845944E1	-7.788302749E-2	-3.191677034E-1	8.532009125E-1
1.101686246E1	-5.573981255E-2	-2.125748396E-1	8.156337738E-1
1.102526548E1	-3.665083647E-2	-6.474980712E-2	7.907418013E-1
1.103366851E1	-2.183778957E-2	9.254335612E-2	7.740961909E-1
1.104207153E1	-4.886778072E-3	2.165453583E-1	7.838697433E-1
1.105047455E1	-6.566607859E-3	2.553341687E-1	8.083036542E-1
1.105887757E1	1.068982761E-3	2.034121305E-1	8.247964978E-1
1.106728059E1	9.162708884E-4	1.236965731E-1	8.351809382E-1
1.107568361E1	-1.572931744E-2	3.756710514E-2	8.629744649E-1
1.108408663E1	-2.993151546E-2	-4.245388508E-2	8.913788795E-1
1.109248965E1	-4.031591862E-2	-9.009996802E-2	8.890882134E-1
1.110089267E1	-4.337015375E-2	-1.052184403E-1	8.680139780E-1
1.110929569E1	-4.672981426E-2	-7.085828483E-2	8.391514421E-1
1.111769871E1	-4.627167806E-2	-3.680354729E-2	8.006680608E-1
1.112610173E1	-3.619270027E-2	-1.924168877E-2	7.490514517E-1
1.113450476E1	-3.023693897E-2	1.374406274E-3	7.116370797E-1
1.114290778E1	-2.489202656E-2	1.527118124E-2	6.968240142E-1
1.115131080E1	-1.771457121E-2	1.084253844E-2	6.927008033E-1
1.115971382E1	-5.650337320E-3	-1.053711493E-2	6.916317940E-1
1.116811684E1	3.206948051E-3	-3.741439432E-2	6.829272509E-1
1.117651986E1	9.620844387E-3	-5.604523420E-2	6.791094542E-1
1.118492288E1	1.664558798E-2	-6.261184067E-2	6.824691296E-1
1.119332590E1	2.305948362E-2	-5.894676223E-2	6.870504618E-1
1.120172892E1	2.397575416E-2	-5.238015205E-2	6.826218367E-1
1.121013194E1	2.550287358E-2	-2.977880463E-2	6.726955175E-1
1.121853496E1	3.130592033E-2	3.359660041E-3	6.768187881E-1
1.122693798E1	3.802524135E-2	2.382304333E-2	6.901046634E-1
1.123534100E1	4.245388508E-2	7.177455351E-3	6.916317940E-1
1.124374403E1	4.611896724E-2	-1.343864016E-2	6.893411279E-1
1.125214705E1	4.902049154E-2	-3.436015919E-2	6.962131858E-1
1.126055007E1	5.528167635E-2	-5.085303262E-2	7.091936469E-1
1.126895309E1	5.680879578E-2	-7.040014863E-2	7.168292403E-1
1.127735611E1	5.482354015E-2	-8.735115826E-2	7.247702479E-1
1.128575913E1	4.947862774E-2	-9.269607067E-2	7.383615971E-1
1.129416215E1	5.039490014E-2	-8.551861346E-2	7.531746626E-1
1.130256517E1	5.543438718E-2	-7.498150319E-2	7.710419297E-1
1.131096819E1	5.772506446E-2	-6.261184067E-2	7.907418013E-1
1.131937121E1	6.062658876E-2	-3.802524135E-2	8.133431077E-1
1.132777423E1	5.894676223E-2	-7.941014133E-3	8.345700502E-1
1.133617726E1	4.871506989E-2	-2.443389036E-3	8.574768305E-1
1.134458028E1	4.260659590E-2	-3.726168349E-2	8.932114244E-1
1.135298330E1	4.077405483E-2	-1.058292910E-1	9.446752667E-1
1.136138632E1	3.466558084E-2	-1.574458778E-1	1.010035992E0
1.136978934E1	3.329117596E-2	-1.808107942E-1	1.078298092E0
1.137819236E1	3.084778599E-2	-1.655396074E-1	1.141826272E0
1.138659538E1	2.733541466E-2	-1.279724985E-1	1.207950473E0
1.139499840E1	3.038965166E-2	-1.003316641E-1	1.274685502E0
1.140340142E1	5.283828825E-2	-8.292251825E-2	1.350888729E0
1.141180444E1	1.043021679E-1	-5.253286287E-2	1.432742238E0
1.142020746E1	1.562241912E-1	-4.275930673E-2	1.509403586E0
1.142861048E1	1.519482583E-1	-7.207997888E-2	1.563768983E0
1.143701351E1	1.279724985E-1	-1.301104724E-1	1.641804695E0
1.144541653E1	1.000262350E-1	-2.428117841E-1	1.769166350E0
1.145381955E1	4.230117425E-2	-3.361186981E-1	1.856517553E0
1.146222257E1	-2.580829710E-2	-4.474456310E-1	1.918823957E0
1.147062559E1	-5.176930502E-2	-6.797202826E-1	2.011367321E0
1.147902861E1	-3.939964995E-2	-8.603783846E-1	2.057486296E0
1.148743163E1	7.788302377E-3	-1.005149126E0	2.059013367E0
1.149583465E1	8.063183725E-2	-1.030499339E0	2.016865015E0
1.150423767E1	1.519482583E-1	-8.938222528E-1	2.003578901E0
1.151264069E1	1.853921413E-1	-7.638645172E-1	2.079476833E0
1.152104371E1	1.863084137E-1	-7.124006152E-1	2.151404142E0
1.152944673E1	1.714953631E-1	-7.229377031E-1	2.168660402E0
1.153784976E1	1.533226669E-1	-7.907418013E-1	2.151404142E0
1.154625278E1	1.178935245E-1	-7.598940134E-1	2.050766945E0
1.155465580E1	6.978929788E-2	-6.560499668E-1	1.834985137E0
1.156305882E1	-1.282779220E-2	-5.401417017E-1	1.444653749E0
1.157146184E1	-6.306997687E-2	-5.355603099E-1	8.812998533E-1
1.157986486E1	5.497625470E-2	-8.961129189E-1	3.663556576E-1
1.158826788E1	2.959555089E-1	-1.493521571E0	1.043021679E-1
1.159667090E1	4.419479966E-1	-1.985711694E0	2.365505993E-1
1.160507392E1	3.735330999E-1	-2.246696234E0	5.890094638E-1
1.161347694E1	2.518217862E-1	-2.347638845E0	8.295305967E-1
1.162187996E1	2.298312783E-1	-2.311293364E0	7.545490861E-1
1.163028298E1	2.605263591E-1	-2.074589968E0	3.863608837E-1
1.163868600E1	2.455606014E-1	-1.573237062E0	-1.162136942E-1
1.164708903E1	1.985253543E-1	-8.196043372E-1	-6.259657145E-1
1.165549205E1	1.664558798E-1	5.909947306E-2	-1.048519373E0
1.166389507E1	1.375933439E-1	8.473978639E-1	-1.385096192E0
1.167229809E1	9.956810623E-2	1.384485364E0	-1.659519315E0
1.168070111E1	5.528167635E-2	1.624090195E0	-1.876217365E0
1.168910413E1	2.443389036E-2	1.611109614E0	-2.031067133E0
1.169750715E1	1.236965694E-2	1.458550572E0	-2.110477209E0
1.170591017E1	1.939439960E-2	1.242310643E0	-2.121930599E0
1.171431319E1	3.695625812E-2	1.028361320E0	-2.093678951E0
1.172271621E1	5.008947477E-2	8.083036542E-1	-2.084668875E0
1.173111923E1	4.550812021E-2	5.604523420E-1	-2.142088652E0
1.173952226E1	3.374931216E-2	3.089359999E-1	-2.256469727E0
1.174792528E1	1.985253580E-2	8.475505561E-2	-2.373905182E0
1.175632830E1	-7.177455351E-3	-1.076618284E-1	-2.453468084E0
1.176473132E1	-4.489727318E-2	-2.741177082E-1	-2.497754335E0
1.177313434E1	-9.407047927E-2	-4.025483429E-1	-2.533641815E0
1.178153736E1	-1.426328421E-1	-4.492781460E-1	-2.578080893E0
1.178994038E1	-1.899735034E-1	-4.175141156E-1	-2.635347843E0
1.179834340E1	-2.374668717E-1	-2.901524603E-1	-2.728654623E0
1.180674642E1	-2.845021188E-1	-8.765657991E-2	-2.862430334E0
1.181514944E1	-3.234436214E-1	1.377460510E-1	-3.005673885E0
1.182355246E1	-3.535278440E-1	3.811686933E-1	-3.154109716E0
1.183195548E1	-3.692571819E-1	6.116108298E-1	-3.287274599E0
1.184035851E1	-3.704788685E-1	8.302941322E-1	-3.399975777E0
1.184876153E1	-3.746020794E-1	1.030957460E0	-3.495420694E0
1.185716455E1	-3.943018913E-1	1.217113137E0	-3.579870462E0
1.186556757E1	-4.165978432E-1	1.397923946E0	-3.642940283E0
1.187397059E1	-4.204156399E-1	1.546970725E0	-3.679896593E0
1.188237361E1	-3.849864900E-1	1.602557778E0	-3.694251537E0
1.189077663E1	-3.381039500E-1	1.537044406E0	-3.722656012E0
1.189917965E1	-2.602209449E-1	1.286597013E0	-3.704177856E0
1.190758267E1	-1.575985998E-1	8.408312798E-1	-3.586742401E0
1.191598569E1	-4.856235534E-2	2.319692522E-1	-3.379359722E0
1.192438871E1	6.795676053E-2	-3.576510847E-1	-3.050876617E0
1.193279173E1	1.545443535E-1	-7.837170362E-1	-2.620687485E0
1.194119476E1	1.904316396E-1	-1.048672080E0	-2.208365440E0
1.194959778E1	1.814216375E-1	-1.169772506E0	-1.874079347E0
1.195800080E1	9.727742523E-2	-1.117850542E0	-1.625464559E0
1.196640382E1	-4.092676565E-2	-9.139801860E-1	-1.351041436E0
1.197480684E1	-1.785201132E-1	-6.109999418E-1	-1.066233873E0
1.198320986E1	-2.571666837E-1	-3.052709103E-1	-7.896727920E-1
1.199161288E1	-2.096733153E-1	-1.647760421E-1	-3.465031087E-1
1.200001590E1	-1.719534993E-1	-1.666085869E-1	3.074088693E-1
1.200841892E1	-1.895153672E-1	-3.574983478E-1	1.207186937E0
1.201682194E1	-2.848075330E-1	-3.955236077E-1	2.116433144E0
1.202522496E1	-9.750649333E-1	7.171346545E-1	2.006633282E0
1.203362798E1	-1.444042921E0	2.065579891E0	7.499676943E-1
1.204203100E1	-8.984035850E-1	2.953446388E0	-9.568922520E-1
1.205043403E1	3.547495604E-1	3.021861315E0	-7.456917763E-1
1.205883705E1	5.990884304E-1	1.982962966E0	1.573542595E0
1.206724007E1	9.697200358E-2	1.220930934E0	3.355384111E0
1.207564309E1	-3.938437700E-1	1.895153672E-1	3.470986843E0
1.208404611E1	-3.657447994E-1	-1.032179117E0	2.552425385E0
1.209244913E1	-1.490467340E-1	-1.563310862E0	1.623326540E0
1.210085215E1	-1.985253543E-1	-1.292858243E0	1.222152710E0
1.210925517E1	-3.550549746E-1	-4.306473136E-1	1.061041713E0
1.211765819E1	-4.314108789E-1	3.655920923E-1	8.386932611E-1
1.212606121E1	-3.639122546E-1	9.016105533E-1	5.509842038E-1
1.213446423E1	-2.782409191E-1	1.129609346E0	3.081724346E-1
1.214286726E1	-2.867927849E-1	1.130678296E0	1.982199401E-1
1.215127028E1	-3.026748300E-1	8.464815617E-1	2.579302490E-1
1.215967330E1	-2.951919436E-1	3.726168275E-1	4.324798584E-1
1.216807632E1	-2.971771955E-1	-4.260659590E-2	6.702521443E-1
1.217647934E1	-3.110739589E-1	-3.436015844E-1	8.985562921E-1
1.218488236E1	-2.837385535E-1	-5.039489865E-1	1.006981730E0
1.219328538E1	-2.376195788E-1	-4.761554301E-1	9.747595191E-1
1.220168840E1	-1.866138428E-1	-2.724378705E-1	8.704573512E-1
1.221009142E1	-1.340809762E-1	-1.618745178E-2	7.521057129E-1
1.221849444E1	-9.101624042E-2	1.918060333E-1	6.481089592E-1
1.222689746E1	-6.306997687E-2	2.709107697E-1	6.047387719E-1
1.223530048E1	-5.176930502E-2	2.208212912E-1	6.339067221E-1
1.224370351E1	-4.138490185E-2	1.220167428E-1	6.817055345E-1
1.225210653E1	-2.718270384E-2	3.710897267E-2	7.171346545E-1
1.226050955E1	-2.031067200E-2	1.832541777E-3	7.232431769E-1
1.226891257E1	-1.649287529E-2	-3.054236295E-4	7.041541934E-1
1.227731559E1	-1.542389300E-2	2.443389036E-3	6.589514613E-1
1.228571861E1	-1.466033421E-2	-2.000524849E-2	6.001574397E-1
1.229412163E1	-1.160609815E-2	-5.497625470E-2	5.519005060E-1
1.230252465E1	-1.236965694E-2	-7.711946964E-2	5.260922313E-1
1.231092767E1	-1.191152167E-2	-8.643488586E-2	5.172349215E-1
1.231933069E1	-8.551862091E-3	-1.039967462E-1	5.057815313E-1
1.232773371E1	-1.068982761E-3	-1.250709742E-1	4.871506989E-1
1.233613673E1	4.275931045E-3	-1.404948682E-1	4.694361091E-1
1.234453976E1	1.542389300E-2	-1.440072358E-1	4.572191834E-1
1.235294278E1	2.626643144E-2	-1.311794519E-1	4.482091665E-1
1.236134580E1	3.710897267E-2	-1.151447073E-1	4.500417113E-1
1.236974882E1	3.939964995E-2	-1.094943732E-1	4.627167881E-1
1.237815184E1	3.313846514E-2	-1.327065676E-1	4.876088202E-1
1.238655486E1	2.764083818E-2	-1.615691036E-1	5.178457499E-1
1.239495788E1	2.626643144E-2	-1.867665499E-1	5.520532131E-1
1.240336090E1	2.748812735E-2	-2.015796006E-1	5.732801557E-1
1.241176392E1	2.779355086E-2	-2.058555335E-1	5.888567567E-1
1.242016694E1	3.023693897E-2	-2.096733153E-1	6.039752364E-1
1.242856996E1	3.069507517E-2	-2.009687424E-1	6.195518374E-1
1.243697298E1	3.038965166E-2	-1.980672181E-1	6.481089592E-1
1.244537600E1	2.962609194E-2	-2.075353563E-1	6.832326651E-1
1.245377903E1	2.886253223E-2	-2.157817930E-1	7.247702479E-1
1.246218205E1	2.977880463E-2	-2.177670449E-1	7.765395641E-1
1.247058507E1	3.054236248E-2	-2.118112892E-1	8.321266770E-1
1.247898809E1	2.840439789E-2	-1.884463727E-1	8.901571631E-1
1.248739111E1	2.916795574E-2	-1.572931707E-1	9.477295280E-1
1.249579413E1	3.512371704E-2	-1.243074164E-1	9.947647452E-1
1.250419715E1	3.344388679E-2	-7.177454978E-2	1.030804753E0
1.251260017E1	3.451287001E-2	-1.832541777E-3	1.072189689E0
1.252100319E1	3.008422814E-2	5.039490014E-2	1.127318621E0
1.252940621E1	2.748812735E-2	6.123743951E-2	1.193442822E0
1.253780923E1	2.168507688E-2	4.596625641E-2	1.267966151E0
1.254621226E1	1.130067464E-2	2.397575416E-2	1.362189412E0
1.255461528E1	2.137965523E-3	4.886778072E-3	1.468171358E0
1.256301830E1	1.527118124E-2	5.497625098E-3	1.563310862E0
1.257142132E1	4.230117425E-2	8.857285604E-3	1.652341843E0
1.257982434E1	9.101624042E-2	2.825168520E-2	1.745343328E0
1.258822736E1	1.278197914E-1	3.481829539E-2	1.841551781E0
1.259663038E1	1.111742035E-1	7.345438004E-2	1.930430055E0
1.260503340E1	5.558710173E-2	1.404948682E-1	2.044963837E0
1.261343642E1	-2.275406010E-2	1.203369126E-1	2.198133945E0
1.262183944E1	-9.910997003E-2	-7.406523079E-2	2.362146378E0
1.263024246E1	-1.221694499E-1	-3.672719002E-1	2.431019306E0
1.263864548E1	-8.597674966E-2	-6.105418205E-1	2.393604994E0
1.264704850E1	-1.878355257E-2	-7.840224504E-1	2.400324345E0
1.265545153E1	3.909422457E-2	-7.895200849E-1	2.437127829E0
1.266385455E1	7.818844914E-2	-6.867450476E-1	2.490882397E0
1.267225757E1	1.201841980E-1	-7.088882327E-1	2.544636965E0
1.268066059E1	1.649287641E-1	-8.028060198E-1	2.506458998E0
1.268906361E1	2.344126403E-1	-8.663341403E-1	2.470418930E0
1.269746663E1	2.718270421E-1	-7.627955079E-1	2.449650288E0
1.270586965E1	2.351761907E-1	-4.760027230E-1	2.344279051E0
1.271427267E1	9.009996802E-2	-9.544488788E-2	1.915922403E0
1.272267569E1	2.214321308E-2	1.893626526E-2	1.243990421E0
1.273107871E1	1.806580722E-1	-4.089622498E-1	6.311579347E-1
1.273948173E1	4.946335554E-1	-1.371046662E0	2.990097404E-1
1.274788476E1	6.806365848E-1	-2.362146378E0	3.723114133E-1
1.275628778E1	6.033644080E-1	-2.982614517E0	8.231166601E-1
1.276469080E1	4.611896873E-1	-3.132577419E0	1.329661727E0
1.277309382E1	4.358395338E-1	-2.936953545E0	1.473516345E0
1.278149684E1	4.312581718E-1	-2.557159424E0	1.124264359E0
1.278989986E1	3.724641204E-1	-1.897291541E0	4.143071473E-1
1.279830288E1	2.938175201E-1	-8.583931327E-1	-3.764346242E-1
1.280670590E1	2.331909388E-1	3.943018913E-1	-1.011104941E0
1.281510892E1	1.794363856E-1	1.524063945E0	-1.480846524E0
1.282351194E1	1.076618284E-1	2.225316525E0	-1.847965717E0
1.283191496E1	2.825168520E-2	2.384900331E0	-2.123152256E0
1.284031798E1	-3.466558084E-2	2.130635262E0	-2.290219069E0
1.284872101E1	-6.413896382E-2	1.601183414E0	-2.330993176E0
1.285712403E1	-6.856760383E-2	9.678874612E-1	-2.230966806E0
1.286552705E1	-5.650337040E-2	3.862081766E-1	-2.029540062E0
1.287393007E1	-4.642439261E-2	-9.208522737E-2	-1.867818236E0
1.288233309E1	-5.360184610E-2	-4.785988331E-1	-1.842620730E0
1.289073611E1	-9.758284688E-2	-7.779139876E-1	-1.966775417E0
1.289913913E1	-1.664558798E-1	-9.561286569E-1	-2.172325611E0
1.290754215E1	-2.449497581E-1	-1.000873208E0	-2.376195908E0
1.291594517E1	-3.286358118E-1	-9.703308940E-1	-2.529671192E0
1.292434819E1	-4.214846194E-1	-9.106205702E-1	-2.621603727E0
1.293275121E1	-5.001311898E-1	-8.559496999E-1	-2.682077646E0
1.294115423E1	-5.514423847E-1	-7.823426127E-1	-2.733083248E0
1.294955726E1	-5.925218463E-1	-6.055023670E-1	-2.781798363E0
1.295796028E1	-6.226060390E-1	-3.724641204E-1	-2.846853733E0
1.296636330E1	-6.308525205E-1	-1.189625040E-1	-2.954668283E0
1.297476632E1	-6.348230243E-1	1.021642014E-1	-3.111045122E0
1.298316934E1	-6.305471063E-1	2.693836391E-1	-3.289259672E0
1.299157236E1	-6.152759194E-1	3.610107303E-1	-3.428074837E0
1.299997538E1	-5.925218463E-1	3.978142738E-1	-3.518632889E0
1.300837840E1	-5.697677732E-1	3.579564989E-1	-3.562003136E0
1.301678142E1	-5.506787896E-1	3.081724346E-1	-3.598042965E0
1.302518444E1	-5.305208564E-1	3.014531136E-1	-3.627211094E0
1.303358746E1	-5.082249045E-1	3.608580232E-1	-3.664472818E0
1.304199048E1	-4.871506989E-1	4.874561131E-1	-3.723419428E0
1.305039350E1	-4.588989913E-1	6.285618544E-1	-3.781450033E0
1.305879653E1	-4.298837483E-1	7.339329720E-1	-3.813672066E0
1.306719955E1	-3.834593594E-1	7.872294188E-1	-3.808174610E0
1.307560257E1	-3.032856584E-1	7.325585485E-1	-3.752281904E0
1.308400559E1	-2.104368806E-1	4.973823726E-1	-3.648590565E0
1.309240861E1	-1.304158866E-1	1.078145429E-1	-3.489312172E0
1.310081163E1	-4.459185153E-2	-3.187095523E-1	-3.218859673E0
1.310921465E1	4.535540938E-2	-7.038487792E-1	-2.829444408E0
1.311761767E1	1.136175916E-1	-9.869764447E-1	-2.429797649E0
1.312602069E1	1.324011385E-1	-1.116323352E0	-2.101161957E0
1.313442371E1	7.589777559E-2	-1.078908920E0	-1.826891422E0
1.314282673E1	-1.832541823E-2	-9.000834227E-1	-1.529256105E0
1.315122976E1	-9.422318637E-2	-6.140542030E-1	-1.184432864E0
1.315963278E1	-9.254335612E-2	-3.684936166E-1	-7.450809479E-1
1.316803580E1	-8.338065445E-2	-2.160872221E-1	-1.950129867E-1
1.317643882E1	-1.644706279E-1	-2.118112892E-1	5.453338623E-1
1.318484184E1	-3.298575282E-1	-4.100312293E-1	1.646386027E0
1.319324486E1	-8.576295376E-1	-3.807105422E-1	2.653825998E0
1.320164788E1	-1.871330619E0	6.688777208E-1	2.213863134E0
1.321005090E1	-1.842926145E0	1.803221107E0	4.715740979E-1
1.321845392E1	-7.849387079E-2	2.625116110E0	-9.599464536E-1
1.322685694E1	9.776610136E-1	2.740413427E0	7.947123051E-1
1.323525996E1	7.024743557E-1	1.880645990E0	3.765415192E0
1.324366298E1	4.184303805E-2	1.128692985E0	4.627931595E0
1.325206601E1	-6.302416325E-1	-2.683146596E-1	3.622171640E0
1.326046903E1	-6.070294380E-1	-1.552162886E0	2.575484753E0
1.326887205E1	-2.739650011E-1	-1.734958887E0	2.072299242E0
1.327727507E1	-2.929012477E-1	-8.119687438E-1	1.759087443E0
1.328567809E1	-5.386145711E-1	2.680092454E-1	1.222916245E0
1.329408111E1	-5.557183027E-1	1.111589313E0	6.812474132E-1
1.330248413E1	-4.095730782E-1	1.624090195E0	3.788780272E-1
1.331088715E1	-3.562766612E-1	1.800014138E0	2.377723008E-1
1.331929017E1	-3.497100472E-1	1.665016890E0	2.362451702E-1
1.332769319E1	-3.153499067E-1	1.160457134E0	4.402681589E-1
1.333609621E1	-2.860292196E-1	4.902049303E-1	7.475243211E-1
1.334449923E1	-2.987042964E-1	-5.329642445E-2	1.040883780E0
1.335290226E1	-2.899997234E-1	-4.135435820E-1	1.205048919E0
1.336130528E1	-2.371614426E-1	-5.456393361E-1	1.179240584E0
1.336970830E1	-1.664558798E-1	-4.486673176E-1	1.032179117E0
1.337811132E1	-1.004843712E-1	-2.110477239E-1	8.660287261E-1
1.338651434E1	-4.581354558E-2	4.917320609E-2	7.207997441E-1
1.339491736E1	-6.413896102E-3	2.379250079E-1	5.972558856E-1
1.340332038E1	3.054236295E-4	3.382566571E-1	5.031854510E-1
1.341172340E1	-9.009997360E-3	3.846810758E-1	4.674508572E-1
1.342012642E1	-8.551862091E-3	3.665083647E-1	4.840964675E-1
1.342852944E1	-4.428642802E-3	2.716743052E-1	4.978405237E-1
1.343693246E1	0.000000000E0	1.145338640E-1	4.949389994E-1
1.344533548E1	1.527118147E-4	-3.008422814E-2	5.121954083E-1
1.345373850E1	-1.374406274E-3	-1.032331884E-1	5.404471159E-1
1.346214153E1	6.108472589E-4	-9.162709117E-2	5.341859460E-1
1.347054455E1	9.315420873E-3	-4.214845970E-2	4.859289825E-1
1.347894757E1	1.679829881E-2	7.635590620E-3	4.234698713E-1
1.348735059E1	3.069507517E-2	4.611896724E-2	3.742966652E-1
1.349575361E1	4.092676565E-2	5.192201585E-2	3.675773442E-1
1.350415663E1	4.642439261E-2	2.321219631E-2	3.836120665E-1
1.351255965E1	5.497625470E-2	-1.175880991E-2	4.002576768E-1
1.352096267E1	6.200099736E-2	-1.206423342E-2	4.246915579E-1
1.352936569E1	6.872031838E-2	7.482878864E-3	4.491254389E-1
1.353776871E1	7.452336699E-2	1.740914769E-2	4.512633979E-1
1.354617173E1	7.269082218E-2	2.535016090E-2	4.558447599E-1
1.355457476E1	7.284353673E-2	5.253286287E-2	4.982986450E-1
1.356297778E1	7.834116369E-2	6.749862432E-2	5.489989519E-1
1.357138080E1	8.215895295E-2	4.367557913E-2	5.839699507E-1
1.357978382E1	8.979454637E-2	1.603474095E-2	6.058077812E-1
1.358818684E1	9.590301663E-2	1.557660475E-2	6.281036735E-1
1.359658986E1	9.849911928E-2	1.038440317E-2	6.584933400E-1
1.360499288E1	1.018587798E-1	-4.581354442E-4	6.847597957E-1
1.361339590E1	1.039967462E-1	-2.031067200E-2	7.056813240E-1
1.362179892E1	1.021642014E-1	-4.153761268E-2	7.389724851E-1
1.363020194E1	1.007898003E-1	-5.024218559E-2	7.792884111E-1
1.363860496E1	1.044548824E-1	-2.993151546E-2	8.191461563E-1
1.364700798E1	9.590301663E-2	-4.275931045E-3	8.521319032E-1
1.365541101E1	8.780929446E-2	3.206948051E-3	8.871029615E-1
1.366381403E1	8.597674966E-2	-9.009997360E-3	9.347490072E-1
1.367221705E1	7.941014320E-2	-4.627167806E-2	1.003011227E0
1.368062007E1	7.223268598E-2	-1.081199646E-1	1.086544514E0
1.368902309E1	6.933116168E-2	-1.759240031E-1	1.188403368E0
1.369742611E1	6.688777357E-2	-2.373141646E-1	1.299883008E0
1.370582913E1	6.627693027E-2	-2.774773538E-1	1.393495321E0
1.371423215E1	6.245913357E-2	-2.803788781E-1	1.454274654E0
1.372263517E1	5.467082933E-2	-2.502946556E-1	1.500393629E0
1.373103819E1	4.657710344E-2	-2.093679011E-1	1.550024867E0
1.373944121E1	4.016320780E-2	-1.747023165E-1	1.616149187E0
1.374784423E1	4.245388508E-2	-1.681357026E-1	1.709761500E0
1.375624726E1	6.200099736E-2	-1.517955512E-1	1.797876239E0
1.376465028E1	1.146865711E-1	-1.592784226E-1	1.850867152E0
1.377305330E1	1.685938388E-1	-2.289150059E-1	1.910272121E0
1.378145632E1	1.498102844E-1	-2.620534599E-1	2.024653196E0
1.378985934E1	9.636115283E-2	-2.849602401E-1	2.136896372E0
1.379826236E1	4.856235534E-2	-3.796415627E-1	2.143463135E0
1.380666538E1	2.535016090E-2	-5.407525301E-1	2.110782623E0
1.381506840E1	4.016320780E-2	-6.876612902E-1	2.121625185E0
1.382347142E1	1.024696305E-1	-7.624900937E-1	2.167591572E0
1.383187444E1	1.989834905E-1	-7.766922712E-1	2.195232391E0
1.384027746E1	2.942756712E-1	-7.264500856E-1	2.168049574E0
1.384868048E1	3.866663277E-1	-5.993938446E-1	2.100551128E0
1.385708350E1	4.880669713E-1	-4.665345848E-1	2.042673349E0
1.386548653E1	5.590779781E-1	-3.637595475E-1	2.005717039E0
1.387388955E1	5.961869359E-1	-2.626643181E-1	1.985864401E0
1.388229257E1	6.018372774E-1	-1.334701329E-1	1.966622710E0
1.389069559E1	5.957288146E-1	6.306997687E-2	1.861709714E0
1.389909861E1	5.700731874E-1	2.738122940E-1	1.580719948E0
1.390750163E1	4.877615273E-1	4.810422063E-1	1.084253907E0
1.391590465E1	4.944808483E-1	3.943018913E-1	5.500679612E-1
1.392430767E1	6.271874309E-1	4.993676394E-2	2.336490750E-1
1.393271069E1	6.949914694E-1	-3.633013964E-1	2.383831441E-1
1.394111371E1	5.712949038E-1	-7.597413063E-1	4.958552718E-1
1.394951673E1	3.901786804E-1	-1.109604001E0	7.316423059E-1
1.395791976E1	3.074088693E-1	-1.347987175E0	7.197307944E-1
1.396632278E1	2.870981991E-1	-1.386012435E0	4.575245976E-1
1.397472580E1	2.328855246E-1	-1.157708287E0	3.329117596E-2
1.398312882E1	1.491994411E-1	-7.006418109E-1	-4.065188468E-1
1.399153184E1	8.506047726E-2	-1.403421611E-1	-7.814263701E-1
1.399993486E1	4.703523964E-2	3.574983478E-1	-1.076771021E0
1.400833788E1	8.399149403E-3	6.117635369E-1	-1.308892965E0
1.401674090E1	-4.306473210E-2	6.221479177E-1	-1.501767993E0
1.402514392E1	-9.315420687E-2	4.729484916E-1	-1.655701518E0
1.403354694E1	-1.356080920E-1	2.617480457E-1	-1.743358135E0
1.404194996E1	-1.653869003E-1	6.490252167E-2	-1.772220612E0
1.405035298E1	-1.847812980E-1	-1.033858955E-1	-1.807191610E0
1.405875601E1	-2.116585821E-1	-2.544178963E-1	-1.896833420E0
1.406715903E1	-2.568612695E-1	-3.953709006E-1	-2.041909695E0
1.407556205E1	-3.141281903E-1	-5.004366040E-1	-2.191261768E0
1.408396507E1	-3.703261614E-1	-5.813738704E-1	-2.323815584E0
1.409236809E1	-4.176668227E-1	-6.534538269E-1	-2.455147743E0
1.410077111E1	-4.654656053E-1	-7.324058414E-1	-2.578080893E0
1.410917413E1	-5.166240931E-1	-7.884510756E-1	-2.675663710E0
1.411757715E1	-5.592306852E-1	-8.052493930E-1	-2.748965263E0
1.412598017E1	-5.874823332E-1	-7.693621516E-1	-2.824710369E0
1.413438319E1	-6.088619828E-1	-6.870504618E-1	-2.921529770E0
1.414278621E1	-6.293253899E-1	-5.613686442E-1	-3.043241024E0
1.415118923E1	-6.418477297E-1	-3.755183518E-1	-3.185110331E0
1.415959226E1	-6.380299330E-1	-1.559187621E-1	-3.324841738E0
1.416799528E1	-6.164975762E-1	8.292251825E-2	-3.465489149E0
1.417639830E1	-5.792359114E-1	3.388675153E-1	-3.597584963E0
1.418480132E1	-5.186093450E-1	5.754181147E-1	-3.691655397E0
1.419320434E1	-4.364503622E-1	7.543963790E-1	-3.737316132E0
1.420160736E1	-3.513898849E-1	8.513683677E-1	-3.754420042E0
1.421001038E1	-2.597627938E-1	8.385405540E-1	-3.728917122E0
1.421841340E1	-1.624853760E-1	6.789567471E-1	-3.649201632E0
1.422681642E1	-7.986827940E-2	3.773508966E-1	-3.526268482E0
1.423521944E1	5.497625098E-3	-1.572931744E-2	-3.325147152E0
1.424362246E1	9.620844573E-2	-4.198047817E-1	-3.005826712E0
1.425202548E1	1.772984117E-1	-7.507312894E-1	-2.598544121E0
1.426042850E1	2.110477239E-1	-8.996253014E-1	-2.222414970E0
1.426883153E1	1.893626451E-1	-9.228374958E-1	-1.874232054E0
1.427723455E1	1.317902952E-1	-7.986828089E-1	-1.573084354E0
1.428563757E1	4.749337584E-2	-5.557183027E-1	-1.308587551E0
1.429404059E1	-2.443389036E-3	-3.138227761E-1	-9.529217482E-1
1.430244361E1	-1.649287529E-2	-1.603474095E-2	-4.837910235E-1
1.431084663E1	-4.123219103E-2	2.028012872E-1	4.810422286E-2
1.431924965E1	-1.485885978E-1	2.973299026E-1	6.962131858E-1
1.432765267E1	-2.774773538E-1	3.323009014E-1	1.579345584E0
1.433605569E1	-4.535540938E-1	8.599202037E-1	2.211725235E0
1.434445871E1	-9.002361298E-1	2.144226551E0	1.506960154E0
1.435286173E1	-1.177255392E0	3.095621109E0	-2.188360244E-1
1.436126476E1	-3.500154912E-1	3.182972431E0	-1.603015900E0
1.436966778E1	5.511369109E-1	1.915464282E0	-3.709369898E-1
1.437807080E1	2.125748396E-1	5.007420182E-1	2.277544022E0
1.438647382E1	-4.486673176E-1	-4.601207078E-1	3.805578470E0
1.439487684E1	-4.320217371E-1	-1.089446068E0	3.831081390E0
1.440327986E1	-1.664558798E-1	-1.684716702E0	2.806385040E0
1.441168288E1	-3.026748300E-1	-1.762905240E0	1.588508248E0
1.442008590E1	-5.132644176E-1	-6.607840061E-1	8.686248064E-1
1.442848892E1	-4.534013867E-1	7.895200849E-1	7.249229550E-1
1.443689194E1	-3.701734245E-1	1.634627223E0	7.004891038E-1
1.444529496E1	-3.203893900E-1	1.727323294E0	5.751127005E-1
1.445369798E1	-2.414373755E-1	1.170536041E0	4.902049303E-1
1.446210101E1	-1.921114624E-1	4.158342779E-1	6.691831946E-1
1.447050403E1	-1.965401024E-1	-1.203369126E-1	1.053864241E0
1.447890705E1	-1.904316396E-1	-4.321744442E-1	1.399756551E0
1.448731007E1	-1.517955512E-1	-5.938962698E-1	1.443890214E0
1.449571309E1	-8.872556686E-2	-5.189147592E-1	1.250404358E0
1.450411611E1	-1.023169141E-2	-2.412846684E-1	1.019045949E0
1.451251913E1	6.368082762E-2	8.796200156E-2	8.284615874E-1
1.452092215E1	1.159082651E-1	3.428380191E-1	6.739172339E-1
1.452932517E1	1.435490996E-1	4.356867969E-1	5.781669021E-1
1.453772819E1	1.540862173E-1	3.784198761E-1	5.464028716E-1
1.454613121E1	1.481304616E-1	2.115058601E-1	5.630484819E-1
1.455453423E1	1.383569092E-1	1.298050396E-2	5.801522136E-1
1.456293726E1	1.272089481E-1	-1.487413049E-1	5.764871240E-1
1.457134028E1	1.256818175E-1	-2.299840003E-1	5.557183027E-1
1.457974330E1	1.299577504E-1	-2.396048307E-1	5.207473040E-1
1.458814632E1	1.359135211E-1	-2.144073844E-1	4.674508572E-1
1.459654934E1	1.411057115E-1	-1.769929975E-1	4.214846194E-1
1.460495236E1	1.514901221E-1	-1.488940120E-1	3.999522328E-1
1.461335538E1	1.591257155E-1	-1.462979168E-1	3.956763148E-1
1.462175840E1	1.649287641E-1	-1.519482583E-1	4.088095427E-1
1.463016142E1	1.754658818E-1	-1.473668963E-1	4.292729199E-1
1.463856444E1	1.861557066E-1	-1.404948682E-1	4.309527278E-1
1.464696746E1	1.953184158E-1	-1.502684206E-1	4.118637741E-1
1.465537048E1	2.017323077E-1	-1.681357026E-1	3.987305462E-1
1.466377351E1	2.067717910E-1	-1.646233350E-1	4.129327536E-1
1.467217653E1	2.092151791E-1	-1.418692768E-1	4.559974670E-1
1.468057955E1	2.116585821E-1	-1.282779276E-1	4.978405237E-1
1.468898257E1	2.179197669E-1	-1.152974218E-1	5.238015056E-1
1.469738559E1	2.206685692E-1	-8.903098851E-2	5.416688323E-1
1.470578861E1	2.231119573E-1	-6.352811307E-2	5.691569448E-1
1.471419163E1	2.263189107E-1	-6.306997687E-2	6.071822047E-1
1.472259465E1	2.273878902E-1	-9.544488788E-2	6.575770974E-1
1.473099767E1	2.250972092E-1	-1.440072358E-1	7.273663878E-1
1.473940069E1	2.173089087E-1	-1.740914732E-1	8.108997345E-1
1.474780371E1	2.053973973E-1	-1.747023165E-1	9.006943107E-1
1.475620673E1	1.905843467E-1	-1.530172378E-1	9.962918758E-1
1.476460976E1	1.797417998E-1	-1.142284349E-1	1.098761559E0
1.477301278E1	1.702736765E-1	-6.948387623E-2	1.214669824E0
1.478141580E1	1.637070626E-1	-3.252761811E-2	1.337450027E0
1.478981882E1	1.644706279E-1	1.236965694E-2	1.464200854E0
1.479822184E1	1.606528312E-1	4.214845970E-2	1.618745208E0
1.480662486E1	1.542389393E-1	5.879404768E-2	1.803068399E0
1.481502788E1	1.534753740E-1	7.116370648E-2	2.010603666E0
1.482343090E1	1.797417998E-1	1.116323397E-1	2.235090017E0
1.483183392E1	2.237228155E-1	1.647760421E-1	2.458507538E0
1.484023694E1	2.658712566E-1	2.228065431E-1	2.640998125E0
1.484863996E1	2.997733057E-1	4.446968138E-1	2.778896809E0
1.485704298E1	2.469350100E-1	6.841489077E-1	2.847006321E0
1.486544600E1	1.278197914E-1	6.604785919E-1	2.781798363E0
1.487384903E1	2.275406010E-2	3.168770075E-1	2.655658484E0
1.488225205E1	-1.954711229E-2	-1.875301152E-1	2.629391909E0
1.489065507E1	1.221694518E-2	-5.876350403E-1	2.682993889E0
1.489905809E1	9.269607067E-2	-8.223531246E-1	2.722088099E0
1.490746111E1	1.976090819E-1	-9.920159578E-1	2.694294453E0
1.491586413E1	2.803788781E-1	-1.106091619E0	2.575637579E0
1.492426715E1	3.535278440E-1	-1.219556570E0	2.462783337E0
1.493267017E1	3.694098890E-1	-1.242921472E0	2.238296986E0
1.494107319E1	2.945810854E-1	-9.747595191E-1	1.638750434E0
1.494947621E1	3.439069986E-1	-8.704573512E-1	9.275715351E-1
1.495787923E1	5.247178078E-1	-9.862129092E-1	3.636068404E-1
1.496628226E1	6.525375843E-1	-1.205507040E0	1.731752008E-1
1.497468528E1	5.737382770E-1	-1.372421026E0	3.669664860E-1
1.498308830E1	4.230117202E-1	-1.403116107E0	6.481089592E-1
1.499149132E1	3.336753249E-1	-1.373948216E0	7.244648337E-1
1.499989434E1	2.985515893E-1	-1.255138397E0	4.356867969E-1
1.500829736E1	2.136438340E-1	-8.782456517E-1	-9.972081333E-2
1.501670038E1	1.072036922E-1	-2.480039895E-1	-6.500942111E-1
1.502510340E1	5.085303262E-2	4.940227270E-1	-1.048824787E0
1.503350642E1	3.909422457E-2	1.054933190E0	-1.308740258E0
1.504190944E1	2.122694254E-2	1.284917235E0	-1.514443040E0
1.505031246E1	-1.053711493E-2	1.212989926E0	-1.657075882E0
1.505871548E1	-4.459185153E-2	9.599464536E-1	-1.709761500E0
1.506711851E1	-6.917845458E-2	6.664343476E-1	-1.677081108E0
1.507552153E1	-8.612946421E-2	3.976615667E-1	-1.625311852E0
1.508392455E1	-9.101624042E-2	1.895153672E-1	-1.620425105E0
1.509232757E1	-9.208522737E-2	5.054761097E-2	-1.694184899E0
1.510073059E1	-1.047603041E-1	-3.573456407E-2	-1.837428570E0
1.510913361E1	-1.357607991E-1	-7.650861889E-2	-2.011214495E0
1.511753663E1	-1.801999360E-1	-7.452336699E-2	-2.163926363E0
1.512593965E1	-2.299840003E-1	-5.573981255E-2	-2.267006874E0
1.513434267E1	-2.799207568E-1	-2.305948362E-2	-2.350387573E0
1.514274569E1	-3.292466700E-1	2.428117767E-2	-2.423078299E0
1.515114871E1	-3.826957941E-1	8.215895295E-2	-2.488439083E0
1.515955173E1	-4.277457893E-1	1.725643575E-1	-2.570139885E0
1.516795476E1	-4.624113739E-1	2.916795611E-1	-2.667417288E0
1.517635778E1	-4.917320311E-1	3.898732662E-1	-2.771261215E0
1.518476080E1	-5.294518471E-1	4.712686539E-1	-2.892667294E0
1.519316382E1	-5.601469278E-1	5.337277651E-1	-2.993915081E0
1.520156684E1	-5.676298141E-1	5.801522136E-1	-3.074394226E0
1.520996986E1	-5.680879354E-1	6.117635369E-1	-3.149986506E0
1.521837288E1	-5.729747415E-1	6.343649030E-1	-3.231534719E0
1.522677590E1	-5.685460567E-1	6.710157394E-1	-3.315831661E0
1.523517892E1	-5.541911721E-1	7.255338430E-1	-3.389133215E0
1.524358194E1	-5.283828974E-1	7.606575489E-1	-3.446552992E0
1.525198496E1	-4.946335554E-1	7.806627750E-1	-3.502292871E0
1.526038798E1	-4.544703662E-1	7.853968740E-1	-3.542303324E0
1.526879100E1	-4.120164812E-1	7.487460375E-1	-3.550855160E0
1.527719403E1	-3.555130959E-1	6.687250137E-1	-3.525352240E0
1.528559705E1	-2.976353168E-1	5.405998230E-1	-3.473277569E0
1.529400007E1	-2.360924631E-1	3.733803928E-1	-3.397227049E0
1.530240309E1	-1.579040140E-1	1.889045089E-1	-3.276584625E0
1.531080611E1	-8.887827396E-2	3.084778599E-2	-3.097453833E0
1.531920913E1	-3.649812192E-2	-1.001789495E-1	-2.849144220E0
1.532761215E1	-6.108472589E-3	-1.884463727E-1	-2.570750713E0
1.533601517E1	-1.985253533E-3	-2.141019702E-1	-2.325953722E0
1.534441819E1	-2.214321308E-2	-2.179197669E-1	-2.089555740E0
1.535282121E1	-6.200099736E-2	-2.099787444E-1	-1.797876239E0
1.536122423E1	-1.238492802E-1	-1.395785958E-1	-1.361883998E0
1.536962726E1	-1.992889196E-1	-1.311794519E-1	-7.939487100E-1
1.537803028E1	-2.496838123E-1	-1.427855492E-1	-2.819060087E-1
1.538643330E1	-1.995943487E-1	-1.527118087E-1	2.078407854E-1
1.539483632E1	-1.374406368E-1	-2.154763639E-1	9.321529269E-1
1.540323934E1	-9.575030953E-2	-2.576248348E-1	1.902789235E0
1.541164236E1	-4.726430774E-1	3.611634374E-1	2.250666618E0
1.542004538E1	-1.097539783E0	1.587592006E0	1.411362648E0
1.542844840E1	-1.404643297E0	2.613204479E0	-5.894676223E-2
1.543685142E1	-8.209787011E-1	3.169533730E0	-1.010952234E0
1.544525444E1	6.551336497E-2	3.033772945E0	1.635543555E-1
1.545365746E1	1.049130186E-1	1.953031421E0	2.718270302E0
1.546206048E1	-1.548497826E-1	9.155073166E-1	3.787252903E0
1.547046351E1	-3.631486893E-1	-2.516690791E-1	3.301171303E0
1.547886653E1	-3.684936166E-1	-1.050809979E0	2.144531965E0
1.548726955E1	-2.857238054E-1	-1.046381354E0	1.477639556E0
1.549567257E1	-2.721324563E-1	-4.639385045E-1	1.355928183E0
1.550407559E1	-3.834593594E-1	3.660502136E-1	1.240325332E0
1.551247861E1	-4.764608741E-1	1.025765300E0	9.645278454E-1
1.552088163E1	-3.924693763E-1	1.249946237E0	7.456917763E-1
1.552928465E1	-3.327590525E-1	1.219556570E0	6.019899845E-1
1.553768767E1	-3.914003670E-1	1.051115394E0	5.383091569E-1
1.554609069E1	-4.054498672E-1	7.446228266E-1	6.354338527E-1
1.555449371E1	-4.112529159E-1	3.753656447E-1	8.333483934E-1
1.556289673E1	-4.372139275E-1	2.183778957E-2	9.994988441E-1
1.557129976E1	-4.152234197E-1	-1.774511337E-1	1.083032131E0
1.557970278E1	-3.744493723E-1	-2.154763639E-1	1.107160687E0
1.558810580E1	-3.245126009E-1	-1.493521482E-1	1.056918502E0
1.559650882E1	-2.728960216E-1	-4.810422286E-2	9.510892034E-1
1.560491184E1	-2.399102598E-1	8.506047726E-2	8.512156606E-1
1.561331486E1	-2.105895877E-1	2.086043358E-1	8.171609044E-1
1.562171788E1	-1.794363856E-1	2.564031482E-1	8.249492049E-1
1.563012090E1	-1.571404636E-1	2.150182426E-1	8.335011005E-1
1.563852392E1	-1.469087601E-1	1.411057115E-1	8.310576677E-1
1.564692694E1	-1.473668963E-1	6.398624927E-2	8.267817497E-1
1.565532996E1	-1.449235082E-1	-1.435491070E-2	8.116632700E-1
1.566373298E1	-1.389677525E-1	-5.696150661E-2	7.728744745E-1
1.567213600E1	-1.336228400E-1	-6.322269142E-2	7.395833135E-1
1.568053903E1	-1.304158866E-1	-6.139015034E-2	7.151494026E-1
1.568894205E1	-1.288887709E-1	-6.688777357E-2	6.916317940E-1
1.569734507E1	-1.230857223E-1	-9.941539168E-2	6.720846891E-1
1.570574809E1	-1.212531775E-1	-1.353026628E-1	6.575770974E-1
1.571415111E1	-1.123958975E-1	-1.736333370E-1	6.510104537E-1
1.572255413E1	-1.038440317E-1	-1.957765520E-1	6.384881139E-1
1.573095715E1	-9.132166207E-2	-2.081461996E-1	6.253548861E-1
1.573936017E1	-7.925742865E-2	-2.257080674E-1	6.140542030E-1
1.574776319E1	-6.917845458E-2	-2.457133085E-1	6.164975762E-1
1.575616621E1	-6.306997687E-2	-2.499892414E-1	6.392516494E-1
1.576456923E1	-6.047387794E-2	-2.432699203E-1	6.595623493E-1
1.577297226E1	-6.383354217E-2	-2.373141646E-1	6.731536984E-1
1.578137528E1	-6.826218218E-2	-2.385358512E-1	6.919372082E-1
1.578977830E1	-7.299624383E-2	-2.469350100E-1	7.156075835E-1
1.579818132E1	-7.849387079E-2	-2.623589039E-1	7.498149872E-1
1.580658434E1	-8.612946421E-2	-2.973299026E-1	7.930324674E-1
1.581498736E1	-9.376505762E-2	-3.300102353E-1	8.389987350E-1
1.582339038E1	-9.345962852E-2	-3.503209054E-1	8.793146014E-1
1.583179340E1	-9.391776472E-2	-3.361186981E-1	9.145910740E-1
1.584019642E1	-9.345962852E-2	-2.970244884E-1	9.524635673E-1
1.584859944E1	-9.223793447E-2	-2.506000996E-1	9.851438999E-1
1.585700246E1	-9.697200358E-2	-2.214321345E-1	1.004996419E0
1.586540548E1	-1.026223376E-1	-2.113531530E-1	1.027139664E0
1.587380851E1	-1.145338640E-1	-2.249445021E-1	1.066539288E0
1.588221153E1	-1.203369126E-1	-2.507528067E-1	1.117239594E0
1.589061455E1	-1.211004704E-1	-2.786990702E-1	1.170383334E0
1.589901757E1	-1.180462316E-1	-2.754921019E-1	1.227650285E0
1.590742059E1	-1.139230132E-1	-2.396048307E-1	1.281404853E0
1.591582361E1	-1.191152185E-1	-2.011214644E-1	1.325843930E0
1.592422663E1	-1.253764033E-1	-1.748550236E-1	1.355011940E0
1.593262965E1	-1.320957243E-1	-1.760767251E-1	1.395633221E0
1.594103267E1	-1.456870735E-1	-2.029540092E-1	1.475654244E0
1.594943569E1	-1.643179059E-1	-2.597627938E-1	1.587897420E0
1.595783871E1	-1.884463727E-1	-3.559712470E-1	1.707165360E0
1.596624173E1	-2.195995897E-1	-4.676035643E-1	1.813758254E0
1.597464476E1	-2.463241518E-1	-5.674771070E-1	1.930277348E0
1.598304778E1	-2.600682080E-1	-6.638382673E-1	2.062220335E0
1.599145080E1	-2.463241518E-1	-7.678350210E-1	2.197523117E0
1.599985382E1	-2.156290859E-1	-9.327637553E-1	2.292509794E0
1.600825684E1	-1.809635013E-1	-1.158471823E0	2.340308666E0
1.601665986E1	-1.272089481E-1	-1.371352077E0	2.408417940E0
1.602506288E1	-7.742489129E-2	-1.636001706E0	2.480803490E0
1.603346590E1	-1.542389300E-2	-1.844147921E0	2.464310646E0
1.604186892E1	3.420744836E-2	-1.962499499E0	2.397881031E0
1.605027194E1	6.383354217E-2	-2.019002914E0	2.365353346E0
1.605867496E1	7.941014320E-2	-2.030150890E0	2.424758196E0
1.606707798E1	9.712471068E-2	-2.046032906E0	2.475153208E0
1.607548100E1	1.317902952E-1	-2.044047594E0	2.449497461E0
1.608388403E1	1.511846930E-1	-2.011978149E0	2.402309656E0
1.609228705E1	1.867665499E-1	-1.845216870E0	2.376653910E0
1.610069007E1	2.283041626E-1	-1.425412059E0	2.296480179E0
1.610909309E1	1.511846930E-1	-7.527165413E-1	2.010756493E0
1.611749611E1	-7.589777559E-2	-5.894676223E-2	1.329814434E0
1.612589913E1	-1.806580722E-1	2.449497581E-1	4.599680007E-1
1.613430215E1	-6.413896382E-2	1.501157135E-1	-3.617742956E-1
1.614270517E1	2.506000996E-1	-3.463504016E-1	-8.790091872E-1
1.615110819E1	5.366293192E-1	-1.160609841E0	-9.013051391E-1
1.615951121E1	5.676298141E-1	-2.035953999E0	-4.666872919E-1
1.616791423E1	3.994941115E-1	-2.678717852E0	1.742441803E-1
1.617631726E1	3.023693860E-1	-2.894041538E0	5.813738704E-1
1.618472028E1	3.130592108E-1	-2.804705143E0	5.531222224E-1
1.619312330E1	2.736595869E-1	-2.465226889E0	6.658235192E-2
1.620152632E1	1.441599578E-1	-1.767486572E0	-7.296570539E-1
1.620992934E1	-1.679830020E-3	-7.197307944E-1	-1.485580564E0
1.621833236E1	-9.804098308E-2	4.268295169E-1	-1.995943427E0
1.622673538E1	-1.423274130E-1	1.356539011E0	-2.314194918E0
1.623513840E1	-1.582094431E-1	1.802457571E0	-2.557617426E0
1.624354142E1	-1.707318127E-1	1.771304369E0	-2.728960037E0
1.625194444E1	-1.800472289E-1	1.439461589E0	-2.796000719E0
1.626034746E1	-1.786728203E-1	9.871291518E-1	-2.718117476E0
1.626875048E1	-1.614163816E-1	5.682406425E-1	-2.531656504E0
1.627715350E1	-1.314848661E-1	2.246390730E-1	-2.358023167E0
1.628555653E1	-9.361234307E-2	-6.093201414E-2	-2.286401272E0
1.629395955E1	-7.635590434E-2	-2.849602401E-1	-2.329160690E0
1.630236257E1	-9.758284688E-2	-4.022429287E-1	-2.425063610E0
1.631076559E1	-1.391204596E-1	-4.002576768E-1	-2.512720108E0
1.631916861E1	-1.899735034E-1	-2.987042964E-1	-2.567390919E0
1.632757163E1	-2.405211031E-1	-1.502684206E-1	-2.596864462E0
1.633597465E1	-2.987042964E-1	3.665083554E-3	-2.624505281E0
1.634437767E1	-3.579564989E-1	1.809635013E-1	-2.685437202E0
1.635278069E1	-4.124746025E-1	3.920112252E-1	-2.785005331E0
1.636118371E1	-4.431696832E-1	5.989357233E-1	-2.896485090E0
1.636958673E1	-4.599680007E-1	7.550072074E-1	-3.007048368E0
1.637798976E1	-4.706578255E-1	8.328902125E-1	-3.105394840E0
1.638639278E1	-4.625640810E-1	8.335011005E-1	-3.165410519E0
1.639479580E1	-4.300364852E-1	7.886037827E-1	-3.183735847E0
1.640319882E1	-4.036173224E-1	7.096518278E-1	-3.190608025E0
1.641160184E1	-3.923166394E-1	6.076403260E-1	-3.208933353E0
1.642000486E1	-3.987305462E-1	5.267030597E-1	-3.238864899E0
1.642840788E1	-4.043808877E-1	4.963133931E-1	-3.282998562E0
1.643681090E1	-4.085040987E-1	5.221216679E-1	-3.332629919E0
1.644521392E1	-3.985778391E-1	5.894675851E-1	-3.370502472E0
1.645361694E1	-3.701734245E-1	6.873558760E-1	-3.400281191E0
1.646201996E1	-3.330644667E-1	8.084563613E-1	-3.422882557E0
1.647042298E1	-2.812951505E-1	8.964183331E-1	-3.409291267E0
1.647882601E1	-2.163926363E-1	9.345963001E-1	-3.360728979E0
1.648722903E1	-1.502684206E-1	9.487984776E-1	-3.274752140E0
1.649563205E1	-8.582404256E-2	8.947384953E-1	-3.114862919E0
1.650403507E1	-1.527118147E-3	7.740961909E-1	-2.872661829E0
1.651243809E1	9.025268257E-2	6.180247068E-1	-2.543567896E0
1.652084111E1	1.505738497E-1	4.552339315E-1	-2.127428293E0
1.652924413E1	1.469087601E-1	3.570402265E-1	-1.715869904E0
1.653764715E1	1.087308154E-1	3.669664860E-1	-1.409835458E0
1.654605017E1	6.383354217E-2	4.718795121E-1	-1.143811464E0
1.655445319E1	-2.290677279E-3	6.407787800E-1	-8.119687438E-1
1.656285621E1	-3.512371704E-2	7.476770282E-1	-3.874298632E-1
1.657125923E1	-5.909947306E-2	8.307522535E-1	2.305948362E-2
1.657966226E1	-1.075091213E-1	8.222004175E-1	4.534013867E-1
1.658806528E1	-1.968455315E-1	7.669187188E-1	8.918370008E-1
1.659646830E1	-3.516952991E-1	7.621846795E-1	1.267355323E0
1.660487132E1	-5.570927262E-1	7.769976854E-1	1.394411564E0
1.661327434E1	-1.013548255E0	1.161678791E0	1.015075445E0
1.662167736E1	-1.420830727E0	1.333632231E0	3.145863488E-2
1.663008038E1	-7.708892226E-1	1.329050899E0	-1.010799527E0
1.663848340E1	9.132166207E-2	7.417212725E-1	1.459924877E-1
1.664688642E1	3.075616062E-1	-3.287885487E-1	2.871898413E0
1.665528944E1	3.217637837E-1	-5.118899941E-1	4.209348679E0
1.666369246E1	1.221694499E-1	-8.628217578E-1	3.570249557E0
1.667209548E1	-2.431172132E-1	-1.396244168E0	2.148197174E0
1.668049851E1	-3.411581814E-1	-1.298355818E0	1.121210098E0
1.668890153E1	-2.554868758E-1	-2.790044844E-1	9.185615778E-1
1.669730455E1	-3.393256664E-1	8.255600929E-1	8.556442857E-1
1.670570757E1	-4.871506989E-1	1.464048147E0	6.290199757E-1
1.671411059E1	-4.283566475E-1	1.524827480E0	4.165978432E-1
1.672251361E1	-2.872509360E-1	1.108993173E0	4.320217371E-1
1.673091663E1	-2.414373755E-1	5.436540842E-1	5.593833923E-1
1.673931965E1	-2.486148328E-1	2.687728032E-2	7.522584200E-1
1.674772267E1	-2.435753495E-1	-3.153499067E-1	9.756757617E-1
1.675612569E1	-2.365505993E-1	-4.004103839E-1	1.087308168E0
1.676452871E1	-2.252499312E-1	-3.000787199E-1	1.052184463E0
1.677293173E1	-1.759240031E-1	-1.291942000E-1	9.075663090E-1
1.678133476E1	-1.078145429E-1	8.063183725E-2	7.269082665E-1
1.678973778E1	-6.047387794E-2	2.622061968E-1	6.242858768E-1
1.679814080E1	-4.321744293E-2	3.196258247E-1	6.224533319E-1
1.680654382E1	-2.825168520E-2	2.619007528E-1	6.632274389E-1
1.681494684E1	-1.985253580E-2	1.294996142E-1	7.298097610E-1
1.682334986E1	-1.832541823E-2	-1.130067464E-2	7.925743461E-1
1.683175288E1	-1.236965694E-2	-1.023169160E-1	8.241856694E-1
1.684015590E1	-9.315420873E-3	-1.325538605E-1	7.988355160E-1
1.684855892E1	-1.191152167E-2	-1.160609797E-1	7.343910933E-1
1.685696194E1	-1.527118124E-2	-7.406523079E-2	6.603258848E-1
