"Time (s)"	"Acceleration x (m/s^2)"	"Acceleration y (m/s^2)"	"Acceleration z (m/s^2)"
4.863648600E-2	-1.463211060E0	9.602396965E0	1.028913707E-1
5.703950700E-2	-1.456630826E0	9.634101868E0	1.094716340E-1
6.544252700E-2	-1.426122308E0	9.699904442E0	1.058823988E-1
7.384554800E-2	-1.403390527E0	9.736993790E0	9.332008660E-2
8.224856900E-2	-1.423729420E0	9.703494072E0	8.853443712E-2
9.065159000E-2	-1.436890006E0	9.670592308E0	6.221338734E-2
9.905461100E-2	-1.444068432E0	9.677172661E0	2.811566554E-2
1.074576320E-1	-1.420738459E0	9.675378799E0	3.589234129E-2
1.158606520E-1	-1.384247899E0	9.660423279E0	4.965107143E-2
1.242636730E-1	-1.371087432E0	9.671191216E0	1.854437590E-2
1.326666940E-1	-1.374676585E0	9.675976753E0	-7.178467698E-3
1.410697150E-1	-1.387837172E0	9.704092026E0	2.572284266E-2
1.494727360E-1	-1.384846091E0	9.709476471E0	4.725824669E-2
1.578757570E-1	-1.404586911E0	9.701101303E0	4.785645381E-2
1.662787770E-1	-1.411765337E0	9.680762291E0	4.606183618E-2
1.746817980E-1	-1.422533035E0	9.701101303E0	5.802594870E-2
1.830848190E-1	-1.445863128E0	9.691530228E0	5.682953820E-2
1.914878400E-1	-1.455434322E0	9.652647018E0	2.871387079E-2
1.998908610E-1	-1.445264935E0	9.637691498E0	4.426721856E-2
2.082938820E-1	-1.429113269E0	9.640682220E0	9.511470050E-2
2.166969020E-1	-1.434497118E0	9.685547829E0	1.489532143E-1
2.250999230E-1	-1.475175142E0	9.741181374E0	1.447657645E-1
2.335029440E-1	-1.532004714E0	9.725028992E0	1.274178028E-1
2.419059650E-1	-1.536790371E0	9.689735413E0	5.682953820E-2
2.503089860E-1	-1.508076429E0	9.659226418E0	4.666004330E-2
2.587120070E-1	-1.521237016E0	9.616754532E0	6.819544733E-2
2.671150270E-1	-1.529611826E0	9.571888924E0	4.127619043E-2
2.755180480E-1	-1.519442320E0	9.570692062E0	2.392822644E-3
2.839210690E-1	-1.481755376E0	9.641280174E0	4.785645287E-3
2.923240900E-1	-1.429113269E0	9.669994354E0	5.982056726E-3
3.007271110E-1	-1.396810174E0	9.650253296E0	1.734796353E-2
3.091301320E-1	-1.390229940E0	9.653842926E0	1.256231871E-2
3.175331520E-1	-1.437488198E0	9.671191216E0	3.529413417E-2
3.259361730E-1	-1.470389485E0	9.684351921E0	1.435693540E-2
3.343391940E-1	-1.476371527E0	9.701101303E0	-5.383851007E-3
3.427422150E-1	-1.490130305E0	9.677771568E0	-1.196411322E-3
3.511452360E-1	-1.496710539E0	9.661021233E0	-2.033899166E-2
3.595482570E-1	-1.490130305E0	9.625727654E0	-6.041877344E-2
3.679512770E-1	-1.439282775E0	9.626923561E0	-2.871387079E-2
3.763542980E-1	-1.402194023E0	9.667601585E0	5.982056726E-3
3.847573190E-1	-1.399203062E0	9.696315765E0	-6.580262445E-3
3.931603400E-1	-1.408774376E0	9.702297211E0	-3.589234129E-2
4.015633610E-1	-1.413560033E0	9.681958199E0	-4.725824669E-2
4.099663820E-1	-1.439282775E0	9.675378799E0	-7.836493850E-2
4.183694020E-1	-1.440479279E0	9.689735413E0	-1.226321608E-1
4.267724230E-1	-1.433898926E0	9.676574707E0	-1.495514214E-1
4.351754440E-1	-1.390828133E0	9.658030510E0	-1.022931710E-1
4.435784650E-1	-1.350748420E0	9.653842926E0	-4.007977992E-2
4.519814860E-1	-1.373480201E0	9.661021233E0	1.256231871E-2
4.603845070E-1	-1.444068432E0	9.654440880E0	2.811566554E-2
4.687875270E-1	-1.476969719E0	9.650852203E0	-2.273181453E-2
4.771905480E-1	-1.456032634E0	9.647860527E0	-2.512463741E-2
4.855935690E-1	-1.450050473E0	9.683753014E0	-4.426721856E-2
4.939965900E-1	-1.426720500E0	9.717850685E0	-6.999006122E-2
5.023996110E-1	-1.415354609E0	9.700503349E0	-6.041877344E-2
5.108026320E-1	-1.403390527E0	9.668798447E0	-3.768695518E-2
5.192056520E-1	-1.427318692E0	9.662816048E0	-2.632104978E-2
5.276086730E-1	-1.463809252E0	9.656235695E0	-5.503492057E-2
5.360116940E-1	-1.472184181E0	9.658628464E0	-3.170489892E-2
5.444147150E-1	-1.444068432E0	9.658030510E0	-1.495514158E-2
5.528177360E-1	-1.395015597E0	9.655637741E0	-4.127619043E-2
5.612207570E-1	-1.396211982E0	9.647860527E0	-7.238288224E-2
5.696237770E-1	-1.433300734E0	9.648459435E0	-6.520441920E-2
5.780267980E-1	-1.407577872E0	9.661619186E0	-8.913264424E-2
5.864298190E-1	-1.401595831E0	9.687940598E0	-4.426721856E-2
5.948328400E-1	-1.393221021E0	9.671191216E0	-8.075776696E-2
6.032358610E-1	-1.354935765E0	9.695717812E0	-9.451649338E-2
6.116388820E-1	-1.376471281E0	9.713065147E0	-6.281159073E-2
6.200419020E-1	-1.439880967E0	9.689735413E0	-5.503492057E-2
6.284449230E-1	-1.445264935E0	9.679565430E0	-7.178468257E-2
6.368479440E-1	-1.439282775E0	9.649655342E0	-7.956135273E-2
6.452509650E-1	-1.426720500E0	9.641280174E0	-6.400800496E-2
6.536539860E-1	-1.418345571E0	9.629316330E0	-6.400800496E-2
6.620570070E-1	-1.420738459E0	9.609575272E0	-3.888336942E-2
6.704600270E-1	-1.433300734E0	9.614959717E0	-1.196411345E-2
6.788630480E-1	-1.442273855E0	9.619745255E0	-3.768695518E-2
6.872660690E-1	-1.398006678E0	9.650852203E0	-7.657032460E-2
6.956690900E-1	-1.350748420E0	9.659825325E0	-6.580262631E-2
7.040721110E-1	-1.332802176E0	9.675378799E0	-6.041877344E-2
7.124751320E-1	-1.370489120E0	9.664012909E0	-5.802594870E-2
7.208781520E-1	-1.430907965E0	9.647262573E0	-9.332008660E-2
7.292811730E-1	-1.421934843E0	9.658628464E0	-8.494520187E-2
7.376841940E-1	-1.357926846E0	9.667601585E0	-5.682953820E-2
7.460872150E-1	-1.350748420E0	9.675976753E0	-3.589234129E-2
7.544902360E-1	-1.341775298E0	9.690931320E0	-4.247260094E-2
7.628932570E-1	-1.359123230E0	9.704092026E0	-5.682953820E-2
7.712962770E-1	-1.372882009E0	9.719047546E0	-9.212367237E-2
7.796992980E-1	-1.349551916E0	9.711869240E0	-1.028913707E-1
7.881023190E-1	-1.319641709E0	9.686744690E0	-8.913264424E-2
7.965053400E-1	-1.310668588E0	9.677771568E0	-7.477571070E-2
8.049083610E-1	-1.323230863E0	9.689735413E0	-8.255238086E-2
8.133113820E-1	-1.331007600E0	9.686744690E0	-8.494520187E-2
8.217144020E-1	-1.328016520E0	9.684949875E0	-7.776673883E-2
8.301174230E-1	-1.320838094E0	9.671789169E0	-4.366901144E-2
8.385204440E-1	-1.348953724E0	9.672985077E0	-4.905286431E-2
8.469234650E-1	-1.389033556E0	9.685547829E0	-4.965107143E-2
8.553264860E-1	-1.433300734E0	9.703494072E0	-6.999006122E-2
8.637295070E-1	-1.425524116E0	9.699306488E0	-6.520441920E-2
8.721325270E-1	-1.435095429E0	9.699306488E0	-4.486542568E-2
8.805355480E-1	-1.431506157E0	9.702896118E0	-4.007977992E-2
8.889385690E-1	-1.441675663E0	9.709476471E0	-3.649054468E-2
8.973415900E-1	-1.447657704E0	9.729216576E0	-4.965107143E-2
9.057446110E-1	-1.445264935E0	9.747760773E0	-6.400800496E-2
9.141476320E-1	-1.435095429E0	9.748359680E0	-7.836493850E-2
9.225506520E-1	-1.384247899E0	9.743574142E0	-6.400800496E-2
9.309536730E-1	-1.332802176E0	9.759725571E0	3.589234129E-2
9.393566940E-1	-1.249053478E0	9.732806206E0	-2.991028363E-3
9.477597150E-1	-1.200598717E0	9.759127617E0	1.112662554E-1
9.561627360E-1	-1.377069473E0	9.744172096E0	2.207378894E-1
9.645657570E-1	-1.791027784E0	9.658030510E0	2.243271172E-1
9.729687770E-1	-2.104487419E0	9.654440880E0	1.363908947E-1
9.813717980E-1	-2.175673962E0	9.694520950E0	9.332008660E-2
9.897748190E-1	-2.018345833E0	9.668798447E0	4.007977992E-2
9.981778400E-1	-1.849053741E0	9.671191216E0	-2.273181453E-2
1.006580861E0	-1.760519266E0	9.767501831E0	-7.657032460E-2
1.014983882E0	-1.729412556E0	9.890732765E0	-1.082752272E-1
1.023386902E0	-1.685743570E0	9.958928108E0	-1.304088384E-1
1.031789923E0	-1.643869162E0	9.942177773E0	-1.776670814E-1
1.040192944E0	-1.645663738E0	9.841081619E0	-2.201396823E-1
1.048595965E0	-1.630110383E0	9.726225853E0	-1.980060786E-1
1.056998986E0	-1.511067510E0	9.646664619E0	-2.039881349E-1
1.065402007E0	-1.333998680E0	9.661021233E0	-1.668993831E-1
1.073805027E0	-1.210170031E0	9.737591743E0	-3.708875179E-2
1.082208048E0	-1.275374413E0	9.801001549E0	7.776673883E-2
1.090611069E0	-1.427916884E0	9.761520386E0	1.166501045E-1
1.099014090E0	-1.440479279E0	9.701699257E0	1.657029688E-1
1.107417111E0	-1.305882931E0	9.650253296E0	2.338984162E-1
1.115820132E0	-1.133001566E0	9.602995872E0	2.177468538E-1
1.124223152E0	-9.463613629E-1	9.600004196E0	1.986042857E-1
1.132626173E0	-6.771687865E-1	9.559925079E0	1.597209126E-1
1.141029194E0	-4.259224236E-1	9.515657425E0	1.058823988E-1
1.149432215E0	-2.877369225E-1	9.504889488E0	9.092725813E-2
1.157835236E0	-3.182454109E-1	9.534799576E0	3.469592705E-2
1.166238257E0	-4.456632137E-1	9.570094109E0	-7.178467698E-3
1.174641277E0	-5.000999570E-1	9.559326172E0	-5.623133108E-2
1.183044298E0	-4.522434771E-1	9.480362892E0	-7.597211748E-2
1.191447319E0	-3.948157430E-1	9.440881729E0	-2.751746029E-2
1.199850340E0	-3.720839322E-1	9.490532875E0	1.794617064E-2
1.208253361E0	-3.649054468E-1	9.562915802E0	8.853443712E-2
1.216656382E0	-3.098705411E-1	9.655637741E0	1.698904037E-1
1.225059402E0	-2.105683982E-1	9.675378799E0	2.350948304E-1
1.233462423E0	-2.225325108E-1	9.664012909E0	2.626122832E-1
1.241865444E0	-3.188436031E-1	9.618548393E0	1.686939895E-1
1.250268465E0	-4.420739710E-1	9.591031075E0	1.196411345E-2
1.258671486E0	-5.090730190E-1	9.593423843E0	-8.554340899E-2
1.267074507E0	-4.689932466E-1	9.595218658E0	-1.423729509E-1
1.275477527E0	-4.085744619E-1	9.621540070E0	-1.345962733E-1
1.283880548E0	-3.655036688E-1	9.683155060E0	-9.092725813E-2
1.292283569E0	-3.589234054E-1	9.696913719E0	-4.606183618E-2
1.300686590E0	-3.798605800E-1	9.653244972E0	-4.965107143E-2
1.309089611E0	-5.018945336E-1	9.591031075E0	-1.004985496E-1
1.317492632E0	-5.994020700E-1	9.549157143E0	-1.178465188E-1
1.325895652E0	-6.269195080E-1	9.550951958E0	-1.256231871E-2
1.334298673E0	-6.245267391E-1	9.571290970E0	1.274178028E-1
1.342701694E0	-5.958128572E-1	9.559925079E0	2.374876440E-1
1.351104715E0	-5.545366406E-1	9.490532875E0	2.937189937E-1
1.359507736E0	-5.012963414E-1	9.478569031E0	3.655036688E-1
1.367910757E0	-5.581258535E-1	9.578469276E0	4.456632137E-1
1.376313777E0	-7.322037220E-1	9.710074425E0	4.103690982E-1
1.384716798E0	-9.553344250E-1	9.776474953E0	3.535395563E-1
1.393119819E0	-1.031904817E0	9.796813965E0	3.134597540E-1
1.401522840E0	-9.409775138E-1	9.757930756E0	3.014956415E-1
1.409925861E0	-7.740781307E-1	9.787242889E0	3.092723191E-1
1.418328882E0	-5.976074338E-1	9.891330719E0	3.242274821E-1
1.426731902E0	-5.844469070E-1	1.002592659E1	3.206382394E-1
1.435134923E0	-7.674978375E-1	1.004566765E1	2.386840582E-1
1.443537944E0	-9.696913958E-1	9.926624298E0	1.435693651E-1
1.451940965E0	-1.019342422E0	9.803992271E0	5.682953820E-2
1.460343986E0	-8.859425783E-1	9.784850121E0	-7.896314561E-2
1.468747007E0	-6.634100676E-1	9.828518867E0	-1.555334777E-1
1.477150027E0	-5.186443329E-1	9.881759644E0	-1.106680483E-1
1.485553048E0	-5.353940725E-1	9.839884758E0	-7.417750359E-2
1.493956069E0	-6.095715761E-1	9.756733894E0	-8.315058798E-2
1.502359090E0	-8.207381964E-1	9.716654778E0	1.698904037E-1
1.510762111E0	-8.069794178E-1	9.674779892E0	3.583251834E-1
1.519165132E0	-3.661018610E-1	9.719645500E0	7.076773047E-1
1.527568152E0	1.178465188E-1	9.812965393E0	1.252044439E0
1.535971173E0	2.398804724E-1	1.001396275E1	1.493719578E0
1.544374194E0	1.914258115E-2	1.005942631E1	1.496710539E0
1.552777215E0	-1.357926875E-1	9.856635094E0	1.241874933E0
1.561180236E0	-6.161518395E-2	9.488738060E0	1.063609719E0
1.569583257E0	8.673982322E-2	9.384650230E0	8.590233326E-1
1.577986277E0	2.620140910E-1	9.642477036E0	6.035895348E-1
1.586389298E0	4.426721931E-1	1.004088211E1	3.798605800E-1
1.594792319E0	4.390829504E-1	1.017308521E1	2.548356056E-1
1.603195340E0	4.660021961E-1	1.004327488E1	2.961117923E-1
1.611598361E0	4.677968323E-1	1.000080204E1	4.582255483E-1
1.620001382E0	3.092723191E-1	9.957731247E0	8.213363886E-1
1.628404402E0	1.495514214E-1	9.827920914E0	1.131805062E0
1.636807423E0	6.939185411E-2	9.785448074E0	1.327418327E0
1.645210444E0	4.785645287E-3	9.873384476E0	1.462612867E0
1.653613465E0	-9.391828626E-2	9.862616539E0	1.655833244E0
1.662016486E0	-2.123630047E-1	9.757930756E0	1.858026743E0
1.670419507E0	-1.770688742E-1	9.764511108E0	1.442872047E0
1.678822527E0	-3.601198196E-1	9.848259926E0	1.572682738E0
1.687225548E0	-4.013960063E-1	9.723235130E0	1.400399446E0
1.695628569E0	-3.391826153E-1	9.672387123E0	1.381855130E0
1.704031590E0	-3.062812984E-1	9.724431038E0	1.156929731E0
1.712434611E0	-3.349951804E-1	9.744770050E0	1.037288666E0
1.720837632E0	-3.684946895E-1	9.707083702E0	1.041476011E0
1.729240652E0	-4.013960063E-1	9.594022751E0	9.882357717E-1
1.737643673E0	-3.942175210E-1	9.553942680E0	8.991031051E-1
1.746046694E0	-3.469592929E-1	9.741779327E0	9.672985673E-1
1.754449715E0	-3.116651475E-1	9.811769485E0	1.115055323E0
1.762852736E0	-2.237289101E-1	9.681958199E0	1.189831018E0
1.771255757E0	2.691925503E-2	9.556933403E0	1.250249863E0
1.779658777E0	1.998006850E-1	9.569496155E0	1.327418327E0
1.788061798E0	4.354937077E-1	9.622138023E0	1.249053478E0
1.796464819E0	7.561319470E-1	9.602995872E0	1.295115232E0
1.804867840E0	9.954141974E-1	9.608379364E0	1.301695466E0
1.813270861E0	9.457631707E-1	9.679565430E0	1.338784218E0
1.821673882E0	7.615157962E-1	9.702297211E0	1.249651670E0
1.830076902E0	5.814558864E-1	9.655039787E0	1.172483087E0
1.838479923E0	5.820540786E-1	9.706484795E0	1.143769264E0
1.846882944E0	5.676971674E-1	9.838688850E0	1.227517962E0
1.855285965E0	5.084748268E-1	9.828518867E0	1.227517962E0
1.863688986E0	5.485545993E-1	9.736993790E0	1.259821177E0
1.872092007E0	5.473581553E-1	9.660423279E0	1.299302697E0
1.880495027E0	5.946164131E-1	9.562317848E0	1.313659668E0
1.888898048E0	7.393822074E-1	9.533005714E0	1.302293777E0
1.897301069E0	7.549355626E-1	9.573683739E0	1.508674622E0
1.905704090E0	6.077769399E-1	9.554540634E0	1.549950838E0
1.914107111E0	4.229314029E-1	9.544371605E0	1.414158225E0
1.922510132E0	2.727817893E-1	9.547960281E0	1.460818172E0
1.930913152E0	1.854437590E-1	9.570692062E0	1.567298889E0
1.939316173E0	3.284149170E-1	9.597611427E0	1.508674622E0
1.947719194E0	5.581258535E-1	9.599406242E0	1.479960799E0
1.956122215E0	7.142575383E-1	9.571290970E0	1.681556106E0
1.964525236E0	6.478567123E-1	9.601201057E0	1.748555183E0
1.972928257E0	6.532405615E-1	9.573683739E0	1.463211060E0
1.981331277E0	9.218349457E-1	9.603593826E0	1.260419369E0
1.989734298E0	1.069591761E0	9.696913719E0	1.310668588E0
1.998137319E0	1.103689432E0	9.751948357E0	1.273579836E0
2.006540340E0	1.154536963E0	9.769296646E0	1.140179992E0
2.014943361E0	1.198205948E0	9.677771568E0	1.138385415E0
2.023346382E0	1.259821177E0	9.658628464E0	1.296909928E0
2.031749402E0	1.332203984E0	9.702896118E0	1.254437327E0
2.040152423E0	1.442872047E0	9.807581902E0	1.130608678E0
2.048555444E0	1.418345571E0	9.858428955E0	1.297508121E0
2.056958465E0	1.380658627E0	9.863813400E0	1.352542996E0
2.065361486E0	1.361516118E0	9.798010826E0	1.258026481E0
2.073764507E0	1.375872970E0	9.697511673E0	1.111466169E0
2.082167527E0	1.660618901E0	9.731011391E0	1.034895778E0
2.090570548E0	1.768894196E0	9.937990189E0	1.161715388E0
2.098973569E0	1.623530149E0	1.003609657E1	1.039083242E0
2.107376590E0	1.590628862E0	1.004028416E1	1.000798106E0
2.115779611E0	1.704287887E0	1.008574772E1	1.049850941E0
2.124182632E0	1.829911113E0	1.011805058E1	1.175474167E0
2.132585652E0	1.774278045E0	1.014915752E1	1.207179070E0
2.140988673E0	1.702493310E0	1.018863869E1	1.112662554E0
2.149391694E0	1.724028707E0	1.030110168E1	1.069591761E0
2.157794715E0	1.685743570E0	1.023170948E1	1.162911773E0
2.166197736E0	1.660618901E0	1.018205833E1	1.170688510E0
2.174600757E0	1.671984792E0	1.019820976E1	1.037886858E0
2.183003777E0	1.715055585E0	1.018086243E1	9.098708034E-1
2.191406798E0	1.803590059E0	1.023470020E1	9.804590940E-1
2.199809819E0	1.869392633E0	1.040279675E1	9.966106415E-1
2.208212840E0	1.905285001E0	1.066660500E1	1.028913736E0
2.216615861E0	1.754537225E0	1.103928757E1	1.383649707E0
2.225018882E0	1.474576950E0	1.123609734E1	1.362114310E0
2.233421902E0	1.211366415E0	1.127498055E1	1.360319614E0
2.241824923E0	1.060618639E0	1.117448139E1	1.186840057E0
2.250227944E0	1.060618639E0	1.107278633E1	1.098903775E0
2.258630965E0	1.132403374E0	1.104467106E1	1.094118118E0
2.267033986E0	1.254437327E0	1.102851963E1	9.164510965E-1
2.275437007E0	1.018744230E0	1.108175945E1	1.101894855E0
2.283840027E0	9.894321561E-1	1.158724403E1	7.986045480E-1
2.292243048E0	1.303490162E0	1.244148159E1	8.452646136E-1
2.300646069E0	1.473978758E0	1.353679562E1	1.217348576E0
2.309049090E0	5.635097623E-1	1.421994686E1	1.013360381E0
2.317452111E0	-4.402793646E-1	1.337109280E1	1.746760458E-1
2.325855132E0	-7.944171429E-1	1.231286716E1	-3.792623878E-1
2.334258152E0	-4.265206456E-1	1.206700420E1	-2.482553422E-1
2.342661173E0	1.495514214E-1	1.284766293E1	4.426721856E-2
2.351064194E0	1.680957973E-1	1.340279770E1	-5.742774159E-2
2.359467215E0	1.974078640E-2	1.309651661E1	2.644068897E-1
2.367870236E0	6.107679605E-1	1.247198963E1	4.851447940E-1
2.376273257E0	1.701895118E0	1.243490124E1	1.563709617E0
2.384676277E0	3.567698479E0	1.258026505E1	3.232703447E0
2.393079298E0	5.640480995E0	1.241874981E1	4.362115860E0
2.401482319E0	6.845267296E0	1.239362526E1	5.026124001E0
2.409885340E0	6.523432732E0	1.285902882E1	6.043671608E0
2.418288361E0	4.685146809E0	1.297986603E1	5.126024246E0
2.426691382E0	2.976073265E0	1.241396427E1	3.309871912E0
2.435094402E0	2.249851465E0	1.175773239E1	3.279363394E0
2.443497423E0	1.806581140E0	1.077547836E1	2.916850805E0
2.451900444E0	8.919246197E-1	1.036331463E1	1.476371527E0
2.460303465E0	4.366901219E-1	1.029392338E1	2.015953064E-1
2.468706486E0	6.329016089E-1	1.010309505E1	-2.333002090E-1
2.477109507E0	7.728816867E-1	1.023410225E1	-4.139583111E-1
2.485512527E0	1.596610904E0	9.543174744E0	-1.104885817E0
2.493915548E0	2.599801779E0	8.684749603E0	-4.731806815E-1
2.502318569E0	2.922832966E0	7.698308468E0	-1.298106313E-1
2.510721590E0	2.934198856E0	7.262216568E0	-6.556333899E-1
2.519124611E0	2.614757061E0	7.382455826E0	-3.684946895E-1
2.527527632E0	2.297109842E0	7.031907558E0	1.351944804E-1
2.535930652E0	2.077568293E0	6.548557281E0	4.570291340E-1
2.544333673E0	1.686341763E0	5.981458187E0	5.144568682E-1
2.552736694E0	1.285543919E0	5.669793129E0	2.458625287E-1
2.561139715E0	8.386843204E-1	5.639883041E0	2.273181453E-2
2.569542736E0	2.518445849E-1	5.607579708E0	-6.999006122E-2
2.577945757E0	-1.274178028E-1	5.468796253E0	-1.495514214E-1
2.586348777E0	-8.793623000E-2	5.523232937E0	-2.033899166E-2
2.594751798E0	-5.264209956E-2	5.640480995E0	1.310070455E-1
2.603154819E0	-1.136590764E-1	5.766702652E0	9.870393574E-2
2.611557840E0	-1.932204217E-1	5.846862316E0	-1.854437590E-2
2.619960861E0	-1.196411345E-2	6.024528980E0	-1.316052526E-1
2.628363882E0	5.096712112E-1	6.282954216E0	3.888336942E-2
2.636766902E0	1.286142230E0	6.671787739E0	1.220339537E-1
2.645169923E0	1.987239242E0	7.174878597E0	2.835494876E-1
2.653572944E0	2.305484533E0	7.588837147E0	2.548356056E-1
2.661975965E0	2.242672920E0	7.857431412E0	2.811566554E-2
2.670378986E0	2.063809633E0	7.977072716E0	-3.230310678E-1
2.678782007E0	2.091326952E0	8.131409645E0	-5.383850932E-1
2.687185027E0	2.343769789E0	8.466404915E0	-4.785645306E-1
2.695588048E0	2.653640270E0	8.961120605E0	-4.438686073E-1
2.703991069E0	2.972483873E0	9.441479683E0	-4.683950245E-1
2.712394090E0	3.329014540E0	9.824930191E0	-1.369891018E-1
2.720797111E0	3.669991732E0	1.000498962E1	8.913264424E-2
2.729200132E0	3.946362734E0	1.004566765E1	5.443671346E-2
2.737603152E0	4.062414646E0	1.022632599E1	1.130608693E-1
2.746006173E0	3.846462488E0	1.050508976E1	1.070788130E-1
2.754409194E0	3.322434187E0	1.099860954E1	-1.704886109E-1
2.762812215E0	2.800200701E0	1.166321564E1	-1.495514214E-1
2.771215236E0	2.907877684E0	1.225603771E1	8.075776696E-2
2.779618257E0	3.860221148E0	1.295833111E1	2.093719877E-2
2.788021277E0	5.002793789E0	1.371266842E1	4.965107143E-2
2.796424298E0	5.622535229E0	1.426780319E1	2.584248483E-1
2.804827319E0	5.723033428E0	1.451546001E1	2.027917206E-1
2.813230340E0	5.828317642E0	1.467159176E1	1.106680483E-1
2.821633361E0	6.396613121E0	1.486541080E1	-1.208375469E-1
2.830036382E0	7.582854748E0	1.525125313E1	-3.098705411E-1
2.838439402E0	9.216554642E0	1.594577026E1	-3.625126183E-1
2.846842423E0	1.065822983E1	1.647099495E1	-2.416750938E-1
2.855245444E0	1.120199966E1	1.632563019E1	-1.968096644E-1
2.863648465E0	1.091366386E1	1.530210114E1	8.434699476E-2
2.872051486E0	1.136351490E1	1.412363529E1	-5.084748194E-2
2.880454507E0	1.247498131E1	1.343330669E1	3.918247223E-1
2.888857527E0	1.120558834E1	1.254736328E1	1.316052489E-2
2.897260548E0	9.251250267E0	1.150588799E1	7.040880919E-1
2.905663569E0	8.213363647E0	9.240483284E0	1.068993568E0
2.914066590E0	9.317052841E0	6.336792469E0	1.015154958E0
2.922469611E0	1.134676456E1	4.954937458E0	1.419542074E0
2.930872632E0	1.267059422E1	5.615356445E0	2.079362869E0
2.939275652E0	1.274596786E1	7.686942577E0	2.783450842E0
2.947678673E0	1.210947704E1	9.646066666E0	2.865405083E0
2.956081694E0	1.155314636E1	1.092263699E1	2.723032236E0
2.964484715E0	1.098006535E1	1.202692509E1	2.734398127E0
2.972887736E0	9.094520569E0	1.366002655E1	3.008376360E0
2.981290757E0	6.285944939E0	1.380479240E1	4.955535889E0
2.989693777E0	4.890929699E0	1.395613766E1	3.278167009E0
2.998096798E0	-5.111667156E0	1.656012726E1	-1.571486235E0
3.006499819E0	-1.953619957E1	1.589252949E1	-1.283450222E1
3.014902840E0	-3.172344398E1	1.367976665E1	-1.723250961E1
3.023305861E0	-2.709153748E1	1.374078369E1	-8.377870560E0
3.031708882E0	-5.971288681E0	1.521117401E1	-1.509871125E0
3.040111902E0	1.368933868E1	1.414935875E1	-5.413761139E-1
3.048514923E0	2.132842445E1	1.214477158E1	1.837089539E0
3.056917944E0	1.499402523E1	1.008275604E1	9.670592308E0
3.065320965E0	8.068597794E0	9.373284340E0	8.395816803E0
3.073723986E0	2.433500528E0	1.017906761E1	1.168893814E0
3.082127007E0	-4.070191383E0	9.835099220E0	-1.877767563E0
3.090530027E0	-8.465208054E0	7.561319351E0	-9.792626500E-1
3.098933048E0	-7.374679565E0	6.055635929E0	1.634896040E0
3.107336069E0	-2.405983210E0	7.064808846E0	4.574478626E0
3.115739090E0	1.567897081E0	8.724829674E0	5.459823132E0
3.124142111E0	1.974078655E0	9.787840843E0	4.145565033E0
3.132545132E0	1.081555843E0	1.080778122E1	2.124228239E0
3.140948152E0	2.793620527E-1	1.169970608E1	3.840480447E-1
3.149351173E0	-4.648058116E-1	1.174636650E1	-9.110672474E-1
3.157754194E0	-1.536790371E0	1.080000496E1	-1.642672777E0
3.166157215E0	-2.289333105E0	1.028315544E1	-1.957927108E0
3.174560236E0	-2.064407825E0	1.021196842E1	-1.375274777E0
3.182963257E0	-9.008977413E-1	1.017667484E1	-3.014956415E-1
3.191366277E0	9.511470050E-2	1.015155029E1	1.285543919E0
3.199769298E0	1.166501045E-1	9.932008743E0	2.206780672E0
3.208172319E0	-4.929214716E-1	9.635298729E0	2.201995134E0
3.216575340E0	-1.204187989E0	9.640682220E0	1.575673699E0
3.224978361E0	-1.533799291E0	9.781260490E0	1.177268744E0
3.233381382E0	-1.298106313E0	9.730413437E0	9.361918569E-1
3.241784402E0	-4.223332107E-1	9.841081619E0	1.017547846E0
3.250187423E0	4.049852192E-1	1.003131104E1	1.526022673E0
3.258590444E0	6.113662124E-1	1.001815033E1	1.514656782E0
3.266993465E0	5.401797295E-1	9.879366875E0	1.305284739E0
3.275396486E0	3.936193287E-1	9.936794281E0	1.018744230E0
3.283799507E0	2.213360965E-1	9.959526062E0	8.237292171E-1
3.292202527E0	3.960121572E-1	9.823733330E0	8.931210637E-1
3.300605548E0	8.877372146E-1	9.749555588E0	1.067198873E0
3.309008569E0	1.241874933E0	9.806983948E0	1.402792215E0
3.317411590E0	1.266999602E0	9.769894600E0	1.687538147E0
3.325814611E0	1.130010486E0	9.678369522E0	1.814955950E0
3.334217632E0	1.002592683E0	9.544371605E0	1.587039590E0
3.342620652E0	1.045065284E0	9.546165466E0	1.517049551E0
3.351023673E0	1.148554921E0	9.671789169E0	1.616351724E0
3.359426694E0	1.334596872E0	9.669396400E0	1.611566067E0
3.367829715E0	1.571486235E0	9.517452240E0	1.386640668E0
3.376232736E0	1.314856052E0	9.488140106E0	1.377667665E0
3.384635757E0	1.049850941E0	9.498908043E0	1.199402332E0
3.393038777E0	1.076171994E0	9.604191780E0	1.168295622E0
3.401441798E0	1.168295622E0	9.745966911E0	1.411167145E0
3.409844819E0	1.268794179E0	9.681958199E0	1.510469317E0
3.418247840E0	1.391426325E0	9.511469841E0	1.418943882E0
3.426650861E0	1.421934843E0	9.458230019E0	1.347757339E0
3.435053882E0	1.504487276E0	9.609575272E0	1.428515077E0
3.443456902E0	1.558325768E0	9.795618057E0	1.545763373E0
3.451859923E0	1.627119422E0	9.757930756E0	1.500299811E0
3.460262944E0	1.534397483E0	9.543772697E0	1.542174220E0
3.468665965E0	1.405185103E0	9.445667267E0	1.447059512E0
3.477068986E0	1.354935765E0	9.555737495E0	1.374078393E0
3.485472007E0	1.483550072E0	9.514460564E0	1.246660590E0
3.493875027E0	1.758724689E0	9.407979965E0	1.561316729E0
3.502278048E0	1.809572101E0	9.645467758E0	1.773081541E0
3.510681069E0	1.471585870E0	1.003848934E1	1.799402595E0
3.519084090E0	1.077368379E0	1.019880867E1	1.637288928E0
3.527487111E0	9.942178130E-1	1.003968525E1	1.591825247E0
3.535890132E0	1.328614831E0	9.878170013E0	1.545165181E0
3.544293152E0	1.857428551E0	9.949954987E0	1.555932879E0
3.552696173E0	2.242672920E0	1.015573788E1	1.584048629E0
3.561099194E0	2.509472847E0	1.045304585E1	1.456032634E0
3.569502215E0	2.639881611E0	1.065284634E1	1.252642632E0
3.577905236E0	2.662015200E0	1.072821999E1	1.045663476E0
3.586308257E0	2.724826813E0	1.080299568E1	9.714859724E-1
3.594711277E0	2.809173822E0	1.092263699E1	1.027717352E0
3.603114298E0	2.907877684E0	1.101356411E1	9.391828775E-1
3.611517319E0	3.071187973E0	1.112423229E1	1.005583763E0
3.619920340E0	3.051447153E0	1.129950714E1	1.170090318E0
3.628323361E0	2.852244616E0	1.156690502E1	1.306481123E0
3.636726382E0	2.551945448E0	1.184148121E1	1.419542074E0
3.645129402E0	2.169692039E0	1.207956696E1	1.176670551E0
3.653532423E0	1.807179332E0	1.244327641E1	8.721838593E-1
3.661935444E0	1.785643935E0	1.270648670E1	3.314059377E-1
3.670338465E0	1.911267042E0	1.280818176E1	-1.692921966E-1
3.678741486E0	1.770090580E0	1.281236839E1	-4.713860750E-1
3.687144507E0	1.326221943E0	1.307318687E1	-9.044869542E-1
3.695547527E0	8.398807645E-1	1.399980736E1	-9.720842242E-1
3.703950548E0	2.422732860E-1	1.448495197E1	-5.018945336E-1
3.712353569E0	-4.528416991E-1	1.391785336E1	5.659025311E-1
3.720756590E0	-6.981059909E-1	1.293739414E1	1.646261930E0
3.729159611E0	3.326023519E-1	1.268794250E1	2.682354212E0
3.737562632E0	2.840878725E0	1.266580868E1	2.739781857E0
3.745965652E0	5.936593056E0	1.346082401E1	2.693720102E0
3.754368673E0	6.490531445E0	1.441974735E1	5.567500114E0
3.762771694E0	4.220340729E0	1.369113255E1	7.166503906E0
3.771174715E0	2.628515720E0	1.166082287E1	7.063612461E0
3.779577736E0	3.221935749E0	1.014556789E1	5.142774105E0
3.787980757E0	5.755336761E0	9.185447693E0	3.750749588E0
3.796383777E0	8.343772888E0	8.756534576E0	2.142174482E0
3.804786798E0	9.435498238E0	9.160921097E0	1.125823021E0
3.813189819E0	9.083154678E0	9.256634712E0	8.536394835E-1
3.821592840E0	8.223533630E0	8.326424599E0	2.709871531E-1
3.829995861E0	7.646862984E0	6.786045074E0	-4.319044948E-1
3.838398882E0	7.817351341E0	5.406582832E0	-1.599003673E0
3.846801902E0	7.981858253E0	5.157729149E0	-2.201995134E0
3.855204923E0	7.785646915E0	5.625525951E0	-2.323430777E0
3.863607944E0	7.206583500E0	6.531209469E0	-2.693720102E0
3.872010965E0	6.095715523E0	7.040880680E0	-2.114058733E0
3.880413986E0	4.708476543E0	6.421737671E0	-9.068797827E-1
3.888817007E0	4.077968121E0	4.975276470E0	-4.486542568E-2
3.897220027E0	4.239483356E0	3.824328899E0	1.417747438E-1
3.905623048E0	4.498506546E0	3.123231649E0	1.286142170E-1
3.914026069E0	4.034897327E0	2.702693224E0	5.665007830E-1
3.922429090E0	3.279363394E0	2.371885538E0	1.429113269E0
3.930832111E0	2.573480844E0	2.312064886E0	1.149751306E0
3.939235132E0	1.840678811E0	2.627917528E0	6.789634228E-1
3.947638152E0	1.435095429E0	2.730210543E0	6.029912829E-1
3.956041173E0	1.928615093E0	2.746362209E0	-1.872383654E-1
3.964444194E0	2.883351326E0	2.939582586E0	-6.580262631E-2
3.972847215E0	3.773481369E0	2.961716175E0	6.771687865E-1
3.981250236E0	4.294518471E0	2.791825771E0	1.089332461E0
3.989653257E0	4.525425911E0	2.840878725E0	1.665404558E0
3.998056277E0	4.686941147E0	3.367897987E0	1.831705689E0
4.006459298E0	4.143172264E0	4.006781578E0	1.322034478E0
4.014862319E0	2.702693224E0	4.430909157E0	6.819544435E-1
4.023265340E0	6.340979934E-1	4.515256405E0	4.450650215E-1
4.031668361E0	-1.063609719E0	4.509274483E0	6.221338734E-2
4.040071382E0	-2.089532375E0	4.474578381E0	-4.187439680E-1
4.048474402E0	-2.450848579E0	4.505684853E0	-9.038887620E-1
4.056877423E0	-2.059023857E0	4.715056896E0	-1.272981644E0
4.065280444E0	-8.608179688E-1	5.138586521E0	-1.638485312E0
4.073683465E0	5.856433511E-1	5.961717606E0	-1.366899967E0
4.082086486E0	1.767697692E0	6.911069870E0	-4.785645306E-1
4.090489507E0	2.619542599E0	7.569694519E0	6.640082598E-2
4.098892527E0	2.947957516E0	8.106883049E0	1.890329868E-1
4.107295548E0	2.837887764E0	8.406583786E0	8.255238086E-2
4.115698569E0	2.469393015E0	8.541180611E0	-8.554340899E-2
4.124101590E0	2.390429735E0	8.815158844E0	7.657032460E-2
4.132504611E0	2.689532757E0	9.251250267E0	2.727817893E-1
4.140907632E0	3.343969584E0	9.758528709E0	4.037888348E-1
4.149310652E0	4.016352654E0	1.044586754E1	5.826523304E-1
4.157713673E0	4.347758770E0	1.110449123E1	4.576273263E-1
4.166116694E0	4.343571186E0	1.157707405E1	1.866401732E-1
4.174519715E0	4.381258488E0	1.188873959E1	2.811566554E-2
4.182922736E0	4.593621254E0	1.215015507E1	-1.591227055E-1
4.191325757E0	4.694119930E0	1.261615753E1	-3.260220885E-1
4.199728777E0	4.536791801E0	1.305404377E1	-8.434699476E-2
4.208131798E0	4.423730850E0	1.342433357E1	5.443671346E-2
4.216534819E0	4.565505505E0	1.408415413E1	-1.196411345E-2
4.224937840E0	4.789832592E0	1.467278862E1	1.920240223E-1
4.233340861E0	5.081159115E0	1.491207027E1	1.992024779E-1
4.241743882E0	5.547759533E0	1.523749447E1	-2.883351147E-1
4.250146902E0	6.265605927E0	1.577169228E1	-4.271188378E-1
4.258549923E0	7.163512707E0	1.593560028E1	6.879365444E-2
4.266952944E0	7.838887215E0	1.559163189E1	8.512466550E-1
4.275355965E0	7.791628838E0	1.515374565E1	1.118644595E0
4.283758986E0	7.185048103E0	1.476012611E1	7.746763229E-1
4.292162007E0	6.602396011E0	1.441675663E1	3.397808075E-1
4.300565027E0	6.656234264E0	1.391246891E1	2.267199457E-1
4.308968048E0	6.972685337E0	1.342194080E1	4.313062727E-1
4.317371069E0	7.450053215E0	1.293141174E1	3.493520916E-1
4.325774090E0	7.625925541E0	1.265563869E1	-4.067798555E-1
4.334177111E0	6.976274490E0	1.245942783E1	2.243271172E-1
4.342580132E0	6.521637917E0	1.162672520E1	6.514459848E-1
4.350983152E0	7.782655716E0	1.036092186E1	8.003991842E-1
4.359386173E0	9.948758125E0	9.571290970E0	8.027920127E-1
4.367789194E0	1.005284595E1	9.367900848E0	2.073380709E0
4.376192215E0	8.543573380E0	8.883354187E0	2.264208317E0
4.384595236E0	7.437490940E0	8.547162056E0	1.466202021E0
4.392998257E0	7.707880020E0	8.340183258E0	1.114457130E0
4.401401277E0	8.565707207E0	8.304888725E0	1.271187067E0
4.409804298E0	9.272188187E0	8.159524918E0	1.933400750E0
4.418207319E0	1.041057301E1	8.524430275E0	2.400599241E0
4.426610340E0	1.080120182E1	1.022871876E1	3.205784082E0
4.435013361E0	7.070790768E0	1.299242878E1	3.360121250E0
4.443416382E0	-1.591227055E0	1.584287834E1	1.808973908E0
4.451819402E0	-1.241516018E1	1.851626015E1	-1.661217093E0
4.460222423E0	-2.263131714E1	1.700279999E1	-4.670191765E0
4.468625444E0	-2.307877350E1	1.033280659E1	-8.029714584E0
4.477028465E0	-8.913264275E0	5.351547718E0	-3.063411236E0
4.485431486E0	1.310190010E1	6.770491600E0	4.226323128E0
4.493834507E0	2.091745758E1	1.188634682E1	8.090133667E0
4.502237527E0	1.101177025E1	1.286979675E1	6.948757172E0
4.510640548E0	1.621735573E0	1.352243900E1	2.097309113E0
4.519043569E0	-3.092723370E0	1.288953781E1	-6.215356588E-1
4.527446590E0	-5.108676434E0	1.026819992E1	1.986042857E-1
4.535849611E0	-4.630111694E0	7.235895634E0	6.484549642E-1
4.544252632E0	-1.895115495E0	6.662216663E0	1.351944804E-1
4.552655652E0	5.670989752E-1	8.331808090E0	2.452643216E-2
4.561058673E0	1.168295622E0	1.024845982E1	3.511467278E-1
4.569461694E0	6.837490797E-1	1.103390312E1	6.352944374E-1
4.577864715E0	7.573283911E-1	1.082333469E1	6.861419082E-1
4.586267736E0	7.148557901E-1	1.023111153E1	3.972085714E-1
4.594670757E0	3.110669367E-2	9.842277527E0	1.399801224E-1
4.603073777E0	-7.908278704E-1	1.007438183E1	3.020938635E-1
4.611476798E0	-1.302891970E0	1.037767220E1	5.916253924E-1
4.619879819E0	-1.530210137E0	1.025025368E1	1.054038405E0
4.628282840E0	-1.526620865E0	9.768698692E0	1.771286964E0
4.636685861E0	-1.389631748E0	9.361320496E0	2.311466694E0
4.645088882E0	-1.314257860E0	9.265607834E0	2.353341103E0
4.653491902E0	-1.296311617E0	9.332008362E0	1.950150490E0
4.661894923E0	-1.297508121E0	9.457033157E0	1.509272933E0
4.670297944E0	-1.301097274E0	9.583852768E0	1.273579836E0
4.678700965E0	-1.244866014E0	9.714262009E0	1.210170031E0
4.687103986E0	-1.195214868E0	9.731011391E0	1.302891970E0
4.695507007E0	-1.107876897E0	9.761520386E0	1.314856052E0
4.703910027E0	-1.100100160E0	9.926624298E0	1.209571838E0
4.712313048E0	-1.200598717E0	9.507282257E0	1.207179070E0
4.720716069E0	-9.924231768E-1	9.403793335E0	1.310070395E0
4.729119090E0	-6.191428304E-1	9.447462082E0	1.289133191E0
4.737522111E0	-3.056831062E-1	9.544371605E0	1.409372568E0
4.745925132E0	-2.524427772E-1	9.549157143E0	1.697707653E0
4.754328152E0	-5.694918036E-1	9.519845009E0	1.637887120E0
4.762731173E0	-1.034297585E0	9.532406807E0	1.441077471E0
4.771134194E0	-1.106082320E0	9.576076508E0	1.182054400E0
4.779537215E0	-9.571290612E-1	9.609575272E0	1.344766378E0
4.787940236E0	-7.956135273E-1	9.504889488E0	1.340578914E0
4.796343257E0	-4.241278172E-1	9.431310654E0	1.045065284E0
4.804746277E0	2.512463741E-2	9.522237778E0	1.098305583E0
4.813149298E0	2.985046208E-1	9.727422714E0	1.295115232E0
4.821552319E0	2.644068897E-1	9.790233612E0	1.514058471E0
4.829955340E0	4.187439568E-3	9.749555588E0	1.649253011E0
4.838358361E0	-3.194418252E-1	9.611968994E0	1.689931035E0
4.846761382E0	-4.516452849E-1	9.418149948E0	1.713859200E0
4.855164402E0	-2.757728100E-1	9.332008362E0	1.505085468E0
4.863567423E0	-6.041877344E-2	9.545567513E0	1.423131227E0
4.871970444E0	2.243271172E-1	9.845269203E0	1.350150228E0
4.880373465E0	3.744767308E-1	9.960124016E0	1.446461320E0
4.888776486E0	5.102694035E-1	9.890133858E0	1.420738459E0
4.897179507E0	5.288137794E-1	9.805787086E0	1.447059512E0
4.905582527E0	4.989035130E-1	9.644271851E0	1.368694544E0
4.913985548E0	4.965106845E-1	9.480362892E0	1.103689432E0
4.922388569E0	6.149554253E-1	9.519247055E0	1.021735311E0
4.930791590E0	7.250252366E-1	9.785448074E0	1.211366415E0
4.939194611E0	7.178468108E-1	9.925428391E0	1.337587833E0
4.947597632E0	7.435696125E-1	9.864411354E0	1.443470240E0
4.956000652E0	7.555337548E-1	9.738189697E0	1.456032634E0
4.964403673E0	7.178468108E-1	9.680762291E0	1.374078393E0
4.972806694E0	8.123632669E-1	9.481559753E0	1.228714466E0
4.981209715E0	1.091127157E0	9.503094673E0	1.168893814E0
4.989612736E0	1.277169108E0	9.780064583E0	1.542174220E0
4.998015757E0	1.167099237E0	9.955338478E0	1.730608940E0
5.006418777E0	9.768698215E-1	9.952945709E0	1.636690736E0
5.014821798E0	8.297112584E-1	9.854242325E0	1.462612867E0
5.023224819E0	8.775677085E-1	9.707083702E0	1.412961721E0
5.031627840E0	1.111466169E0	9.638289452E0	1.579861164E0
5.040030861E0	1.235892892E0	9.637691498E0	1.833500385E0
5.048433882E0	1.140778184E0	9.668199539E0	1.910070658E0
5.056836902E0	1.052243710E0	9.756135941E0	1.915454507E0
5.065239923E0	1.049252748E0	9.891330719E0	1.597209096E0
5.073642944E0	1.249053478E0	9.897313118E0	1.392622828E0
5.082045965E0	1.752144337E0	9.760921478E0	1.361516118E0
5.090448986E0	2.222334146E0	9.918250084E0	1.294517040E0
5.098852007E0	2.431107759E0	1.018804073E1	9.469595551E-1
5.107255027E0	2.463410854E0	1.046142101E1	6.400800347E-1
5.115658048E0	2.528017044E0	1.075932693E1	4.899304509E-1
5.124061069E0	2.449054003E0	1.116072273E1	6.693921089E-1
5.132464090E0	2.190030813E0	1.139043427E1	6.586244106E-1
5.140867111E0	1.732403636E0	1.153699398E1	8.757730722E-1
5.149270132E0	1.335793257E0	1.197009563E1	9.254241586E-1
5.157673152E0	1.226919770E0	1.246959686E1	6.975077987E-1
5.166076173E0	1.249053478E0	1.327777290E1	9.678967595E-1
5.174479194E0	1.003190875E0	1.455135250E1	1.846062660E0
5.182882215E0	1.986042857E-1	1.533978748E1	1.597209096E0
5.191285236E0	-9.565308690E-1	1.492882061E1	6.257231236E-1
5.199688257E0	-1.189232826E0	1.379761314E1	-6.658028960E-1
5.208091277E0	-5.138586760E-1	1.399801254E1	-1.125224829E0
5.216494298E0	-3.469592705E-2	1.522612858E1	-3.822534084E-1
5.224897319E0	-3.631108403E-1	1.580578995E1	-6.717849374E-1
5.233300340E0	-1.355534077E0	1.615095520E1	-1.329213023E0
5.241703361E0	-2.343769789E0	1.616830254E1	-1.473978758E0
5.250106382E0	-3.691527128E0	1.602174187E1	-7.668996453E-1
5.258509402E0	-4.141377926E0	1.572144318E1	8.350951076E-1
5.266912423E0	-2.190030813E0	1.401057434E1	2.867797852E0
5.275315444E0	2.980260611E0	1.149153042E1	4.390829563E0
5.283718465E0	8.785846710E0	1.082154083E1	7.828717709E0
5.292121486E0	1.251206970E1	1.218066406E1	9.272188187E0
5.300524507E0	1.041117096E1	1.443171120E1	9.061619759E0
5.308927527E0	5.110470772E0	1.502991676E1	5.394020557E0
5.317330548E0	-4.259224236E-1	1.352901936E1	2.944368362E0
5.325733569E0	-5.533402443E0	1.034118080E1	2.274377823E0
5.334136590E0	-8.209176064E0	7.125227451E0	6.424728632E-1
5.342539611E0	-7.640881062E0	4.775475979E0	-7.238288522E-1
5.350942632E0	-4.463212490E0	4.189832687E0	-1.356730461E0
5.359345652E0	-1.114457130E0	5.236692429E0	-1.803590059E0
5.367748673E0	6.520441771E-1	6.323033810E0	-1.065404296E0
5.376151694E0	1.201196909E0	6.261418819E0	5.383851007E-2
5.384554715E0	1.974676847E0	5.760122299E0	7.070791125E-1
5.392957736E0	3.215355396E0	5.666802406E0	1.250848055E0
5.401360757E0	3.853640795E0	5.690132141E0	1.527817249E0
5.409763777E0	3.318246841E0	5.691926956E0	1.363310695E0
5.418166798E0	1.974078655E0	5.367101192E0	1.181456208E0
5.426569819E0	9.373882413E-1	4.928616524E0	1.054038405E0
5.434972840E0	5.078766346E-1	4.724030018E0	1.164706469E0
5.443375861E0	5.222335458E-1	4.880760193E0	1.135394335E0
5.451778882E0	4.881358147E-1	5.491528034E0	1.048056364E0
5.460181902E0	3.499503136E-1	6.267998695E0	8.697910309E-1
5.468584923E0	1.830509305E-1	6.981658459E0	7.076773047E-1
5.476987944E0	2.344966233E-1	7.527221680E0	6.765705943E-1
5.485390965E0	7.028916478E-1	7.849056244E0	7.070791125E-1
5.493793986E0	1.339980721E0	8.224131584E0	8.949156404E-1
5.502197007E0	1.795215130E0	8.711668968E0	1.001994491E0
5.510600027E0	1.981855392E0	9.245866776E0	7.304090858E-1
5.519003048E0	2.146960020E0	9.870991707E0	4.809573591E-1
5.527406069E0	2.577069998E0	1.043629551E1	4.809573591E-1
5.535809090E0	3.473780155E0	1.089093208E1	5.090730190E-1
5.544212111E0	4.463212490E0	1.129232788E1	6.023930907E-1
5.552615132E0	5.202594757E0	1.158724403E1	6.951149702E-1
5.561018152E0	5.574678421E0	1.162493038E1	5.401797295E-1
5.569421173E0	5.474778175E0	1.165603733E1	2.315055877E-1
5.577824194E0	5.104488850E0	1.174875927E1	-6.221338734E-2
5.586227215E0	4.692923546E0	1.187856960E1	-3.870390654E-1
5.594630236E0	4.345963955E0	1.209452248E1	-3.421736360E-1
5.603033257E0	4.255036831E0	1.212981606E1	-4.995017350E-1
5.611436277E0	4.487739086E0	1.264427280E1	-4.767699242E-1
5.619839298E0	4.677370071E0	1.314018536E1	-4.887340367E-1
5.628242319E0	5.018347263E0	1.359422398E1	-3.547359705E-1
5.636645340E0	5.300700188E0	1.396511078E1	-9.391828626E-2
5.645048361E0	5.505286694E0	1.413260841E1	-3.948157281E-2
5.653451382E0	5.623731613E0	1.431207085E1	-8.673982322E-2
5.661854402E0	5.750551224E0	1.427737427E1	-4.977070987E-1
5.670257423E0	6.580860615E0	1.383230972E1	-1.313659668E0
5.678660444E0	7.281957626E0	1.329990673E1	-2.114058733E0
5.687063465E0	7.782655716E0	1.270289707E1	-1.572682738E0
5.695466486E0	8.780462265E0	1.239482117E1	-1.094716311E0
5.703869507E0	9.881759644E0	1.243789196E1	-8.051848412E-1
5.712272527E0	9.865608215E0	1.244566917E1	-8.967102766E-1
5.720675548E0	8.812766075E0	1.179242802E1	-1.104287624E0
5.729078569E0	8.047062874E0	1.046142101E1	-1.106680512E0
5.737481590E0	8.563314438E0	8.478966713E0	6.879365444E-2
5.745884611E0	1.059661484E1	6.700501442E0	1.481157184E0
5.754287632E0	1.165244770E1	6.116054535E0	2.922832966E0
5.762690652E0	1.129113197E1	6.424130440E0	3.157329559E0
5.771093673E0	1.083111191E1	7.844869137E0	2.145165443E0
5.779496694E0	1.040279675E1	9.509675026E0	1.161117196E0
5.787899715E0	9.414560318E0	1.020060253E1	1.333400369E0
5.796302736E0	8.499904633E0	1.009292603E1	1.546361685E0
5.804705757E0	7.728219032E0	1.076351452E1	9.762716293E-1
5.813108777E0	2.606980324E0	1.500658703E1	1.601994753E0
5.821511798E0	-8.523234367E0	2.162154579E1	1.229910851E0
5.829914819E0	-2.379602242E1	2.457608223E1	3.792623878E-1
5.838317840E0	-3.167857933E1	1.598824310E1	-7.024729252E0
5.846720861E0	-1.523330688E1	6.491727829E0	-9.523433685E0
5.855123882E0	1.408594894E1	5.173880577E0	2.127817631E0
5.863526902E0	2.890230560E1	1.121396351E1	8.565707207E0
5.871929923E0	1.589193153E1	1.289671612E1	8.763712883E0
5.880332944E0	5.347360611E0	1.477448368E1	3.783052683E0
5.888735965E0	1.613958836E0	1.703151321E1	-1.630110383E0
5.897138986E0	-1.847259045E0	1.553420448E1	-2.861815929E0
5.905542007E0	-7.435696602E0	9.704092026E0	-2.751746178E-1
5.913945027E0	-9.794421196E0	4.279563427E0	4.899304509E-1
5.922348048E0	-6.067001820E0	3.710071564E0	7.692924738E-1
5.930751069E0	-4.319044948E-1	7.327421188E0	1.755733609E0
5.939154090E0	1.855035782E0	1.007378292E1	1.127019525E0
5.947557111E0	1.484746456E0	1.100518990E1	1.636092424E0
5.955960132E0	1.424327731E0	1.104766178E1	2.822334290E0
5.964363152E0	1.418943882E0	1.068514919E1	2.581855536E0
5.972766173E0	5.324030295E-2	9.805189133E0	1.880758643E0
5.981169194E0	-1.972882271E0	8.997013092E0	1.314856052E0
5.989572215E0	-3.111267567E0	9.016754150E0	6.185446382E-1
5.997975236E0	-2.708076954E0	9.661021233E0	2.979064286E-1
6.006378257E0	-1.643869162E0	1.018983555E1	5.563312769E-1
6.014781277E0	-8.111668825E-1	1.020239735E1	1.186241865E0
6.023184298E0	-4.378865361E-1	9.781859398E0	1.822732687E0
6.031587319E0	-7.160521746E-1	9.368498802E0	2.078166485E0
6.039990340E0	-1.786840320E0	9.167501450E0	2.182852507E0
6.048393361E0	-2.728415966E0	9.058628082E0	1.654636860E0
6.056796382E0	-3.009572744E0	9.124430656E0	1.460818172E0
6.065199402E0	-2.609971285E0	9.356534958E0	1.161117196E0
6.073602423E0	-1.771286964E0	9.596415520E0	1.079761267E0
6.082005444E0	-8.709874153E-1	9.699306488E0	1.316052437E0
6.090408465E0	-2.003988922E-1	9.645467758E0	1.539781332E0
6.098811486E0	1.902294010E-1	9.512067795E0	1.621735573E0
6.107214507E0	3.702892959E-1	9.578469276E0	1.424925923E0
6.115617527E0	3.906283081E-1	9.768698692E0	1.356730461E0
6.124020548E0	1.716850251E-1	9.929615974E0	1.446461320E0
6.132423569E0	-3.110669367E-2	9.985847473E0	1.472782373E0
6.140826590E0	5.742774159E-2	9.884750366E0	1.149751306E0
6.149229611E0	4.420739710E-1	9.803394318E0	8.470591903E-1
6.157632632E0	8.931210637E-1	9.754940033E0	8.350951076E-1
6.166035652E0	1.195813060E0	9.814162254E0	1.049252748E0
6.174438673E0	1.232901812E0	9.972686768E0	1.265803218E0
6.182841694E0	9.583254457E-1	1.000379372E1	1.429113269E0
6.191244715E0	5.587241054E-1	9.891928673E0	1.388435364E0
6.199647736E0	2.991028428E-1	9.709476471E0	1.256830096E0
6.208050757E0	3.433700502E-1	9.527621269E0	1.215553880E0
6.216453777E0	4.701896608E-1	9.477970123E0	1.411765337E0
6.224856798E0	5.168496966E-1	9.634101868E0	1.498505235E0
6.233259819E0	5.270192027E-1	9.724431038E0	1.493121386E0
6.241662840E0	5.479564071E-1	9.711270332E0	1.426122308E0
6.250065861E0	7.567301393E-1	9.602995872E0	1.375274777E0
6.258468882E0	9.601200819E-1	9.642477036E0	1.514058471E0
6.266871902E0	1.081555843E0	9.847063065E0	1.531406522E0
6.275274923E0	1.179661512E0	1.001396275E1	1.473978758E0
6.283677944E0	1.216152072E0	9.965508461E0	1.470389485E0
6.292080965E0	1.258026481E0	1.000259686E1	1.469193101E0
6.300483986E0	1.124028444E0	1.011087227E1	1.417747378E0
6.308887007E0	1.013360381E0	1.018026352E1	1.397408366E0
6.317290027E0	9.038887620E-1	1.036690426E1	1.756331801E0
6.325693048E0	7.447660565E-1	1.048654556E1	1.490728498E0
6.334096069E0	7.441678643E-1	1.030887794E1	1.073779106E0
6.342499090E0	1.124626637E0	1.023888779E1	9.433703423E-1
6.350902111E0	1.438086390E0	1.068215847E1	9.672985673E-1
6.359305132E0	1.428515077E0	1.110449123E1	7.692924738E-1
6.367708152E0	1.578664780E0	1.124626637E1	2.817548811E-1
6.376111173E0	2.032702923E0	1.118764210E1	-2.925225794E-1
6.384514194E0	2.629712105E0	1.084008503E1	-7.501499057E-1
6.392917215E0	3.037688255E0	1.082991505E1	-6.364908218E-1
6.401320236E0	2.904288530E0	1.152263737E1	-1.890329868E-1
6.409723257E0	2.002792597E0	1.250249863E1	3.774677813E-1
6.418126277E0	1.130010486E0	1.302891922E1	2.721835673E-1
6.426529298E0	4.217349887E-1	1.336750412E1	3.128615618E-1
6.434932319E0	-1.806581169E-1	1.415474224E1	5.425725579E-1
6.443335340E0	-1.549352705E-1	1.534277916E1	1.262213945E0
6.451738361E0	-7.668996453E-1	1.691246986E1	1.440479279E0
6.460141382E0	-2.328814745E0	1.708176231E1	9.846464992E-1
6.468544402E0	-3.945166349E0	1.547079468E1	-7.178467698E-3
6.476947423E0	-4.642673969E0	1.425344658E1	-5.407779217E-1
6.485350444E0	-4.663611412E0	1.461775398E1	-6.179464459E-1
6.493753465E0	-4.759922504E0	1.646561050E1	4.271188378E-1
6.502156486E0	-6.035895348E0	1.813101578E1	1.526620865E0
6.510559507E0	-6.534798622E0	1.733659744E1	2.245065928E0
6.518962527E0	-3.952943087E0	1.426002693E1	3.769891977E0
6.527365548E0	3.054438114E0	1.128455162E1	4.645066738E0
6.535768569E0	8.916254997E0	1.169073296E1	7.064808846E0
6.544171590E0	1.059781170E1	1.353380489E1	7.993822098E0
6.552574611E0	1.002891827E1	1.541157246E1	7.801199913E0
6.560977632E0	7.555337429E0	1.719841194E1	7.569096088E0
6.569380652E0	2.114656925E0	1.534517193E1	5.613562107E0
6.577783673E0	-2.773281336E0	1.119362450E1	2.418545485E0
6.586186694E0	-3.892524242E0	8.481958389E0	-4.905286431E-1
6.594589715E0	-2.075773716E0	7.647460938E0	-5.036891699E-1
6.602992736E0	3.888336942E-2	7.497311592E0	-1.052841991E-1
6.611395757E0	1.610369682E0	7.524230957E0	-1.316052489E-2
6.619798777E0	2.515454769E0	7.549953461E0	2.697907388E-1
6.628201798E0	2.614158630E0	7.178467751E0	5.934200287E-1
6.636604819E0	2.633899450E0	6.473781586E0	3.014956415E-1
6.645007840E0	2.726023197E0	5.773880959E0	7.507480979E-1
6.653410861E0	2.759522676E0	5.109872818E0	1.340578914E0
6.661813882E0	2.474776745E0	4.474578381E0	1.716252089E0
6.670216902E0	1.894517303E0	4.015156269E0	2.035095692E0
6.678619923E0	1.311266780E0	3.607778311E0	2.121237278E0
6.687022944E0	1.151545882E0	3.357130051E0	1.342373490E0
6.695425965E0	1.065404296E0	3.656831264E0	6.352944374E-1
6.703828986E0	7.513462901E-1	4.252644062E0	3.535395563E-1
6.712232007E0	5.659025311E-1	4.674977303E0	1.555334684E-2
6.720635027E0	1.054636598E0	4.970490932E0	-3.134597540E-1
6.729038048E0	2.259422779E0	5.290530682E0	-1.160518974E-1
6.737441069E0	3.857230186E0	5.586044312E0	4.534398913E-1
6.745844090E0	4.975276470E0	5.724828243E0	8.027920127E-1
6.754247111E0	5.050052166E0	5.860620975E0	6.801598072E-1
6.762650132E0	4.335794449E0	6.218348026E0	2.321037948E-1
6.771053152E0	3.466003656E0	6.670591354E0	-1.076770201E-1
6.779456173E0	3.339782238E0	7.065407276E0	-4.785645287E-3
6.787859194E0	4.153940201E0	7.331608772E0	5.599204898E-1
6.796262215E0	5.608178139E0	7.570292473E0	9.493523836E-1
6.804665236E0	6.620940208E0	7.811369419E0	9.702895880E-1
6.813068257E0	6.660421848E0	7.988438606E0	5.617151260E-1
6.821471277E0	5.924030781E0	8.039285660E0	1.160518974E-1
6.829874298E0	5.134399414E0	7.984251022E0	-3.349951655E-2
6.838277319E0	4.700700283E0	7.973483086E0	-1.633101404E-1
6.846680340E0	4.353740692E0	8.171489716E0	-2.183450609E-1
6.855083361E0	3.898506403E0	8.479565620E0	-2.464607358E-1
6.863486382E0	3.388834953E0	8.938388824E0	-5.048855543E-1
6.871889402E0	2.807379246E0	9.625128746E0	-7.411768436E-1
6.880292423E0	2.335394859E0	1.039202881E1	-1.026520967E0
6.888695444E0	2.297109842E0	1.116491032E1	-9.996016622E-1
6.897098465E0	2.995813847E0	1.200538921E1	-7.214360237E-1
6.905501486E0	4.027718544E0	1.299362469E1	-5.060819983E-1
6.913904507E0	4.829912663E0	1.409910965E1	-2.093719840E-1
6.922307527E0	5.585446358E0	1.520698643E1	-3.894318938E-1
6.930710548E0	6.292525291E0	1.639502335E1	-1.740778536E-1
6.939113569E0	6.803991318E0	1.697288895E1	1.998006850E-1
6.947516590E0	7.040880680E0	1.678086472E1	2.392822690E-2
6.955919611E0	7.334599495E0	1.619043541E1	-5.168496966E-1
6.964322632E0	7.305885792E0	1.539302826E1	-1.500299811E0
6.972725652E0	8.738588333E0	1.442154217E1	-1.479960799E0
6.981128673E0	1.109192944E1	1.389990711E1	3.116651475E-1
6.989531694E0	1.252762318E1	1.229731369E1	1.423729420E0
6.997934715E0	1.149392319E1	1.079880905E1	7.334001660E-1
7.006337736E0	1.001755238E1	1.010548782E1	3.206382394E-1
7.014740757E0	9.263215065E0	8.953942299E0	6.299105883E-1
7.023143777E0	9.437292099E0	6.981658459E0	1.485344648E0
7.031546798E0	1.188215923E1	5.514259815E0	2.142174482E0
7.039949819E0	1.458784294E1	5.542973518E0	2.617149830E0
7.048352840E0	1.531107426E1	7.625327587E0	3.289532900E0
7.056755861E0	1.257966709E1	1.278903866E1	3.963112593E0
7.065158882E0	1.456630826E0	2.132902336E1	6.138188362E0
7.073561902E0	-1.655952835E1	2.847159767E1	4.140779495E0
7.081964923E0	-3.438845062E1	2.248296165E1	-3.564109325E0
7.090367944E0	-2.777468872E1	9.388239861E0	-1.494556999E1
7.098770965E0	-1.054038405E0	2.333600283E0	1.110269666E0
7.107173986E0	3.153620529E1	8.108079910E0	8.062017441E0
7.115577007E0	2.844049263E1	1.516331673E1	8.049455643E0
7.123980027E0	1.117567825E1	1.666660881E1	4.113262177E0
7.132383048E0	1.203589797E0	1.665105438E1	-2.543570518E0
7.140786069E0	-3.005385160E0	1.606600952E1	-5.041079044E0
7.149189090E0	-7.752745152E0	1.194377422E1	-2.638087034E0
7.157592111E0	-1.104766178E1	5.237290382E0	8.255238086E-2
7.165995132E0	-7.481160164E0	2.529811859E0	2.036292076E0
7.174398152E0	-1.698904037E-1	5.224130154E0	3.708276987E0
7.182801173E0	4.364508629E0	9.046066284E0	3.435495138E0
7.191204194E0	2.583650351E0	1.069352436E1	2.517249346E0
7.199607215E0	-7.657032460E-2	1.069890785E1	1.681556106E0
7.208010236E0	-2.081755698E-1	1.057866859E1	8.739784956E-1
7.216413257E0	6.795616150E-1	1.035374355E1	6.119644046E-1
7.224816277E0	3.792623878E-1	9.894321442E0	8.548358679E-1
7.233219298E0	-8.057830334E-1	9.856036186E0	8.877372146E-1
7.241622319E0	-1.960319996E0	1.022572803E1	7.130611539E-1
7.250025340E0	-2.502294302E0	1.034357452E1	4.073780477E-1
7.258428361E0	-2.304288149E0	1.006540871E1	3.457628787E-1
7.266831382E0	-1.700100541E0	9.714262009E0	1.021137118E0
7.275234402E0	-1.171286702E0	9.393623352E0	1.878365755E0
7.283637423E0	-1.163509965E0	9.225527763E0	2.215155602E0
7.292040444E0	-1.756331801E0	9.250054359E0	2.172683001E0
7.300443465E0	-2.499303341E0	9.227322578E0	1.883151412E0
7.308846486E0	-2.943770170E0	9.069396019E0	1.604985833E0
7.317249507E0	-2.901297569E0	9.033503532E0	1.466800332E0
7.325652527E0	-2.484348059E0	9.145966530E0	1.536192179E0
7.334055548E0	-1.828116536E0	9.206983566E0	1.542772412E0
7.342458569E0	-1.234098315E0	9.309874535E0	1.497906923E0
7.350861590E0	-8.470591903E-1	9.495916367E0	1.664208174E0
7.359264611E0	-5.425725579E-1	9.521639824E0	1.712662816E0
7.367667632E0	-1.920240223E-1	9.489336014E0	1.607378602E0
7.376070652E0	9.571290575E-3	9.504889488E0	1.795813441E0
7.384473673E0	-9.092725813E-2	9.525228500E0	1.905285001E0
7.392876694E0	-2.973082066E-1	9.510871887E0	1.869990945E0
7.401279715E0	-2.578266263E-1	9.422935486E0	1.357926846E0
7.409682736E0	6.879365444E-2	9.473783493E0	1.011565804E0
7.418085757E0	5.156532526E-1	9.719047546E0	9.810572863E-1
7.426488777E0	7.585247755E-1	9.884750366E0	1.325623751E0
7.434891798E0	7.471588850E-1	9.814760208E0	1.443470240E0
7.443294819E0	4.737788737E-1	9.568299294E0	1.463211060E0
7.451697840E0	2.781656384E-1	9.353543282E0	1.332203984E0
7.460100861E0	1.890329868E-1	9.345767021E0	1.262213945E0
7.468503882E0	2.715853751E-1	9.412167549E0	1.173081279E0
7.476906902E0	5.772684813E-1	9.546764374E0	1.156929731E0
7.485309923E0	8.021938205E-1	9.770493507E0	1.332203984E0
7.493712944E0	7.591229677E-1	9.798608780E0	1.520040631E0
7.502115965E0	5.976074338E-1	9.732806206E0	1.411765337E0
7.510518986E0	4.384847581E-1	9.710672379E0	1.063609719E0
7.518922007E0	4.576273263E-1	9.746564865E0	6.346961856E-1
7.527325027E0	7.585247755E-1	9.955936432E0	8.506484628E-1
7.535728048E0	8.679963946E-1	1.009711361E1	1.320838094E0
7.544131069E0	7.435696125E-1	1.008395290E1	1.459621787E0
7.552534090E0	5.850451589E-1	1.006181908E1	1.302891970E0
7.560937111E0	3.320041299E-1	9.945169449E0	1.302293777E0
7.569340132E0	2.877369225E-1	9.873384476E0	1.394417405E0
7.577743152E0	3.756731451E-1	1.000199890E1	1.536192179E0
7.586146173E0	3.846462369E-1	1.022572803E1	1.807777524E0
7.594549194E0	3.762713671E-1	1.035912704E1	1.917847395E0
7.602952215E0	6.143572330E-1	1.071924686E1	1.852044702E0
7.611355236E0	7.363911867E-1	1.118764210E1	2.423929453E0
7.619758257E0	2.003988922E-1	1.109970570E1	3.052643538E0
7.628161277E0	-6.400800496E-2	1.040279675E1	8.386843204E-1
7.636564298E0	1.190429211E0	1.030648518E1	-6.999006122E-2
7.644967319E0	2.551945448E0	1.127079296E1	1.471585929E-1
7.653370340E0	2.988037348E0	1.242592812E1	1.764706671E-1
7.661773361E0	2.559123755E0	1.312941742E1	-1.250249892E-1
7.670176382E0	1.866999865E0	1.346740437E1	-6.137589812E-1
7.678579402E0	1.344168067E0	1.370010567E1	-1.088136077E0
7.686982423E0	1.155733347E0	1.392802238E1	-1.251446247E0
7.695385444E0	1.039681435E0	1.411765385E1	-1.046859860E0
7.703788465E0	8.548358679E-1	1.411466217E1	-1.006780148E0
7.712191486E0	6.281159520E-1	1.441137218E1	-9.547362328E-1
7.720594507E0	5.126622319E-1	1.542293835E1	-2.416750938E-1
7.728997527E0	4.725824669E-2	1.730070686E1	-4.187439755E-2
7.737400548E0	-1.425524116E0	1.893739700E1	-5.461617708E-1
7.745803569E0	-3.272783279E0	1.975035858E1	-1.797608018E0
7.754206590E0	-6.014957905E0	2.080978012E1	-1.554138303E0
7.762609611E0	-8.295317650E0	2.133500481E1	-1.555334777E-1
7.771012632E0	-9.296713829E0	1.914616966E1	1.668993831E0
7.779415652E0	-8.671588898E0	1.532064533E1	3.643670797E0
7.787818673E0	-6.224927902E0	1.158963680E1	4.990231514E0
7.796221694E0	2.572284266E-2	9.120841980E0	6.653243542E0
7.804624715E0	9.352347374E0	9.725028992E0	8.559126854E0
7.813027736E0	1.515374565E1	1.368455315E1	1.143470097E1
7.821430757E0	1.385803223E1	1.755673790E1	1.197129154E1
7.829833777E0	6.256632805E0	1.787139320E1	7.494918823E0
7.838236798E0	-1.599003673E0	1.529851151E1	1.281356573E0
7.846639819E0	-6.649653912E0	9.839884758E0	-8.584251404E-1
7.855042840E0	-6.767500877E0	5.204987526E0	-2.020738840E0
7.863445861E0	-4.201198578E0	3.014358282E0	-7.190431952E-1
7.871848882E0	-6.352944374E-1	3.041875839E0	1.396211982E0
7.880251902E0	2.011765718E0	3.981058598E0	2.985644341E0
7.888654923E0	2.951546669E0	4.741976261E0	3.469592810E0
7.897057944E0	3.045464993E0	5.223531723E0	3.324826956E0
7.905460965E0	2.760120869E0	5.399404526E0	2.785843849E0
7.913863986E0	1.727019787E0	5.133202553E0	2.194816589E0
7.922267007E0	2.997010350E-1	4.313062668E0	1.732403636E0
7.930670027E0	-3.852444589E-1	3.475574970E0	1.200000525E0
7.939073048E0	-2.111666054E-1	3.279961586E0	1.173679471E0
7.947476069E0	5.330012441E-1	3.588037491E0	1.335195065E0
7.955879090E0	1.508076429E0	4.372883320E0	1.234098315E0
7.964282111E0	2.109273195E0	5.236093998E0	1.161715388E0
7.972685132E0	2.409572363E0	5.848058701E0	1.079162955E0
7.981088152E0	2.690130949E0	6.369095802E0	9.290133715E-1
7.989491173E0	3.064607620E0	6.662814617E0	6.837490797E-1
7.997894194E0	3.237488985E0	6.890730858E0	4.055834413E-1
8.006297215E0	3.351148129E0	7.349554539E0	4.319044948E-1
8.014700236E0	3.545564890E0	7.683951855E0	2.470589429E-1
8.023103257E0	3.927818298E0	8.042875290E0	3.290131092E-1
8.031506277E0	4.712066174E0	8.529216766E0	5.150550604E-1
8.039909298E0	5.467001438E0	8.989236832E0	6.681957245E-1
8.048312319E0	6.052644730E0	9.257232666E0	5.168496966E-1
8.056715340E0	6.340381622E0	9.436096191E0	3.978067636E-1
8.065118361E0	6.340381622E0	9.273982048E0	1.148554832E-1
8.073521382E0	6.367899418E0	9.184849739E0	2.691925503E-2
8.081924402E0	6.354738712E0	8.984451294E0	-9.870393574E-2
8.090327423E0	6.150152206E0	9.191430092E0	-5.796613097E-1
8.098730444E0	5.615356445E0	9.555737495E0	-1.116251707E0
8.107133465E0	4.995017052E0	9.918848038E0	-1.279561877E0
8.115536486E0	4.893322468E0	1.015454102E1	-1.121037364E0
8.123939507E0	5.231308460E0	1.063609695E1	-9.637092948E-1
8.132342527E0	5.333601475E0	1.139043427E1	-7.603194118E-1
8.140745548E0	5.111667156E0	1.215194988E1	-5.676971674E-1
8.149148569E0	4.908277512E0	1.293500137E1	-4.420739710E-1
8.157551590E0	4.955535889E0	1.379641724E1	-3.409772217E-1
8.165954611E0	5.209175110E0	1.471047497E1	-2.153540403E-2
8.174357632E0	5.485546112E0	1.551027679E1	4.115654826E-1
8.182760652E0	5.738586903E0	1.611865234E1	6.508477330E-1
8.191163673E0	5.907280922E0	1.643809319E1	4.336991012E-1
8.199566694E0	5.955735683E0	1.648654747E1	-3.948157430E-1
8.207969715E0	5.824130535E0	1.589492226E1	-1.248455167E0
8.216372736E0	7.142575741E0	1.470927906E1	-1.340578914E0
8.224775757E0	9.285347939E0	1.317189026E1	-8.727820516E-1
8.233178777E0	9.783653259E0	1.136650562E1	6.729813814E-1
8.241581798E0	9.274580956E0	9.150154114E0	1.353141189E0
8.249984819E0	9.588638306E0	6.778866768E0	1.262213886E-1
8.258387840E0	1.161057377E1	5.017749310E0	-1.124626622E-1
8.266790861E0	1.416551018E1	4.265804768E0	1.585843205E0
8.275193882E0	1.539482307E1	5.052444935E0	2.879163742E0
8.283596902E0	1.528894043E1	8.416155815E0	1.652842283E0
8.291999923E0	1.261017513E1	1.148734283E1	-5.383851007E-3
8.300402944E0	6.504888535E0	1.399561977E1	-7.100701332E-1
8.308805965E0	-6.319444656E0	2.211207390E1	-8.279166222E-1
8.317208986E0	-2.919542694E1	2.996711349E1	1.696511269E0
8.325612007E0	-4.658287430E1	2.102872276E1	-9.201001167E0
8.334015027E0	-2.367219353E1	6.784848690E0	-1.468415451E1
8.342418048E0	2.024567223E1	2.946162939E0	7.794021606E0
8.350821069E0	4.495037079E1	1.077428246E1	1.161117172E1
8.359224090E0	2.675295448E1	1.486301804E1	1.050090218E1
8.367627111E0	9.904491425E0	1.783968925E1	2.002792597E0
8.376030132E0	1.895115495E0	2.056451607E1	-5.598008633E0
8.384433152E0	-4.140181541E0	1.961037827E1	-7.732406139E0
8.392836173E0	-1.191565895E1	1.204427242E1	-3.654438496E0
8.401239194E0	-1.528116322E1	1.800599098E0	5.024927482E-2
8.409642215E0	-8.301300049E0	-2.225325108E-1	1.074975610E0
8.418045236E0	3.361915827E0	5.130809784E0	2.433500528E0
8.426448257E0	8.923434258E0	1.064148045E1	4.009174347E0
8.434851277E0	3.736990690E0	1.106501007E1	5.973681927E0
8.443254298E0	-4.851447940E-1	1.033579731E1	4.509274483E0
8.451657319E0	-1.123430252E0	1.020598698E1	2.561516523E0
8.460060340E0	-1.486541033E0	9.481559753E0	1.898704767E0
8.468463361E0	-2.810370207E0	8.732605934E0	1.703689694E0
8.476866382E0	-3.382853031E0	8.560322762E0	9.314061999E-1
8.485269402E0	-2.901297569E0	9.550353050E0	6.831508875E-1
8.493672423E0	-2.138585329E0	1.056012440E1	6.017948985E-1
8.502075444E0	-1.572084427E0	1.051466084E1	6.747759581E-1
8.510478465E0	-1.431506157E0	9.683753014E0	1.580459356E0
8.518881486E0	-1.857428551E0	8.943174362E0	2.657827854E0
8.527284507E0	-2.779263496E0	8.680562019E0	3.061018467E0
8.535687527E0	-3.683152199E0	8.532207489E0	2.914458036E0
8.544090548E0	-4.019343853E0	8.432905197E0	2.436491728E0
8.552493569E0	-3.448655605E0	8.734400749E0	1.982453585E0
8.560896590E0	-2.393420935E0	9.065208435E0	1.624726534E0
8.569299611E0	-1.379462242E0	9.382855415E0	1.791625977E0
8.577702632E0	-7.172485590E-1	9.656235695E0	1.986641049E0
8.586105652E0	-5.222335458E-1	9.689137459E0	2.041077614E0
8.594508673E0	-5.216353536E-1	9.535996437E0	1.896910191E0
8.602911694E0	-5.341976285E-1	9.409176826E0	1.588235974E0
8.611314715E0	-3.475574851E-1	9.502496719E0	1.196411371E0
8.619717736E0	1.501496136E-1	9.704689980E0	1.002592683E0
8.628120757E0	7.082754970E-1	9.805787086E0	1.130608678E0
8.636523777E0	1.077966571E0	9.983454704E0	1.238883972E0
8.644926798E0	1.058824062E0	1.007856941E1	1.381256819E0
8.653329819E0	8.303094506E-1	9.890133858E0	1.352542996E0
8.661732840E0	5.808576941E-1	9.562317848E0	1.367498159E0
8.670135861E0	4.169493318E-1	9.422337532E0	1.396211982E0
8.678538882E0	2.697907388E-1	9.519845009E0	1.437488198E0
8.686941902E0	6.041877344E-2	9.610772133E0	1.619940877E0
8.695344923E0	-1.196411327E-1	9.589835167E0	1.876571178E0
8.703747944E0	-2.410768867E-1	9.500103951E0	1.846062660E0
8.712150965E0	-4.354937077E-1	9.340383530E0	1.874776483E0
8.720553986E0	-6.005984545E-1	9.320044518E0	1.698305845E0
8.728957007E0	-6.598208547E-1	9.496515274E0	1.653440475E0
8.737360027E0	-4.588237405E-1	9.668798447E0	1.363310695E0
8.745763048E0	-2.709871531E-1	9.862616539E0	1.386640668E0
8.754166069E0	-1.884347796E-1	9.942177773E0	1.589432478E0
8.762569090E0	-6.939185411E-2	9.858428955E0	1.621735573E0
8.770972111E0	2.219343036E-1	9.760921478E0	1.494317770E0
8.779375132E0	4.761717021E-1	9.808777809E0	1.462612867E0
8.787778152E0	6.675975323E-1	9.818947792E0	1.544566989E0
8.796181173E0	8.285148144E-1	9.878170013E0	1.524826288E0
8.804584194E0	9.032905698E-1	9.889535904E0	1.536192179E0
8.812987215E0	8.386843204E-1	9.857831001E0	1.764706731E0
8.821390236E0	7.680960894E-1	9.711869240E0	1.952543259E0
8.829793257E0	7.010970116E-1	9.734002113E0	1.774876237E0
8.838196277E0	6.699903607E-1	9.726823807E0	1.427318692E0
8.846599298E0	6.741777658E-1	9.773484230E0	1.722832322E0
8.855002319E0	6.023930907E-1	1.020718288E1	2.494517565E0
8.863405340E0	1.830509305E-1	1.062712383E1	2.439482689E0
8.871808361E0	-1.333998591E-1	1.064267731E1	2.287538528E0
8.880211382E0	3.403790295E-1	1.014915752E1	1.152144074E0
8.888614402E0	1.633101463E0	9.976275444E0	9.188438654E-1
8.897017423E0	2.834298372E0	1.008873844E1	3.511467278E-1
8.905420444E0	3.463610888E0	1.042253685E1	1.974078715E-1
8.913823465E0	3.381058455E0	1.111825085E1	6.161518395E-2
8.922226486E0	2.782852650E0	1.181456184E1	1.328016520E-1
8.930629507E0	2.139183521E0	1.208913803E1	-1.932204217E-1
8.939032527E0	1.427318692E0	1.276750374E1	-1.854437590E-2
8.947435548E0	1.186840057E0	1.382692528E1	3.409772217E-1
8.955838569E0	1.204786181E0	1.544866085E1	1.112064362E0
8.964241590E0	3.906283081E-1	1.700519180E1	1.601994753E0
8.972644611E0	-1.304088354E0	1.617667770E1	8.183453679E-1
8.981047632E0	-2.021935225E0	1.445863056E1	-2.871387303E-1
8.989450652E0	-1.543370605E0	1.404586887E1	-6.532405615E-1
8.997853673E0	-1.405185103E0	1.515135288E1	-6.400800347E-1
9.006256694E0	-2.285743713E0	1.655952835E1	-1.155733347E0
9.014659715E0	-4.328616142E0	1.826680756E1	-1.005583763E0
9.023062736E0	-6.794419765E0	1.929392624E1	1.794617064E-2
9.031465757E0	-7.786843300E0	1.846601105E1	2.039881349E-1
9.039868777E0	-6.973881721E0	1.618505287E1	1.461416483E0
9.048271798E0	-4.902893543E0	1.356550980E1	3.447459221E0
9.056674819E0	-2.383251429E0	1.082632637E1	4.053441525E0
9.065077840E0	1.952543259E0	9.125627518E0	5.587240696E0
9.073480861E0	8.178668022E0	9.888937950E0	6.775277138E0
9.081883882E0	1.164646626E1	1.304267788E1	9.059226990E0
9.090286902E0	9.198608398E0	1.577587986E1	8.749356270E0
9.098689923E0	3.202793121E0	1.575494289E1	3.972085476E0
9.107092944E0	-2.699702263E0	1.326580906E1	1.858026743E0
9.115495965E0	-5.788836002E0	9.064012527E0	-8.614161611E-2
9.123898986E0	-4.886742115E0	6.288936138E0	-1.368694544E0
9.132302007E0	-2.221735716E0	5.432305813E0	-9.026923180E-1
9.140705027E0	3.367897868E-1	5.798407555E0	1.190429255E-1
9.149108048E0	1.646261930E0	6.153741837E0	1.207179070E0
9.157511069E0	2.367099762E0	6.138188362E0	1.592423439E0
9.165914090E0	3.191427231E0	6.191428661E0	1.319641709E0
9.174317111E0	3.611965895E0	6.084948063E0	1.268195987E0
9.182720132E0	3.047857761E0	5.539384365E0	1.331605792E0
9.191123152E0	1.859223247E0	4.678566456E0	1.092921734E0
9.199526173E0	7.214360237E-1	3.823730469E0	7.824530005E-1
9.207929194E0	7.417750359E-2	3.233899832E0	6.227321029E-1
9.216332215E0	-5.024927482E-2	3.019144058E0	8.452646136E-1
9.224735236E0	1.866401732E-1	3.184248686E0	1.260419369E0
9.233138257E0	6.538388133E-1	3.791427374E0	1.609173179E0
9.241541277E0	1.106680512E0	4.705485821E0	1.326820135E0
9.249944298E0	1.310070395E0	5.704489231E0	8.937192559E-1
9.258347319E0	1.422533035E0	6.520441532E0	7.004988194E-1
9.266750340E0	1.741376638E0	7.023532867E0	6.430711150E-1
9.275153361E0	2.504687071E0	7.357331276E0	7.561319470E-1
9.283556382E0	3.467200041E0	7.879564762E0	7.070791125E-1
9.291959402E0	4.185645103E0	8.630312920E0	7.854440212E-1
9.300362423E0	4.720440865E0	9.379864693E0	9.595218897E-1
9.308765444E0	5.337789059E0	1.007438183E1	1.004387259E0
9.317168465E0	5.997011662E0	1.068873882E1	1.076770186E0
9.325571486E0	6.576673031E0	1.119721317E1	1.220937729E0
9.333974507E0	6.909275532E0	1.122891808E1	1.442872047E0
9.342377527E0	6.890730858E0	1.097468090E1	1.233500123E0
9.350780548E0	6.587440968E0	1.078325558E1	1.039681435E0
9.359183569E0	6.221338749E0	1.069591713E1	7.770691514E-1
9.367586590E0	5.742774487E0	1.091127110E1	7.100701332E-1
9.375989611E0	5.112265587E0	1.118644619E1	6.388836503E-1
9.384392632E0	4.629513741E0	1.137906837E1	5.641079545E-1
9.392795652E0	4.439882278E0	1.163988590E1	4.408775866E-1
9.401198673E0	4.424329281E0	1.198325539E1	3.415754437E-1
9.409601694E0	4.583451748E0	1.241276741E1	3.170489967E-1
9.418004715E0	4.846662045E0	1.295653629E1	4.833501875E-1
9.426407736E0	5.092525005E0	1.347278786E1	7.854440212E-1
9.434810757E0	5.372485161E0	1.381735420E1	9.140582681E-1
9.443213777E0	5.626722336E0	1.409193039E1	8.195417523E-1
9.451616798E0	5.783452511E0	1.415773296E1	6.197410822E-1
9.460019819E0	5.927021503E0	1.380658627E1	2.937189937E-1
9.468422840E0	6.017949104E0	1.312881947E1	-1.866401732E-1
9.476825861E0	6.076572895E0	1.254197979E1	-4.797609448E-1
9.485228882E0	6.038886070E0	1.209392357E1	-1.040279627E0
9.493631902E0	5.489733219E0	1.177328587E1	-2.286342144E0
9.502034923E0	4.576871395E0	1.149452209E1	-2.056631088E0
9.510437944E0	4.054637909E0	1.068395329E1	-9.373882413E-1
9.518840965E0	4.066003799E0	9.667601585E0	-1.716850251E-1
9.527243986E0	4.161118507E0	8.915059090E0	1.944168359E-1
9.535647007E0	4.675575256E0	8.306683540E0	-6.759724021E-2
9.544050027E0	6.175277233E0	7.557132244E0	3.529413417E-2
9.552453048E0	8.257631302E0	6.781259537E0	9.349954724E-1
9.560856069E0	1.007916737E1	6.834499836E0	2.173879385E0
9.569259090E0	1.060259724E1	8.006384850E0	2.807977438E0
9.577662111E0	9.187242508E0	9.746564865E0	2.283949137E0
9.586065132E0	6.949953556E0	1.076710415E1	1.125224829E0
9.594468152E0	5.254638672E0	1.087059307E1	1.226321608E-1
9.602871173E0	4.695316315E0	1.049611664E1	-3.182454109E-1
9.611274194E0	4.849653244E0	1.013719273E1	-4.331009090E-1
9.619677215E0	4.734199524E0	1.047338486E1	-3.948157430E-1
9.628080236E0	1.862214208E0	1.276750374E1	-2.291127741E-1
9.636483257E0	-7.026523590E0	1.740958023E1	-1.408774376E0
9.644886277E0	-2.103171539E1	2.159821510E1	-2.641077995E0
9.653289298E0	-3.398884964E1	1.792044640E1	-7.812565804E0
9.661692319E0	-2.293221474E1	8.944969177E0	-1.615933037E1
9.670095340E0	3.250649452E0	6.175875187E0	-2.861815929E0
9.678498361E0	2.836332321E1	1.106800079E1	5.645864964E0
9.686901382E0	2.304886436E1	1.477867126E1	1.285065365E1
9.695304402E0	8.090731621E0	1.326999664E1	1.123669529E1
9.703707423E0	1.654636860E0	1.434377575E1	5.143970490E0
9.712110444E0	-2.063211441E0	1.375334644E1	1.816750646E0
9.720513465E0	-7.217949390E0	9.831509590E0	1.671386600E0
9.728916486E0	-1.030349445E1	5.132006168E0	-6.514459848E-1
9.737319507E0	-8.617152214E0	3.682554007E0	-9.445667267E-1
9.745722527E0	-3.355933666E0	6.218945980E0	1.402194023E0
9.754125548E0	1.673181176E0	9.840482712E0	1.662413478E0
9.762528569E0	2.935993433E0	1.173440266E1	1.918445587E0
9.770931590E0	2.319841623E0	1.199641609E1	2.820539713E0
9.779334611E0	1.783849239E0	1.117328548E1	2.481357098E0
9.787737632E0	4.426721931E-1	1.002712345E1	1.694118381E0
9.796140652E0	-1.534397483E0	9.111868858E0	1.438684583E0
9.804543673E0	-3.124428272E0	8.786444664E0	1.325025558E0
9.812946694E0	-3.441477060E0	9.247661591E0	9.433703423E-1
9.821349715E0	-2.362912416E0	9.847661972E0	5.156532526E-1
9.829752736E0	-1.041476011E0	1.007438183E1	7.842476368E-1
9.838155757E0	-1.429711580E-1	9.919445992E0	1.465603828E0
9.846558777E0	-2.021935135E-1	9.747162819E0	2.212762833E0
9.854961798E0	-1.189232826E0	9.545567513E0	2.425125837E0
9.863364819E0	-2.271985054E0	9.152546883E0	2.054238319E0
9.871767840E0	-2.627917528E0	8.987442017E0	1.549352646E0
9.880170861E0	-2.166102648E0	9.232108116E0	1.533799291E0
9.888573882E0	-1.474576950E0	9.335597992E0	1.676172256E0
9.896976902E0	-7.489534616E-1	9.402596474E0	1.874178290E0
9.905379923E0	-1.465603858E-1	9.503094673E0	1.688136339E0
9.913782944E0	1.034895778E-1	9.746564865E0	1.395015597E0
9.922185965E0	1.094716340E-1	9.859027863E0	1.076171994E0
9.930588986E0	1.842473447E-1	9.929615974E0	9.002995491E-1
9.938992007E0	5.270192027E-1	1.002054310E1	8.901300430E-1
9.947395027E0	7.298108935E-1	1.001037312E1	1.273579836E0
9.955798048E0	8.177471161E-1	9.949954987E0	1.404586911E0
9.964201069E0	8.697910309E-1	9.872187614E0	1.252642632E0
9.972604090E0	9.224331379E-1	9.793823242E0	1.125224829E0
9.981007111E0	8.488538265E-1	9.744770050E0	1.250848055E0
9.989410132E0	6.789634228E-1	9.719645500E0	1.373480201E0
9.997813152E0	5.904290080E-1	9.702297211E0	1.436291814E0
1.000621617E1	4.654040039E-1	9.592227936E0	1.503290772E0
1.001461919E1	3.631108403E-1	9.516854286E0	1.536192179E0
1.002302222E1	3.278166950E-1	9.599406242E0	1.590030670E0
1.003142524E1	2.949153781E-1	9.710672379E0	1.561316729E0
1.003982826E1	4.043870270E-1	9.643074989E0	1.479960799E0
1.004823128E1	7.429714203E-1	9.592825890E0	1.197607756E0
1.005663430E1	9.684949517E-1	9.744770050E0	1.079761267E0
1.006503732E1	1.027119160E0	9.905687332E0	1.067198873E0
1.007344034E1	1.040279627E0	1.008036327E1	1.073779106E0
1.008184336E1	1.045065284E0	1.028315544E1	1.042074203E0
1.009024638E1	9.230313301E-1	1.066839981E1	1.581057549E0
1.009864940E1	5.892325640E-1	1.078744221E1	1.832902193E0
1.010705242E1	5.910272002E-1	1.060319519E1	1.519442320E0
1.011545544E1	7.800601721E-1	1.037527943E1	1.211366415E0
1.012385847E1	1.138385415E0	1.028076267E1	1.016351461E0
1.013226149E1	1.473978758E0	1.029631615E1	7.615157962E-1
1.014066451E1	1.675574064E0	1.031306553E1	4.965106845E-1
1.014906753E1	1.588235974E0	1.048594666E1	4.055834413E-1
1.015747055E1	1.424925923E0	1.091127110E1	2.285145670E-1
1.016587357E1	1.265205026E0	1.130548859E1	3.589233849E-3
1.017427659E1	1.304088354E0	1.136949635E1	-3.020938635E-1
1.018267961E1	1.582852125E0	1.126899815E1	-5.048855543E-1
1.019108263E1	1.901695848E0	1.134616661E1	-7.292127013E-1
1.019948565E1	2.000399828E0	1.172183990E1	-5.377869010E-1
1.020788867E1	1.828714728E0	1.228534985E1	-2.009970993E-1
1.021629169E1	1.440479279E0	1.252223873E1	-6.101697683E-2
1.022469472E1	3.798605800E-1	1.294038486E1	4.929214716E-1
1.023309774E1	-3.930211067E-1	1.317547989E1	6.400800496E-2
1.024150076E1	-7.992027402E-1	1.361097336E1	-2.512463629E-1
1.024990378E1	-8.428717852E-1	1.444068432E1	3.828516230E-2
1.025830680E1	-8.805587292E-1	1.603490257E1	1.104885817E0
1.026670982E1	-1.716252089E0	1.761416626E1	1.150349498E0
1.027511284E1	-3.687937975E0	1.720977783E1	7.124629617E-1
1.028351586E1	-5.776273727E0	1.543310738E1	2.249253243E-1
1.029191888E1	-6.535995007E0	1.474576950E1	4.546362907E-2
1.030032190E1	-7.142575741E0	1.635733604E1	1.146760225E0
1.030872492E1	-7.594220638E0	1.709432411E1	3.367897987E0
1.031712794E1	-5.622535229E0	1.520100403E1	5.644070625E0
1.032553096E1	5.820540786E-1	1.163868904E1	5.953940868E0
1.033393399E1	8.635098457E0	1.038843918E1	5.189434052E0
1.034233701E1	1.207298660E1	1.302592850E1	8.271389961E0
1.035074003E1	1.042373371E1	1.597209072E1	9.095118523E0
1.035914305E1	7.250252724E0	1.728575134E1	7.626523972E0
1.036754607E1	5.392225742E0	1.678744507E1	5.449055195E0
1.037594909E1	2.837289333E0	1.431386471E1	3.485744476E0
1.038435211E1	-1.015154958E0	1.089511967E1	2.557927370E0
1.039275513E1	-3.171088219E0	7.977072716E0	1.326221943E0
1.040115815E1	-2.481357098E0	6.315855503E0	8.709874153E-1
1.040956117E1	4.785645287E-3	5.898307800E0	5.832505226E-1
1.041796419E1	2.178066730E0	6.368497372E0	1.094716340E-1
1.042636722E1	2.782254457E0	6.741777897E0	-9.571290761E-2
1.043477024E1	2.298306227E0	6.549155712E0	1.052841991E-1
1.044317326E1	1.837687731E0	5.924030781E0	7.172485590E-1
1.045157628E1	2.098505497E0	5.301896572E0	1.080957651E0
1.045997930E1	2.568695068E0	4.883750916E0	1.112662554E0
1.046838232E1	2.578266382E0	4.530211449E0	9.864411354E-1
1.047678534E1	2.015354872E0	4.185645103E0	1.064207911E0
1.048518836E1	1.382453322E0	3.894917011E0	1.028315544E0
1.049359138E1	1.079162955E0	3.781856298E0	8.835497499E-1
1.050199440E1	1.167099237E0	3.954139471E0	7.322037220E-1
1.051039742E1	1.308275819E0	4.152145386E0	6.161518097E-1
1.051880044E1	1.309472203E0	4.428516388E0	2.081755698E-1
1.052720347E1	1.285543919E0	4.868197441E0	-3.846462369E-1
1.053560649E1	1.389033556E0	5.504090309E0	-5.347958803E-1
1.054400951E1	1.918445587E0	6.097510338E0	-3.912265003E-1
1.055241253E1	2.787040234E0	6.358926296E0	-1.214357466E-1
1.056081555E1	3.875774384E0	6.575476646E0	1.034895778E-1
1.056921857E1	4.528416634E0	6.967301369E0	2.273181528E-1
1.057762159E1	4.210171223E0	7.284948349E0	9.152546525E-2
1.058602461E1	3.556332588E0	7.647460938E0	-2.159522474E-1
1.059442763E1	3.509074450E0	7.995616913E0	-3.092723191E-1
1.060283065E1	4.682754040E0	8.426324844E0	-4.965107143E-2
1.061123367E1	6.359524250E0	8.906085968E0	3.505485058E-1
1.061963669E1	7.542177200E0	9.243474007E0	5.030909777E-1
1.062803972E1	7.631309509E0	9.296713829E0	4.576273263E-1
1.063644274E1	7.020541668E0	9.097511292E0	2.967100143E-1
1.064484576E1	6.274579048E0	8.788239479E0	4.127619043E-2
1.065324878E1	5.737390518E0	8.597412109E0	-3.038884699E-1
1.066165180E1	5.377270699E0	8.657232285E0	-4.241278172E-1
1.067005482E1	4.973481655E0	8.948558807E0	-5.210371017E-1
1.067845784E1	4.385445595E0	9.498309135E0	-6.221339107E-1
1.068686086E1	3.899104595E0	1.007557774E1	-6.053841114E-1
1.069526388E1	3.993621111E0	1.055713367E1	-4.941178858E-1
1.070366690E1	4.485345840E0	1.115474129E1	-1.794617027E-1
1.071206992E1	4.841278553E0	1.180319595E1	1.441675574E-1
1.072047294E1	4.998606682E0	1.261316681E1	1.465603858E-1
1.072887596E1	5.316253662E0	1.360439301E1	1.920240223E-1
1.073727899E1	5.886941910E0	1.465962791E1	4.007977843E-1
1.074568201E1	6.382854462E0	1.543250942E1	5.174478889E-1
1.075408503E1	6.421139717E0	1.586740494E1	4.175475538E-1
1.076248805E1	6.232704639E0	1.578664780E1	4.983053207E-1
1.077089107E1	6.035296917E0	1.523211098E1	-3.391826153E-1
1.077929409E1	4.822135925E0	1.466561031E1	-1.316650629E0
1.078769711E1	4.703093052E0	1.423191071E1	-1.345962763E0
1.079610013E1	6.232704639E0	1.358824158E1	-1.378265858E0
1.080450315E1	7.508079052E0	1.290209961E1	4.785645381E-2
1.081290617E1	8.188239098E0	1.102672482E1	2.192423820E0
1.082130919E1	8.635697365E0	8.421539307E0	2.413759947E0
1.082971222E1	8.884550095E0	6.058028698E0	1.686341763E0
1.083811524E1	1.084367371E1	4.174877167E0	6.789634228E-1
1.084651826E1	1.326162148E1	3.966701746E0	2.141576290E0
1.085492128E1	1.417448330E1	5.956333637E0	3.883551121E0
1.086332430E1	1.351107311E1	9.111269951E0	3.610171080E0
1.087172732E1	1.103091240E1	1.136052418E1	2.383251429E0
1.088013034E1	7.830512047E0	1.199342537E1	6.538388133E-1
1.088853336E1	4.704289436E0	1.201017475E1	-6.179464459E-1
1.089693638E1	1.000798106E0	1.290150166E1	-7.453642488E-1
1.090533940E1	-6.623931408E0	1.670967865E1	-1.067198873E0
1.091374242E1	-2.034437561E1	2.163051796E1	-1.514656782E0
1.092214544E1	-3.949473572E1	2.000638962E1	-2.950350285E0
1.093054847E1	-3.551068497E1	1.067019463E1	-1.337767315E1
1.093895149E1	-9.190233231E0	5.111667156E0	-4.625924587E0
1.094735451E1	3.094218826E1	9.607182503E0	2.567498684E0
1.095575753E1	3.606581879E1	1.819322968E1	1.087777138E1
1.096416055E1	1.439163208E1	1.626760483E1	1.337887001E1
1.097256357E1	3.534797192E0	1.494437408E1	3.723830223E0
1.098096659E1	1.111466169E0	1.611685753E1	-1.619342685E0
1.098936961E1	-3.210569859E0	1.419362545E1	-1.905883193E0
1.099777263E1	-9.707083702E0	8.056035995E0	-2.477767944E0
1.100617565E1	-1.162911797E1	3.534797192E0	-1.249053478E0
1.101457867E1	-5.737390518E0	4.677968502E0	1.092323542E0
1.102298169E1	1.581057549E0	8.859425545E0	2.240280151E0
1.103138472E1	3.115455151E0	1.060618591E1	2.389831543E0
1.103978774E1	3.439682424E-1	9.985847473E0	3.247060299E0
1.104819076E1	-1.110867858E0	9.620343208E0	3.156133175E0
1.105659378E1	-8.368897438E-1	9.890133858E0	2.119442701E0
1.106499680E1	-1.097707391E0	9.504889488E0	1.542772412E0
1.107339982E1	-2.474776745E0	8.659027100E0	2.041675806E0
1.108180284E1	-3.561118364E0	8.633303642E0	1.682752490E0
1.109020586E1	-3.373879910E0	9.478569031E0	6.382854581E-1
1.109860888E1	-2.326421738E0	1.021496010E1	3.726821244E-1
1.110701190E1	-1.332802176E0	1.013360405E1	1.252642632E0
1.111541492E1	-9.086744189E-1	9.563513756E0	2.530410051E0
1.112381794E1	-1.206580877E0	9.012566566E0	3.284149170E0
1.113222096E1	-2.000399828E0	8.767302513E0	3.132204771E0
1.114062399E1	-2.793022156E0	8.787641525E0	2.316850424E0
1.114902701E1	-3.227319479E0	8.997611046E0	1.489532113E0
1.115743003E1	-3.010170937E0	9.232108116E0	1.031904817E0
1.116583305E1	-2.093121529E0	9.455837250E0	1.098305583E0
1.117423607E1	-9.780662656E-1	9.604191780E0	1.291526079E0
1.118263909E1	-3.379862010E-1	9.659825325E0	1.593619823E0
1.119104211E1	-2.255235314E-1	9.601201057E0	1.699502230E0
1.119944513E1	-2.679961324E-1	9.588638306E0	1.476371527E0
1.120784815E1	-2.309073806E-1	9.699904442E0	1.216152072E0
1.121625117E1	-9.451649338E-2	9.750154495E0	1.201196909E0
1.122465419E1	8.434699476E-2	9.683753014E0	1.287338614E0
1.123305722E1	3.924229145E-1	9.689137459E0	1.232901812E0
1.124146024E1	6.783652306E-1	9.766903877E0	1.277169108E0
1.124986326E1	7.375875711E-1	9.824930191E0	1.378864050E0
1.125826628E1	6.598208547E-1	9.753145218E0	1.381855130E0
1.126666930E1	5.820540786E-1	9.659226418E0	1.266401410E0
1.127507232E1	6.795616150E-1	9.648459435E0	1.113260746E0
1.128347534E1	7.585247755E-1	9.745368004E0	1.203589797E0
1.129187836E1	7.274180651E-1	9.810572624E0	1.307677627E0
1.130028138E1	6.562315822E-1	9.801599503E0	1.204187989E0
1.130868440E1	5.892325640E-1	9.783653259E0	1.161117196E0
1.131708742E1	4.606183469E-1	9.737591743E0	1.224527001E0
1.132549044E1	3.421736360E-1	9.710074425E0	1.329213023E0
1.133389347E1	2.943171859E-1	9.677172661E0	1.412961721E0
1.134229649E1	2.889333367E-1	9.709476471E0	1.368096352E0
1.135069951E1	2.727817893E-1	9.778867722E0	1.322632670E0
1.135910253E1	2.159522474E-1	9.874580383E0	1.262812138E0
1.136750555E1	2.500499785E-1	9.851848602E0	1.358525038E0
1.137590857E1	2.608176768E-1	9.848857880E0	1.545763373E0
1.138431159E1	1.818545163E-1	9.920642853E0	1.676770449E0
1.139271461E1	-2.751746029E-2	9.940981865E0	1.787438512E0
1.140111763E1	-1.824527234E-1	9.841679573E0	1.712064624E0
1.140952065E1	-1.860419661E-1	9.680762291E0	1.720439434E0
1.141792367E1	-6.281159073E-2	9.605388641E0	1.773679733E0
1.142632669E1	9.870393574E-2	9.650852203E0	1.766501307E0
1.143472972E1	3.068794906E-1	9.708279610E0	1.657627940E0
1.144313274E1	5.108676553E-1	9.697511673E0	1.615155339E0
1.145153576E1	6.855437160E-1	1.002114105E1	1.605584025E0
1.145993878E1	8.057830334E-1	1.053918743E1	1.581655741E0
1.146834180E1	7.447660565E-1	1.080359459E1	1.581057549E0
1.147674482E1	8.404789567E-1	1.096690464E1	1.835294962E0
1.148514784E1	8.578268886E-1	1.048176003E1	1.341177106E0
1.149355086E1	1.843669891E0	9.884152412E0	-3.230310678E-1
1.150195388E1	3.083152056E0	1.022094154E1	1.256231871E-2
1.151035690E1	3.674777269E0	1.091007519E1	-3.242274821E-1
1.151875992E1	3.182454109E0	1.194018459E1	4.163511395E-1
1.152716294E1	2.368894339E0	1.252523041E1	-7.597211748E-2
1.153556596E1	1.814955950E0	1.274895859E1	-5.880361795E-1
1.154396899E1	1.616351724E0	1.293739414E1	-8.386843204E-1
1.155237201E1	1.614557028E0	1.342074394E1	-9.026923180E-1
1.156077503E1	1.835294962E0	1.446461296E1	1.040877849E-1
1.156917805E1	1.451246977E0	1.630469322E1	6.556333899E-1
1.157758107E1	-4.139583111E-1	1.667019653E1	3.194418252E-1
1.158598409E1	-2.495713949E0	1.471944809E1	-1.182054400E0
1.159438711E1	-3.351148129E0	1.352004623E1	-1.990828395E0
1.160279013E1	-3.118446112E0	1.576032639E1	-1.359123230E0
1.161119315E1	-3.792623997E0	2.081755638E1	1.282552958E0
1.161959617E1	-5.202594757E0	2.349691963E1	7.052844763E-1
1.162799919E1	-6.090332031E0	2.283350945E1	1.747956991E0
1.163640222E1	-7.067201614E0	1.834278107E1	3.113660574E0
1.164480524E1	-6.383452415E0	1.297867012E1	2.724228621E0
1.165320826E1	-2.937788010E0	9.817152977E0	3.768097401E0
1.166161128E1	4.328616142E0	8.729615211E0	5.255236626E0
1.167001430E1	1.216092300E1	1.026879883E1	7.324429989E0
1.167841732E1	1.531406498E1	1.384188080E1	1.003729248E1
1.168682034E1	1.229551888E1	1.645065498E1	1.011147022E1
1.169522336E1	5.401198864E0	1.616291809E1	6.460022926E0
1.170362638E1	-2.388036966E0	1.361934853E1	1.083948612E0
1.171202940E1	-7.827520847E0	8.460422516E0	-1.268195957E-1
1.172043242E1	-7.967501163E0	4.085146427E0	-2.628515720E0
1.172883544E1	-4.891527653E0	1.965703845E0	-3.069393158E0
1.173723846E1	-5.940182209E-1	2.291127682E0	-1.052842021E0
1.174564149E1	2.736192703E0	3.710669756E0	1.080359459E0
1.175404451E1	4.283152580E0	4.722833633E0	2.123031855E0
1.176244753E1	4.726422787E0	5.325226784E0	2.111665964E0
1.177085055E1	4.517649174E0	5.706283569E0	1.628913999E0
1.177925357E1	3.483949661E0	5.356931686E0	1.392024517E0
1.178765659E1	1.944766641E0	4.344767570E0	1.100100160E0
1.179605961E1	5.898307562E-1	3.268595695E0	8.991031051E-1
1.180446263E1	-2.153540403E-2	2.699702263E0	9.469595551E-1
1.181286565E1	1.974078640E-2	2.825923443E0	9.577272534E-1
1.182126867E1	4.151547253E-1	3.519243956E0	9.074779749E-1
1.182967169E1	9.439685345E-1	4.494318962E0	9.074779749E-1
1.183807472E1	1.420738459E0	5.327021599E0	7.872386575E-1
1.184647774E1	1.949552298E0	5.972485542E0	7.926225066E-1
1.185488076E1	2.632703066E0	6.340381622E0	7.591229677E-1
1.186328378E1	3.457628727E0	6.694519520E0	7.172485590E-1
1.187168680E1	4.027120590E0	7.220940590E0	4.737788737E-1
1.188008982E1	4.201198578E0	7.935198307E0	2.811566591E-1
1.188849284E1	4.214358807E0	8.501698494E0	3.451646566E-1
1.189689586E1	4.754538536E0	8.942576408E0	6.275177598E-1
1.190529888E1	5.890531063E0	9.488738060E0	8.620143533E-1
1.191370190E1	7.165307522E0	1.004028416E1	8.470591903E-1
1.192210492E1	8.168498039E0	1.027956581E1	9.768698215E-1
1.193050794E1	8.831908226E0	1.033041382E1	7.274180651E-1
1.193891097E1	9.233304024E0	1.039801121E1	5.437689424E-1
1.194731399E1	9.056235313E0	1.026640511E1	2.255235314E-1
1.195571701E1	8.283353806E0	1.023769188E1	-1.692921966E-1
1.196412003E1	7.345965385E0	1.042492962E1	-5.042873621E-1
1.197252305E1	6.646064758E0	1.073480034E1	-7.082754970E-1
1.198092607E1	5.977869034E0	1.097827053E1	-8.356932998E-1
1.198932909E1	5.580062389E0	1.137667561E1	-9.553344250E-1
1.199773211E1	5.678168297E0	1.180798149E1	-8.093722463E-1
1.200613513E1	6.118447304E0	1.208435249E1	-5.976074338E-1
1.201453815E1	6.341578007E0	1.270289707E1	-1.746760458E-1
1.202294117E1	6.114858150E0	1.326102352E1	-5.324030295E-2
1.203134419E1	5.912066460E0	1.361336613E1	7.537391037E-2
1.203974722E1	5.916851997E0	1.400279808E1	2.482553422E-1
1.204815024E1	5.804987907E0	1.418285847E1	5.078766346E-1
1.205655326E1	5.417948723E0	1.424626827E1	4.677968323E-1
1.206495628E1	4.773681164E0	1.409492207E1	1.339980662E-1
1.207335930E1	4.539184570E0	1.370668602E1	5.982056633E-2
1.208176232E1	4.968696117E0	1.311984634E1	-1.890329868E-1
1.209016534E1	5.130211830E0	1.218305683E1	-2.148156643E0
1.209856836E1	3.917050600E0	1.137727356E1	-2.313859463E0
1.210697138E1	2.696112871E0	1.004207802E1	-1.326820135E0
1.211537440E1	2.107478619E0	8.672187805E0	-6.251249313E-1
1.212377742E1	2.540579557E0	7.643273830E0	-5.934200287E-1
1.213218044E1	4.723432064E0	6.576074600E0	-2.500499785E-1
1.214058346E1	8.046463966E0	5.505286694E0	1.096511006E0
1.214898649E1	1.080838013E1	5.432305813E0	3.288934708E0
1.215738951E1	1.201795197E1	6.836294174E0	4.607978344E0
1.216579253E1	1.102612686E1	9.062815666E0	4.053441525E0
1.217419555E1	8.226524353E0	1.037527943E1	2.739781857E0
1.218259857E1	5.249254704E0	1.054217815E1	7.758727670E-1
1.219100159E1	3.417548895E0	1.022692394E1	-9.517452121E-1
1.219940461E1	2.896511793E0	1.021496010E1	-2.529213428E0
1.220780763E1	1.780260086E0	1.117268753E1	-3.658625841E0
1.221621065E1	-3.086143017E0	1.452921867E1	-3.777668715E0
1.222461367E1	-1.542772388E1	2.274019051E1	-5.383851051E0
1.223301669E1	-3.914897156E1	2.434218407E1	2.608176768E-1
1.224141972E1	-4.432763672E1	1.267537975E1	-1.198983574E1
1.224982274E1	-1.713859177E1	2.625524759E0	-5.241477966E0
1.225822576E1	2.575454903E1	3.548556089E0	1.091904831E1
1.226662878E1	3.975734711E1	1.200658607E1	1.467518139E1
1.227503180E1	2.021396828E1	1.438624763E1	1.806700706E1
1.228343482E1	7.842476368E0	1.556890011E1	6.987640381E0
1.229183784E1	4.676771641E0	1.862094498E1	-7.858627796E0
1.230024086E1	-9.026923180E-1	1.867538261E1	-1.007079220E1
1.230864388E1	-1.043150997E1	1.309472179E1	-5.715256691E0
1.231704690E1	-1.631605911E1	5.117649555E0	-4.676173687E0
1.232544992E1	-1.167936707E1	2.638087034E0	-2.807977438E0
1.233385294E1	-9.445667267E-1	6.132804394E0	1.167099237E0
1.234225597E1	7.911269665E0	1.067139053E1	3.805784464E0
1.235065899E1	5.925227165E0	1.080120182E1	6.775277138E0
1.235906201E1	-5.868397355E-1	8.664410591E0	7.725826263E0
1.236746503E1	-4.561916351E0	7.838288784E0	4.596612453E0
1.237586805E1	-5.516652584E0	8.150551796E0	4.612165689E-1
1.238427107E1	-4.871787071E0	8.528617859E0	-5.940182209E-1
1.239267409E1	-3.482753277E0	8.652446747E0	6.424728632E-1
1.240107711E1	-2.088934183E0	9.215357780E0	2.417947292E0
1.240948013E1	-9.415757060E-1	1.006660461E1	2.407777786E0
1.241788315E1	-6.227321029E-1	1.038963604E1	1.490130305E0
1.242628617E1	-9.529415965E-1	1.012044334E1	8.925228715E-1
1.243468919E1	-1.328016520E0	9.621540070E0	1.183250785E0
1.244309222E1	-1.308874011E0	9.330811501E0	2.220539331E0
1.245149524E1	-1.257428288E0	9.232706070E0	2.575275421E0
1.245989826E1	-1.765304923E0	9.195018768E0	2.624328136E0
1.246830128E1	-2.666202545E0	9.198608398E0	2.566900492E0
1.247670430E1	-3.053241730E0	9.236295700E0	2.053041935E0
1.248510732E1	-3.051447153E0	9.193822861E0	2.100898266E0
1.249351034E1	-2.525026083E0	9.048459053E0	1.943570137E0
1.250191336E1	-1.747358680E0	9.001798630E0	2.090728760E0
1.251031638E1	-1.094716311E0	9.184251785E0	2.130210400E0
1.251871940E1	-7.830511928E-1	9.438488960E0	1.872383714E0
1.252712242E1	-6.634100676E-1	9.726823807E0	1.520638824E0
1.253552544E1	-7.334001660E-1	9.805787086E0	1.429711580E0
1.254392846E1	-7.256234884E-1	9.786644936E0	1.247856975E0
1.255233149E1	-6.334998012E-1	9.669994354E0	1.264606714E0
1.256073451E1	-5.288137794E-1	9.552147865E0	1.284945726E0
1.256913753E1	-2.823530734E-1	9.558130264E0	1.234098315E0
1.257754055E1	2.213360928E-2	9.664610863E0	1.308874011E0
1.258594357E1	2.871387303E-1	9.683155060E0	1.490130305E0
1.259434659E1	4.325026870E-1	9.701101303E0	1.604985833E0
1.260274961E1	4.145565331E-1	9.616754532E0	1.671984792E0
1.261115263E1	2.338984162E-1	9.585049629E0	1.615155339E0
1.261955565E1	4.187439568E-3	9.620343208E0	1.353141189E0
1.262795867E1	-8.614161611E-2	9.742377281E0	1.165902853E0
1.263636169E1	-0.000000000E0	9.777072906E0	1.131206870E0
1.264476472E1	1.513460279E-1	9.809376717E0	1.133001566E0
1.265316774E1	1.351944804E-1	9.792028427E0	1.289731383E0
1.266157076E1	6.221338734E-2	9.719047546E0	1.399203062E0
1.266997378E1	-2.273181453E-2	9.684949875E0	1.426720500E0
1.267837680E1	-2.416750938E-1	9.608379364E0	1.479960799E0
1.268677982E1	-3.613162339E-1	9.649655342E0	1.524826288E0
1.269518284E1	-4.402793646E-1	9.698110580E0	1.668993831E0
1.270358586E1	-4.779663086E-1	9.650253296E0	1.681556106E0
1.271198888E1	-4.055834413E-1	9.555138588E0	1.601396561E0
1.272039190E1	-2.105683982E-1	9.498309135E0	1.589432478E0
1.272879492E1	-3.888336942E-2	9.521040916E0	1.751546144E0
1.273719794E1	2.518445849E-1	9.705886841E0	1.712064624E0
1.274560097E1	4.181457460E-1	9.744770050E0	1.725823283E0
1.275400399E1	5.318048596E-1	9.627521515E0	1.418943882E0
1.276240701E1	7.465606928E-1	9.620942116E0	1.272981644E0
1.277081003E1	1.019940615E0	9.721440315E0	1.122233868E0
1.277921305E1	1.141974568E0	9.757332802E0	1.196411371E0
1.278761607E1	1.152742267E0	9.684351921E0	1.160519004E0
1.279601909E1	1.235892892E0	9.591031075E0	1.173679471E0
1.280442211E1	1.357328653E0	9.570094109E0	1.222134113E0
1.281282513E1	1.403988719E0	9.645467758E0	1.248455167E0
1.282122815E1	1.410568953E0	9.765707016E0	1.313061476E0
1.282963117E1	1.420140266E0	9.956535339E0	1.546959877E0
1.283803419E1	1.374676585E0	1.012582684E1	1.832303882E0
1.284643722E1	1.201795220E0	1.007378292E1	2.006979942E0
1.285484024E1	1.043270707E0	9.745966911E0	1.671386600E0
1.286324326E1	1.073779106E0	9.736993790E0	1.474576950E0
1.287164628E1	1.355534077E0	1.003430176E1	1.649253011E0
1.288004930E1	1.550549030E0	1.030528927E1	1.792224169E0
1.288845232E1	1.343569875E0	1.058644581E1	1.791027784E0
1.289685534E1	1.020538807E0	1.096092224E1	1.795215130E0
1.290525836E1	7.082754970E-1	1.146221828E1	1.855035782E0
1.291366138E1	4.911268353E-1	1.179541969E1	1.524227977E0
1.292206440E1	5.551348329E-1	1.181635666E1	9.403793216E-1
1.293046742E1	9.672985673E-1	1.188754272E1	8.584251404E-1
1.293887044E1	1.387238979E0	1.195932770E1	6.203392744E-1
1.294727346E1	1.458425403E0	1.200658607E1	6.502495408E-1
1.295567649E1	1.161715388E0	1.190967655E1	5.150550604E-1
1.296407951E1	7.112665176E-1	1.186720371E1	2.333002090E-1
1.297248253E1	3.864408433E-1	1.202752304E1	-1.609173268E-1
1.298088555E1	4.486542344E-1	1.278664589E1	-9.451649338E-2
1.298928857E1	6.245267391E-1	1.411884975E1	-1.118644550E-1
1.299769159E1	3.397808075E-1	1.535414505E1	-3.828516304E-1
1.300609461E1	-3.457628787E-1	1.568495274E1	-1.281356573E0
1.301449763E1	-1.024128079E0	1.606900024E1	-2.011167526E0
1.302290065E1	-2.494517565E0	1.730728531E1	-2.075175524E0
1.303130367E1	-4.920839787E0	1.888355827E1	-1.646860242E0
1.303970669E1	-6.915257454E0	1.900140381E1	-6.323033571E-1
1.304810972E1	-6.393023968E0	1.689871216E1	3.254238665E-1
1.305651274E1	-4.412364960E0	1.391127300E1	1.503290772E0
1.306491576E1	-2.310868502E0	1.093460083E1	1.590628862E0
1.307331878E1	8.297112584E-1	8.784649849E0	3.955335855E0
1.308172180E1	7.435098171E0	7.853243828E0	5.648257732E0
1.309012482E1	1.432104397E1	1.019222832E1	9.220742226E0
1.309852784E1	1.568076515E1	1.389332676E1	1.009591675E1
1.310693086E1	1.106800079E1	1.601516151E1	8.458627701E0
1.311533388E1	4.470390797E0	1.582253933E1	3.928416491E0
1.312373690E1	-2.145763636E0	1.325145149E1	2.410768867E-1
1.313213992E1	-6.763911247E0	8.838488579E0	1.190429255E-1
1.314054294E1	-8.076375008E0	4.616951466E0	-8.165507317E-1
1.314894597E1	-6.464210510E0	1.983051777E0	-1.377667665E0
1.315734899E1	-2.892922640E0	1.810170293E0	-1.000199914E0
1.316575201E1	5.054838061E-1	3.356531858E0	2.273181528E-1
1.317415503E1	2.702095032E0	4.874777794E0	1.453041553E0
1.318255805E1	3.742972851E0	5.751149178E0	2.066202402E0
1.319096107E1	4.323232174E0	6.062216282E0	2.073979139E0
1.319936409E1	4.591228485E0	5.845665932E0	1.929213285E0
1.320776711E1	4.193421841E0	5.254638672E0	1.724626899E0
1.321617013E1	3.089133978E0	4.533202648E0	1.694716692E0
1.322457315E1	1.892722726E0	3.942773581E0	1.663011789E0
1.323297617E1	9.960124493E-1	3.760919094E0	1.435095429E0
1.324137919E1	5.503492355E-1	3.943969965E0	1.342971683E0
1.324978222E1	5.647061467E-1	4.329214573E0	1.348953724E0
1.325818524E1	7.603194118E-1	5.015954494E0	1.497906923E0
1.326658826E1	1.113260746E0	5.816951752E0	1.790429592E0
1.327499128E1	1.683350682E0	6.565905571E0	2.113460541E0
1.328339430E1	2.449652195E0	7.149155617E0	2.233700037E0
1.329179732E1	3.135195971E0	7.625327587E0	2.199602127E0
1.330020034E1	3.501895905E0	8.063812256E0	2.003988981E0
1.330860336E1	3.386442184E0	8.437092781E0	1.649851203E0
1.331700638E1	3.235096216E0	8.856434822E0	1.417149186E0
1.332540940E1	3.481556892E0	9.268598557E0	1.493719578E0
1.333381242E1	4.212564468E0	9.622138023E0	1.710269928E0
1.334221544E1	5.092525005E0	1.004626560E1	1.962712765E0
1.335061846E1	5.709274769E0	1.037647533E1	2.064407825E0
1.335902149E1	5.943771362E0	1.060020447E1	1.911267042E0
1.336742451E1	5.631507874E0	1.072283649E1	1.668993831E0
1.337582753E1	4.927420139E0	1.070249748E1	1.302293777E0
1.338423055E1	4.136591911E0	1.062353420E1	1.042074203E0
1.339263357E1	3.530011654E0	1.067976570E1	7.645068169E-1
1.340103659E1	3.160320520E0	1.104467106E1	5.024927258E-1
1.340943961E1	2.790629387E0	1.155912781E1	2.853440940E-1
1.341784263E1	2.460419893E0	1.208854008E1	4.426721856E-2
1.342624565E1	2.251646042E0	1.268375492E1	-2.632105052E-1
1.343464867E1	2.321636200E0	1.325803185E1	-4.235295951E-1
1.344305169E1	2.836092949E0	1.385085392E1	-5.330012441E-1
1.345145472E1	3.684946775E0	1.459980774E1	-4.235295951E-1
1.345985774E1	4.309473515E0	1.526261902E1	-1.016949639E-1
1.346826076E1	4.727021217E0	1.562034607E1	-1.208375469E-1
1.347666378E1	5.028516769E0	1.583031654E1	-1.184447184E-1
1.348506680E1	5.332405090E0	1.585723591E1	-3.290131092E-1
1.349346982E1	5.511867046E0	1.547258949E1	-9.714859724E-1
1.350187284E1	5.510072231E0	1.465544033E1	-1.195214868E0
1.351027586E1	6.491727829E0	1.365823174E1	-9.266205430E-1
1.351867888E1	7.886145115E0	1.255573845E1	-5.611169338E-1
1.352708190E1	8.495717049E0	1.101775169E1	-2.955136001E-1
1.353548492E1	9.064012527E0	8.706883430E0	-2.997010350E-1
1.354388794E1	1.012522888E1	6.500102520E0	-6.287141442E-1
1.355229097E1	1.088913727E1	5.142774105E0	1.188634634E0
1.356069399E1	1.168714428E1	4.315455437E0	2.487937450E0
1.356909701E1	1.276391411E1	5.922834396E0	3.284149170E0
1.357750003E1	1.350628757E1	9.163313866E0	2.627319336E0
1.358590305E1	1.170927715E1	1.133360481E1	1.804786444E0
1.359430607E1	8.233104706E0	1.172662544E1	1.378265858E0
1.360270909E1	5.184050083E0	1.117328548E1	8.769695163E-1
1.361111211E1	3.500699520E0	1.042552853E1	4.695914388E-1
1.361951513E1	3.061616659E0	9.869794846E0	2.440679073E-1
1.362791815E1	2.647658348E0	9.921240807E0	3.696911037E-1
1.363632117E1	-2.243271172E-1	1.218066406E1	6.358926296E-1
1.364472419E1	-9.512067795E0	1.841576195E1	8.153542876E-1
1.365312722E1	-2.584906387E1	2.380380058E1	2.713460922E0
1.366153024E1	-4.135515213E1	1.908575249E1	-3.104687452E0
1.366993326E1	-2.516411972E1	8.861220360E0	-1.206760311E1
1.367833628E1	8.391629219E0	4.746163845E0	-4.609772682E0
1.368673930E1	4.009653091E1	1.139761257E1	3.589234054E-1
1.369514232E1	2.940420151E1	1.658465385E1	9.994820595E0
1.370354534E1	9.356534958E0	1.470150185E1	7.049853802E0
1.371194836E1	-4.462614357E-1	1.638903999E1	-2.529811859E0
1.372035138E1	-6.271588326E0	1.638305855E1	-5.382654667E0
1.372875440E1	-1.295593834E1	1.013180923E1	-1.560120344E0
1.373715742E1	-1.485464287E1	2.576471806E0	4.037888348E-1
1.374556044E1	-8.763114929E0	1.299900889E0	2.707478762E0
1.375396346E1	-5.204389244E-2	5.523830891E0	5.420341492E0
1.376236649E1	3.727419376E0	9.035896301E0	4.015156269E0
1.377076951E1	1.400997639E0	1.022632599E1	3.357130051E0
1.377917253E1	-1.067797065E0	1.052363396E1	2.775076151E0
1.378757555E1	-1.292722464E0	1.052124119E1	1.109073281E0
1.379597857E1	-8.380861282E-1	9.906285286E0	-4.845465720E-2
1.380438159E1	-8.835497499E-1	9.546764374E0	4.552344978E-1
1.381278461E1	-1.145563841E0	9.827322960E0	1.247258782E0
1.382118763E1	-1.245464206E0	1.023589706E1	1.189232826E0
1.382959065E1	-1.082752228E0	1.023769188E1	1.121635556E0
1.383799367E1	-6.448656917E-1	9.770493507E0	1.402792215E0
1.384639669E1	-4.289134443E-1	9.231510162E0	1.976471543E0
1.385479972E1	-7.292127013E-1	9.035298347E0	2.419741869E0
1.386320274E1	-1.274178028E0	9.203991890E0	2.416750908E0
1.387160576E1	-1.828714728E0	9.437292099E0	2.095514536E0
1.388000878E1	-1.928615093E0	9.522835732E0	1.408774376E0
1.388841180E1	-1.691725612E0	9.578469276E0	1.217946768E0
1.389681482E1	-1.363908887E0	9.540781975E0	1.487737536E0
1.390521784E1	-9.930213690E-1	9.449854851E0	1.615753531E0
1.391362086E1	-6.089733839E-1	9.445069313E0	1.580459356E0
1.392202388E1	-4.546363056E-1	9.511469841E0	1.690529227E0
1.393042690E1	-5.449653864E-1	9.531210899E0	1.737189293E0
1.393882992E1	-6.167500615E-1	9.531808853E0	1.528415442E0
1.394723294E1	-4.624129832E-1	9.547960281E0	1.289731383E0
1.395563596E1	-1.926222295E-1	9.546165466E0	1.252642632E0
1.396403899E1	7.477571070E-2	9.643673897E0	1.341775298E0
1.397244201E1	2.458625287E-1	9.638887405E0	1.532004714E0
1.398084503E1	4.498506486E-1	9.616754532E0	1.368096352E0
1.398924805E1	5.718846321E-1	9.690931320E0	1.317847013E0
1.399765107E1	7.453642488E-1	9.763314247E0	1.222134113E0
1.400605409E1	8.644071817E-1	9.714859962E0	1.253240824E0
1.401445711E1	9.786644578E-1	9.620942116E0	1.270588875E0
1.402286013E1	1.006181955E0	9.605986595E0	1.305882931E0
1.403126315E1	9.613165259E-1	9.617950439E0	1.234696507E0
1.403966617E1	9.116654396E-1	9.607781410E0	1.298106313E0
1.404806919E1	8.165507317E-1	9.641280174E0	1.256231904E0
1.405647222E1	8.404789567E-1	9.735796928E0	1.072582722E0
1.406487524E1	8.614161611E-1	9.847661972E0	1.344766378E0
1.407327826E1	9.020941257E-1	9.891330719E0	1.375872970E0
1.408168128E1	9.098708034E-1	9.934999466E0	1.396810174E0
1.409008430E1	8.333004713E-1	9.860223770E0	1.212562919E0
1.409848732E1	8.805587292E-1	9.843474388E0	1.077966571E0
1.410689034E1	8.805587292E-1	9.823135376E0	1.147358418E0
1.411529336E1	9.140582681E-1	9.972686768E0	1.287936807E0
1.412369638E1	7.250252366E-1	1.004746246E1	1.353141189E0
1.413209940E1	4.570291340E-1	1.006241703E1	1.371685624E0
1.414050242E1	1.531406492E-1	9.845867157E0	1.633699656E0
1.414890544E1	-1.519442350E-1	9.616155624E0	1.833500385E0
1.415730847E1	-3.631108403E-1	9.860223770E0	2.096112728E0
1.416571149E1	-3.846462369E-1	1.041535854E1	2.124228239E0
1.417411451E1	-3.032902777E-1	1.090528965E1	2.375474691E0
1.418251753E1	-1.172483116E-1	1.119841003E1	2.510071039E0
1.419092055E1	1.435693540E-2	1.069472122E1	1.548754454E0
1.419932357E1	9.876375198E-1	9.943374634E0	2.237289101E-1
1.420772659E1	2.810968399E0	1.023290634E1	-2.673979402E-1
1.421612961E1	4.097110748E0	1.117328548E1	-1.304088384E-1
1.422453263E1	4.098905087E0	1.208794212E1	1.537388563E-1
1.423293565E1	3.402593851E0	1.253539944E1	-6.741777658E-1
1.424133867E1	2.563311338E0	1.337587833E1	-7.854440212E-1
1.424974169E1	2.535195589E0	1.488275909E1	-1.196411322E-3
1.425814472E1	2.010569334E0	1.689631844E1	3.553341627E-1
1.426654774E1	1.202393398E-1	1.721695709E1	2.949153781E-1
1.427495076E1	-1.396810174E0	1.508196068E1	-4.689932466E-1
1.428335378E1	-1.372283816E0	1.431087399E1	-2.829512656E-1
1.429175680E1	-1.269392371E0	1.552104378E1	4.432703853E-1
1.430015982E1	-2.278565407E0	1.735992813E1	4.881358147E-1
1.430856284E1	-4.766502857E0	1.866461563E1	6.137589812E-1
1.431696586E1	-7.062416077E0	1.924906158E1	1.007378340E0
1.432536888E1	-8.233702660E0	1.942613029E1	1.768295884E0
1.433377190E1	-8.940183640E0	1.937408638E1	1.554138303E0
1.434217492E1	-9.092127800E0	1.769611931E1	1.344766378E0
1.435057794E1	-7.247261524E0	1.435274887E1	1.213759303E0
1.435898096E1	-3.585046530E0	1.093340492E1	1.612762451E0
1.436738399E1	2.194218397E0	9.518648148E0	3.435495138E0
1.437578701E1	7.835297585E0	1.022812080E1	5.175076962E0
1.438419003E1	1.018923664E1	1.175773239E1	8.116454124E0
1.439259305E1	9.980463028E0	1.240738392E1	7.225726128E0
1.440099607E1	7.980063438E0	1.305882931E1	6.461219311E0
1.440939909E1	5.216951370E0	1.270588779E1	4.703093052E0
1.441780211E1	2.246860504E0	1.147358418E1	1.783849239E0
1.442620513E1	-2.709871531E-1	8.791828156E0	-5.383851007E-2
1.443460815E1	-1.033699393E0	6.379265308E0	-1.556531072E0
1.444301117E1	-4.845465720E-1	5.090131760E0	-1.865205288E0
1.445141419E1	6.957131624E-1	4.945964336E0	-7.148557901E-1
1.445981722E1	1.907079697E0	4.983053207E0	6.801598072E-1
1.446822024E1	2.921636343E0	4.907081127E0	1.580459356E0
1.447662326E1	3.601198196E0	4.905286312E0	1.678565025E0
1.448502628E1	3.263810158E0	5.052444935E0	1.189232826E0
1.449342930E1	1.818545222E0	4.867001057E0	4.265206456E-1
1.450183232E1	6.580262631E-2	4.248456478E0	-4.546362907E-2
1.451023534E1	-1.165902853E0	3.449253798E0	2.572284266E-2
1.451863836E1	-1.247856975E0	2.881556749E0	1.238285750E-1
1.452704138E1	-3.750749528E-1	3.067000389E0	1.357926875E-1
1.453544440E1	7.866404653E-1	4.048655987E0	2.135594189E-1
1.454384742E1	1.339980721E0	5.149354458E0	1.214357466E-1
1.455225044E1	1.155733347E0	5.876772404E0	-1.902294010E-1
1.456065347E1	8.937192559E-1	6.345167637E0	-4.211367965E-1
1.456905649E1	1.098903775E0	6.620940208E0	-6.161518097E-1
1.457745951E1	2.024327993E0	7.110870838E0	-6.197410822E-1
1.458586253E1	3.102294445E0	7.725826263E0	-5.246263742E-1
1.459426555E1	3.780061483E0	8.298907280E0	-3.810569942E-1
1.460266857E1	4.048057556E0	8.660821915E0	-4.187439755E-2
1.461107159E1	4.450051785E0	8.957531929E0	3.738785386E-1
1.461947461E1	5.164309502E0	9.193224907E0	6.293123364E-1
1.462787763E1	5.964708805E0	9.469595909E0	6.735795736E-1
1.463628065E1	6.206982136E0	9.701699257E0	6.795616150E-1
1.464468367E1	5.712265968E0	9.987641335E0	3.708875179E-1
1.465308669E1	4.651049137E0	1.038604641E1	-7.357929647E-2
1.466148972E1	3.754338741E0	1.085503960E1	2.333002165E-2
1.466989274E1	3.616751432E0	1.114397335E1	3.936193287E-1
1.467829576E1	3.924827337E0	1.154118156E1	4.833501875E-1
1.468669878E1	4.112663746E0	1.214297676E1	4.540380836E-1
1.469510180E1	4.216153622E0	1.286022568E1	2.632105052E-1
1.470350482E1	4.710869789E0	1.380598831E1	3.230310604E-2
1.471190784E1	5.704489231E0	1.475833225E1	3.672982752E-1
1.472031086E1	6.799205780E0	1.549233055E1	8.009973764E-1
1.472871388E1	7.054041386E0	1.598166275E1	1.043868899E0
1.473711690E1	6.821937561E0	1.603310776E1	3.625126183E-1
1.474551992E1	6.824928284E0	1.572024632E1	-1.325025558E0
1.475392294E1	6.659225464E0	1.532004738E1	-2.025524378E0
1.476232596E1	8.476573944E0	1.450469303E1	-1.646860242E0
1.477072899E1	1.168355465E1	1.400638771E1	-3.349951804E-1
1.477913201E1	1.466441345E1	1.362293720E1	1.399801254E0
1.478753503E1	1.591047573E1	1.251865005E1	1.192223907E0
1.479593805E1	1.445683575E1	1.069830990E1	7.597211599E-1
1.480434107E1	1.244985580E1	8.195417404E0	4.546362907E-2
1.481274409E1	1.206580830E1	4.936991215E0	-8.327022791E-1
1.482114711E1	1.381376553E1	3.151347399E0	8.428717852E-1
1.482955013E1	1.608814240E1	4.405784607E0	3.068794966E0
1.483795315E1	1.672044563E1	7.926225185E0	3.436691523E0
1.484635617E1	1.445205021E1	1.149332523E1	2.484348059E0
1.485475919E1	9.190832138E0	1.449033546E1	1.421336651E0
1.486316222E1	-2.801995277E0	2.222453690E1	-0.000000000E0
1.487156524E1	-2.771726036E1	3.453202057E1	5.224728107E0
1.487996826E1	-6.025665665E1	2.359323120E1	-3.397808075E0
1.488837128E1	-3.637509155E1	7.077969551E0	-2.551287270E1
1.489677430E1	6.527620316E0	-2.469393015E0	-5.139782906E0
1.490517732E1	5.136373138E1	8.359326363E0	4.129413605E0
1.491358034E1	3.717250061E1	1.723250961E1	1.418465233E1
1.492198336E1	1.991426659E1	1.985743713E1	8.155936241E0
1.493038638E1	6.211169243E0	1.962294006E1	-6.817749977E0
1.493878940E1	-3.332005501E0	1.855633926E1	-5.348556995E0
1.494719242E1	-1.374736404E1	1.234397411E1	-4.725824594E-1
1.495559544E1	-2.041735649E1	1.740180254E0	-4.001995921E-1
1.496399847E1	-1.633041573E1	-2.939582586E0	7.944171429E-1
1.497240149E1	-3.801596880E0	2.821736097E0	4.953741074E0
1.498080451E1	7.130611420E0	9.231510162E0	4.229313850E0
1.498920753E1	9.001200676E0	1.188036442E1	2.936591625E0
1.499761055E1	3.577867985E0	1.158784199E1	3.123830080E0
1.500601357E1	6.843472719E-1	1.137009525E1	1.108475089E0
1.501441659E1	-2.033899277E-1	1.114935684E1	2.554338276E-1
1.502281961E1	-1.106680512E0	1.015035343E1	1.058824062E0
1.503122263E1	-2.388036966E0	9.048459053E0	8.913264275E-1
1.503962565E1	-3.496512175E0	8.937790871E0	4.289134443E-1
1.504802867E1	-3.778266907E0	9.630513191E0	5.288137794E-1
1.505643169E1	-2.667398930E0	9.915857315E0	8.027920127E-1
1.506483472E1	-1.097707391E0	9.565308571E0	1.632503271E0
1.507323774E1	-2.883351147E-1	9.162117958E0	2.733201742E0
1.508164076E1	-8.141579032E-1	8.931210518E0	3.424129248E0
1.509004378E1	-2.020140409E0	8.947361946E0	2.888136864E0
1.509844680E1	-2.821736097E0	9.085547447E0	1.858026743E0
1.510684982E1	-2.925823927E0	9.279964447E0	9.966106415E-1
1.511525284E1	-2.245065928E0	9.431310654E0	8.679963946E-1
1.512365586E1	-1.177268744E0	9.560523033E0	1.299302697E0
1.513205888E1	-3.702892959E-1	9.750752449E0	1.690529227E0
1.514046190E1	-1.136590764E-1	9.848857880E0	1.857428551E0
1.514886492E1	-2.913261652E-1	9.713065147E0	1.752144337E0
1.515726794E1	-4.803591371E-1	9.574879646E0	1.372283816E0
1.516567096E1	-4.749752879E-1	9.586843491E0	1.171286702E0
1.517407399E1	-1.411765367E-1	9.705886841E0	1.116251707E0
1.518247701E1	4.648058116E-1	9.945767403E0	1.259821177E0
1.519088003E1	8.823533654E-1	1.008873844E1	1.438086390E0
1.519928305E1	9.726824164E-1	1.005404282E1	1.445863128E0
1.520768607E1	1.000798106E0	9.899705887E0	1.179661512E0
1.521608909E1	1.135992527E0	9.821938515E0	9.547362328E-1
1.522449211E1	1.269392371E0	9.847661972E0	1.071984529E0
1.523289513E1	1.261615753E0	9.912865639E0	1.268794179E0
1.524129815E1	1.215553880E0	9.845269203E0	1.313659668E0
1.524970117E1	1.216152072E0	9.672387123E0	1.344766378E0
1.525810419E1	1.130608678E0	9.500103951E0	1.385444283E0
1.526650722E1	1.092921734E0	9.376873970E0	1.224527001E0
1.527491024E1	1.097109199E0	9.362516403E0	1.174875975E0
1.528331326E1	1.057627559E0	9.384650230E0	1.302293777E0
1.529171628E1	1.082154036E0	9.546764374E0	1.456032634E0
1.530011930E1	9.702895880E-1	9.708279610E0	1.710868239E0
1.530852232E1	7.082754970E-1	9.819545746E0	1.731805444E0
1.531692534E1	4.253242314E-1	9.892526627E0	1.885544300E0
1.532532836E1	1.980060786E-1	9.928419113E0	1.942373753E0
1.533373138E1	1.668993831E-1	1.006062317E1	2.162513494E0
1.534213440E1	1.016949639E-1	1.007617569E1	2.047657967E0
1.535053742E1	2.386840582E-1	9.884750366E0	1.930409670E0
1.535894044E1	5.228317380E-1	9.675976753E0	1.734198213E0
1.536734347E1	9.990034699E-1	9.707681656E0	1.364507079E0
1.537574649E1	1.485942841E0	9.964909554E0	1.082154036E0
1.538414951E1	1.936391711E0	1.026520920E1	7.962117195E-1
1.539255253E1	2.227119684E0	1.036092186E1	7.142575383E-1
1.540095555E1	2.504687071E0	1.052901745E1	6.161518097E-1
1.540935857E1	2.618346214E0	1.072762203E1	4.432703853E-1
1.541776159E1	2.537588358E0	1.073659515E1	3.834498227E-1
1.542616461E1	2.456232548E0	1.063071251E1	1.980060786E-1
1.543456763E1	2.518445730E0	1.054696369E1	8.135596663E-2
1.544297065E1	2.589632273E0	1.070907784E1	2.045863420E-1
1.545137367E1	2.392224550E0	1.120140076E1	5.407779217E-1
1.545977669E1	1.909472466E0	1.180798149E1	7.483552694E-1
1.546817972E1	1.378864050E0	1.224108219E1	6.358926296E-1
1.547658274E1	1.108475089E0	1.273101330E1	4.013960063E-1
1.548498576E1	1.273579836E0	1.364566898E1	8.380861282E-1
1.549338878E1	1.493121386E0	1.515494251E1	1.615753531E0
1.550179180E1	7.405785918E-1	1.648535156E1	1.797608018E0
1.551019482E1	-1.003190875E0	1.592184162E1	1.004387259E0
1.551859784E1	-2.202593327E0	1.482712555E1	-6.281159073E-2
1.552700086E1	-2.341377020E0	1.493181133E1	-7.776673436E-1
1.553540388E1	-2.705085993E0	1.652782440E1	-2.596212626E-1
1.554380690E1	-3.920639992E0	1.831346893E1	-3.296113312E-1
1.555220992E1	-4.882554531E0	1.918744659E1	-9.373882413E-1
1.556061294E1	-5.449653625E0	1.869272995E1	-3.074777126E-1
1.556901596E1	-6.344569206E0	1.675693703E1	1.717448473E0
1.557741899E1	-6.236892223E0	1.321615791E1	1.732403636E0
1.558582201E1	-3.679563046E0	1.010369396E1	3.266202927E0
1.559422503E1	3.156133175E0	8.621339798E0	3.739981890E0
1.560262805E1	9.884750366E0	1.044706345E1	6.983452797E0
1.561103107E1	1.244387436E1	1.270110226E1	9.132207870E0
1.561943409E1	1.155494022E1	1.372164154E1	8.750552177E0
1.562783711E1	8.560322762E0	1.394357586E1	6.930810928E0
1.563624013E1	4.311268330E0	1.291944790E1	3.832703590E0
1.564464315E1	-1.513460279E-1	1.133420277E1	8.871390224E-1
1.565304617E1	-3.693919897E0	8.487341881E0	7.531409264E-1
1.566144919E1	-4.430909157E0	5.670391560E0	-6.394818425E-1
1.566985222E1	-3.168695450E0	4.092923164E0	-1.012163997E0
1.567825524E1	-8.835497499E-1	4.150949001E0	-6.951149702E-1
1.568665826E1	1.042672515E0	5.053043365E0	4.546363056E-1
1.569506128E1	2.128415823E0	5.528616905E0	1.594218135E0
1.570346430E1	2.790629387E0	5.615356445E0	1.998006940E0
1.571186732E1	3.122035265E0	5.545366287E0	1.908874273E0
1.572027034E1	2.774477959E0	5.262415409E0	1.330409408E0
1.572867336E1	1.676770449E0	4.694119930E0	9.553344250E-1
1.573707638E1	3.499503136E-1	4.083950043E0	9.122636318E-1
1.574547940E1	-4.468596280E-1	3.544368505E0	1.119242787E0
1.575388242E1	-9.571290575E-3	3.442673683E0	1.153340459E0
1.576228544E1	1.129412293E0	4.001397610E0	1.207777262E0
1.577068847E1	2.255833626E0	4.910071850E0	1.130608678E0
1.577909149E1	2.939582586E0	5.903093338E0	8.404789567E-1
1.578749451E1	3.168097258E0	6.786643028E0	8.338986635E-1
1.579589753E1	3.350549936E0	7.360322475E0	8.482556343E-1
1.580430055E1	3.780659676E0	7.843074322E0	6.424728632E-1
1.581270357E1	4.297509670E0	8.252246857E0	3.002992272E-1
1.582110659E1	4.652843475E0	8.665607452E0	1.310070455E-1
1.582950961E1	4.951348305E0	9.049654961E0	4.157529473E-1
1.583791263E1	5.476572990E0	9.404989243E0	9.517452121E-1
1.584631565E1	6.240481377E0	9.714859962E0	1.365105271E0
1.585471867E1	6.778268337E0	1.004506969E1	1.564906001E0
1.586312169E1	6.729215622E0	1.030648518E1	1.466202021E0
1.587152472E1	6.206982136E0	1.036929703E1	1.086341500E0
1.587992774E1	5.621338367E0	1.022692394E1	7.704889178E-1
1.588833076E1	5.288137913E0	1.011386299E1	4.725824594E-1
1.589673378E1	5.143372059E0	1.020718288E1	4.055834413E-1
1.590513680E1	5.031507969E0	1.037527943E1	3.750749528E-1
1.591353982E1	4.784449100E0	1.062353420E1	2.991028428E-1
1.592194284E1	4.379463673E0	1.103330517E1	-4.905286431E-2
1.593034586E1	3.954737663E0	1.176251793E1	-4.145565331E-1
1.593874888E1	3.973282099E0	1.255394363E1	-1.525424421E-1
1.594715190E1	4.814957142E0	1.303071404E1	7.010970116E-1
1.595555492E1	6.379265308E0	1.330289745E1	1.503290772E0
1.596395794E1	7.604390144E0	1.365224934E1	1.868196249E0
1.597236097E1	7.831708431E0	1.400578880E1	1.791027784E0
1.598076399E1	7.280162811E0	1.405005646E1	1.520040631E0
1.598916701E1	6.779464722E0	1.389093399E1	1.069591761E0
1.599757003E1	6.768697262E0	1.343390465E1	9.080761671E-1
1.600597305E1	6.998407841E0	1.269571877E1	6.221339107E-1
1.601437607E1	7.066005230E0	1.164287663E1	-2.512463629E-1
1.602277909E1	6.658029079E0	1.082931709E1	-2.124228239E0
1.603118211E1	5.835496426E0	1.053619671E1	-1.988435626E0
1.603958513E1	6.351149559E0	1.043569756E1	-8.201399446E-1
1.604798815E1	7.327421188E0	1.071745300E1	6.729813814E-1
1.605639117E1	7.366304398E0	1.091665554E1	1.739582062E0
1.606479419E1	6.873981476E0	1.049611664E1	1.801795483E0
1.607319722E1	5.998806477E0	9.600603104E0	1.814955950E0
1.608160024E1	5.606383324E0	8.190033913E0	1.649851203E0
1.609000326E1	6.717251301E0	6.945167542E0	1.538584948E0
1.609840628E1	8.667402267E0	6.486942291E0	2.174477577E0
1.610680930E1	1.046740246E1	6.867401123E0	2.665604353E0
1.611521232E1	1.120379353E1	7.945965767E0	2.897109985E0
1.612361534E1	1.076710415E1	9.314062119E0	2.511865616E0
1.613201836E1	9.288339615E0	1.016770172E1	1.497906923E0
1.614042138E1	7.537391186E0	1.021137047E1	4.731806815E-1
1.614882440E1	6.051448345E0	1.078026390E1	-8.165507317E-1
1.615722742E1	8.596215248E-1	1.470868111E1	-2.329412937E0
1.616563044E1	-1.338186073E1	2.379542542E1	-4.472185612E0
1.617403346E1	-4.143112564E1	2.780220604E1	-5.712863803E-1
1.618243649E1	-4.323651123E1	1.593679714E1	-1.747358704E1
1.619083951E1	-1.333878994E1	3.610769272E0	-8.989834785E0
1.619924253E1	2.566062927E1	3.433102369E0	3.189034462E0
1.620764555E1	3.775395584E1	1.175713444E1	1.033759212E1
1.621604857E1	2.057408714E1	1.201137161E1	1.832483482E1
1.622445159E1	9.720243454E0	1.232483101E1	7.280761242E0
1.623285461E1	2.898904562E0	1.710329819E1	-3.348755360E0
1.624125763E1	-7.128817081E0	1.692204094E1	-4.334000111E0
1.624966065E1	-1.567238998E1	9.921838760E0	-5.790630817E0
1.625806367E1	-1.636870193E1	2.282154560E0	-6.091528416E0
1.626646669E1	-7.478767395E0	2.416152716E0	-1.277767301E0
1.627486972E1	3.848257065E0	7.488338470E0	2.480758905E0
1.628327274E1	9.129216194E0	1.163988590E1	4.740181446E0
1.629167576E1	5.562714577E0	1.225005531E1	5.690132141E0
1.630007878E1	1.133001566E0	1.136530972E1	4.726422787E0
1.630848180E1	-1.893320918E0	9.957731247E0	3.093321562E0
1.631688482E1	-4.095914364E0	8.478368759E0	8.883354068E-1
1.632528784E1	-4.710869789E0	7.927421570E0	-8.327022791E-1
1.633369086E1	-3.269792080E0	8.895318031E0	-5.964110494E-1
1.634209388E1	-6.915257573E-1	1.043509960E1	6.406782866E-1
1.635049690E1	9.433703423E-1	1.105184937E1	1.562513232E0
1.635889992E1	4.187439680E-1	1.041715336E1	2.340778828E0
1.636730294E1	-1.138385415E0	9.353543282E0	2.455634356E0
1.637570596E1	-2.529213428E0	8.691927910E0	1.870589137E0
1.638410899E1	-2.971885681E0	8.851649284E0	1.386640668E0
1.639251201E1	-2.341975212E0	9.350552559E0	1.072582722E0
1.640091503E1	-1.532004714E0	9.742975235E0	1.434497118E0
1.640931805E1	-9.637092948E-1	9.747162819E0	1.537986755E0
1.641772107E1	-7.477570772E-1	9.677771568E0	1.455434322E0
1.642612409E1	-6.652047038E-1	9.643673897E0	1.401595831E0
1.643452711E1	-6.203392744E-1	9.683753014E0	1.463809252E0
1.644293013E1	-4.528416991E-1	9.708279610E0	1.442872047E0
1.645133315E1	-2.512463741E-2	9.794421196E0	1.421336651E0
1.645973617E1	3.643072546E-1	9.840482712E0	1.409372568E0
1.646813919E1	6.705885530E-1	9.896116257E0	1.326820135E0
1.647654222E1	8.829515576E-1	1.004028416E1	1.258026481E0
1.648494524E1	9.822536707E-1	1.016351414E1	1.208973646E0
1.649334826E1	9.254241586E-1	1.015693378E1	1.159322619E0
1.650175128E1	8.452646136E-1	9.991230965E0	1.161715388E0
1.651015430E1	8.751748800E-1	9.767501831E0	1.014556766E0
1.651855732E1	9.337990284E-1	9.701699257E0	1.089332461E0
1.652696034E1	1.005583763E0	9.768698692E0	1.232303619E0
1.653536336E1	9.900303483E-1	9.856635094E0	1.364507079E0
1.654376638E1	8.925228715E-1	9.851848602E0	1.475773335E0
1.655216940E1	6.580262184E-1	9.714859962E0	1.673779488E0
1.656057242E1	4.085744619E-1	9.571888924E0	1.599003673E0
1.656897544E1	3.308077157E-1	9.569496155E0	1.472184181E0
1.657737847E1	4.205385745E-1	9.670592308E0	1.469193101E0
1.658578149E1	5.485545993E-1	9.853643417E0	1.683350682E0
1.659418451E1	4.965106845E-1	1.018205833E1	2.360519648E0
1.660258753E1	1.250249892E-1	1.007318497E1	1.969292998E0
1.661099055E1	1.938186288E-1	9.714859962E0	1.557129383E0
1.661939357E1	4.139583111E-1	9.577870369E0	1.791027784E0
1.662779659E1	7.549355626E-1	9.906884193E0	1.933400750E0
1.663619961E1	8.219345808E-1	1.003549862E1	1.893919110E0
1.664460263E1	8.835497499E-1	9.969097137E0	1.551745534E0
1.665300565E1	9.116654396E-1	9.806385040E0	1.455434322E0
1.666140867E1	1.071386337E0	9.675378799E0	1.207179070E0
1.666981169E1	1.265205026E0	9.905687332E0	1.508674622E0
1.667821472E1	1.287936807E0	1.020479012E1	1.519442320E0
1.668661774E1	1.139581800E0	1.017368412E1	1.269392371E0
1.669502076E1	9.972088337E-1	1.000558758E1	1.194018483E0
1.670342378E1	9.469595551E-1	9.943374634E0	1.203589797E0
1.671182680E1	1.135394335E0	1.017488003E1	1.005583763E0
1.672022982E1	1.418943882E0	1.029990482E1	1.012163997E0
1.672863284E1	1.761117458E0	1.035733318E1	6.747759581E-1
1.673703586E1	2.163111687E0	1.029332447E1	3.146561682E-1
1.674543888E1	2.633899450E0	1.019761181E1	9.930214286E-2
1.675384190E1	2.745165825E0	1.064985561E1	3.553341627E-1
1.676224492E1	2.309672117E0	1.147059345E1	6.173482537E-1
1.677064794E1	1.511067510E0	1.207597733E1	5.922235847E-1
1.677905096E1	8.374879360E-1	1.239781189E1	2.985046208E-1
1.678745399E1	5.557330847E-1	1.289791203E1	2.991028363E-3
1.679585701E1	6.167500615E-1	1.364686584E1	-1.674975827E-2
1.680426003E1	7.531409264E-1	1.472483253E1	3.990031779E-1
1.681266305E1	3.320041299E-1	1.592662716E1	7.298108935E-1
1.682106607E1	-8.488538265E-1	1.603011703E1	2.416750938E-1
1.682946909E1	-2.163709879E0	1.455853081E1	-8.650053740E-1
1.683787211E1	-2.760120869E0	1.326341629E1	-1.917847395E0
1.684627513E1	-2.827718258E0	1.356909943E1	-2.266601324E0
1.685467815E1	-3.250649452E0	1.497906971E1	-2.349751949E0
1.686308117E1	-4.365106583E0	1.692682648E1	-3.189034462E0
1.687148419E1	-6.985247612E0	1.899841309E1	-2.518445730E0
1.687988722E1	-9.692726135E0	1.985923195E1	3.050848842E-1
1.688829024E1	-9.117850304E0	1.741436577E1	3.183052301E0
1.689669326E1	-2.504687071E0	1.211904812E1	4.168895245E0
1.690509628E1	4.934000492E0	9.015557289E0	3.855435371E0
1.691349930E1	8.042875290E0	1.011685371E1	5.182255745E0
1.692190232E1	9.044271469E0	1.265803146E1	7.814360619E0
1.693030534E1	9.488140106E0	1.419242954E1	9.128020287E0
1.693870836E1	9.558130264E0	1.443051529E1	9.327222824E0
1.694711138E1	9.900303841E0	1.358704472E1	8.003393173E0
1.695551440E1	9.206983566E0	1.280160141E1	5.072783947E0
1.696391742E1	6.069394588E0	1.254078388E1	1.227517962E0
1.697232044E1	2.207977057E0	1.141077328E1	8.973085321E-3
1.698072346E1	-1.036092162E0	8.725427628E0	1.902892232E0
1.698912649E1	-3.602394581E0	5.446064472E0	3.071786165E0
1.699752951E1	-5.006981373E0	2.461018085E0	2.484946251E0
1.700593253E1	-4.260420799E0	8.997012973E-1	2.632105052E-1
1.701433555E1	-1.820937991E0	1.172483087E0	-1.427318692E0
1.702273857E1	7.692924738E-1	2.603390932E0	-1.308874011E0
1.703114159E1	2.443670034E0	4.031308174E0	-8.374879137E-3
1.703954461E1	3.108276606E0	4.710869789E0	1.152144074E0
1.704794763E1	3.217748165E0	4.589433670E0	1.657029629E0
1.705635065E1	3.377469063E0	4.048655987E0	1.761715651E0
1.706475367E1	3.653840065E0	3.549752474E0	1.556531072E0
1.707315669E1	3.132204771E0	3.305684566E0	2.062014818E0
1.708155972E1	1.871785522E0	2.920439959E0	2.383251429E0
1.708996274E1	8.039883971E-1	2.630310297E0	1.929811478E0
1.709836576E1	1.734796353E-2	2.736790895E0	1.341775298E0
1.710676878E1	-4.522434771E-1	3.270988464E0	9.822536707E-1
1.711517180E1	-4.827519655E-1	4.089334011E0	8.015955687E-1
1.712357482E1	9.391828626E-2	5.210371494E0	9.619147182E-1
1.713197784E1	1.266401410E0	6.488138676E0	1.281954765E0
1.714038086E1	2.717050076E0	7.753343582E0	1.194616675E0
1.714878388E1	3.573082447E0	8.736793518E0	1.375274777E0
1.715718690E1	3.654438496E0	9.209974289E0	1.621137381E0
1.716558992E1	3.363112211E0	9.220144272E0	1.557129383E0
1.717399294E1	3.412763357E0	9.326025963E0	1.159322619E0
1.718239596E1	4.009174347E0	1.000080204E1	8.847461939E-1
1.719079899E1	4.844867706E0	1.103868866E1	9.433703423E-1
1.719920201E1	5.539982796E0	1.196291637E1	1.098305583E0
1.720760503E1	5.911468506E0	1.288594818E1	1.045663476E0
1.721600805E1	5.699703693E0	1.356790257E1	7.722834945E-1
1.722441107E1	5.178666592E0	1.379581928E1	3.708875179E-1
1.723281409E1	4.783252239E0	1.375514126E1	2.907279432E-1
1.724121711E1	4.773681164E0	1.385803223E1	1.770688742E-1
1.724962013E1	5.128417015E0	1.426182079E1	-1.447657645E-1
1.725802315E1	5.581258774E0	1.497308731E1	-4.283152521E-1
1.726642617E1	5.982655048E0	1.540200138E1	-4.887340367E-1
1.727482919E1	6.632904530E0	1.560120392E1	-3.343969584E-1
1.728323222E1	7.663612843E0	1.577169228E1	-2.482553422E-1
1.729163524E1	8.559126854E0	1.608036613E1	-3.906283081E-1
1.730003826E1	8.755936623E0	1.604387665E1	-7.776673436E-1
1.730844128E1	9.180064201E0	1.539721584E1	-1.841875196E0
1.731684430E1	1.042433167E1	1.451486206E1	-2.730808735E0
1.732524732E1	1.096570778E1	1.318624783E1	-2.429313183E0
1.733365034E1	1.177866936E1	1.183849049E1	-1.264606714E0
1.734205336E1	1.246780205E1	1.063609695E1	-1.306481123E0
1.735045638E1	1.107278633E1	9.917651176E0	-1.130608678E0
1.735885940E1	9.151947975E0	8.917451859E0	-1.717448473E0
1.736726242E1	8.108677864E0	7.206583500E0	-1.380658627E0
1.737566544E1	9.903892517E0	5.123033047E0	4.336991012E-1
1.738406847E1	1.344826126E1	4.706682205E0	2.340778828E0
1.739247149E1	1.545763397E1	6.887740135E0	3.568296671E0
1.740087451E1	1.438445377E1	1.012223816E1	3.338585854E0
1.740927753E1	1.066720295E1	1.220997620E1	2.606980324E0
1.741768055E1	4.825126648E0	1.522313786E1	1.938784599E0
1.742608357E1	-6.327221394E0	2.134158516E1	2.801397085E0
1.743448659E1	-2.358246422E1	2.631985283E1	3.175275564E0
1.744288961E1	-3.473899841E1	1.913181305E1	-5.749952793E0
1.745129263E1	-1.946262169E1	8.315656662E0	-1.129292679E1
1.745969565E1	1.106321526E1	3.877569199E0	1.327418327E0
1.746809867E1	3.753561020E1	1.127856922E1	6.380461693E0
1.747650169E1	2.509951401E1	1.465005684E1	1.107159042E1
1.748490472E1	8.903693199E0	1.351107311E1	4.237689018E0
1.749330774E1	1.308275819E0	1.589671707E1	-4.394418716E0
1.750171076E1	-4.557130814E0	1.679701614E1	-4.421936035E0
1.751011378E1	-1.035912704E1	1.183789158E1	-2.583052158E0
1.751851680E1	-1.249472141E1	4.692923546E0	-6.592226624E-1
1.752691982E1	-7.199405193E0	2.659622431E0	1.688136339E0
1.753532284E1	8.584251404E-1	5.918646812E0	3.711866140E0
1.754372586E1	4.510470867E0	9.431908607E0	3.698107481E0
1.755212888E1	1.981257200E0	1.043270683E1	2.796611547E0
1.756053190E1	-8.063812256E-1	1.024786091E1	2.194218397E0
1.756893492E1	-1.136590719E0	1.036032391E1	1.217946768E0
1.757733794E1	-4.983053207E-1	1.017069244E1	6.693921089E-1
1.758574096E1	-7.812566161E-1	9.469595909E0	1.313659668E0
1.759414399E1	-1.786840320E0	9.110671997E0	2.009372711E0
1.760254701E1	-2.696711063E0	9.304491043E0	1.697707653E0
