"Time (s)"	"Gyroscope x (rad/s)"	"Gyroscope y (rad/s)"	"Gyroscope z (rad/s)"
5.703950700E-2	3.542914242E-2	-2.397575416E-2	-4.581354558E-3
6.544252700E-2	3.542914242E-2	-2.641914412E-2	-2.901524538E-3
7.384554800E-2	3.497100621E-2	-2.596100792E-2	-3.817795310E-3
8.224856900E-2	3.665083647E-2	-2.382304333E-2	-4.581354558E-3
9.065159000E-2	3.787253052E-2	-2.260134928E-2	-3.359660041E-3
9.905461100E-2	3.588727489E-2	-2.580829710E-2	-3.359660041E-3
1.074576320E-1	3.512371704E-2	-3.038965166E-2	-3.665083554E-3
1.158606520E-1	3.542914242E-2	-3.252761811E-2	-5.803049076E-3
1.242636730E-1	3.512371704E-2	-3.130592033E-2	-7.482878864E-3
1.326666940E-1	3.436015919E-2	-3.130592033E-2	-8.704573847E-3
1.410697150E-1	3.283303976E-2	-3.115320951E-2	-9.620844387E-3
1.494727360E-1	3.191677108E-2	-3.008422814E-2	-1.282779220E-2
1.578757570E-1	3.313846514E-2	-2.886253223E-2	-1.359135192E-2
1.662787770E-1	3.466558084E-2	-3.054236248E-2	-1.435491070E-2
1.746817980E-1	3.436015919E-2	-3.023693897E-2	-1.557660475E-2
1.830848190E-1	3.527642787E-2	-3.619270027E-2	-1.557660475E-2
1.914878400E-1	3.451287001E-2	-3.985778242E-2	-1.618745178E-2
1.998908610E-1	3.436015919E-2	-3.817795217E-2	-1.527118124E-2
2.082938820E-1	3.436015919E-2	-3.176405653E-2	-1.206423342E-2
2.166969020E-1	3.619270027E-2	-2.015795931E-2	-1.175880991E-2
2.250999230E-1	3.817795217E-2	-1.252236869E-2	-1.053711493E-2
2.335029440E-1	4.123219103E-2	-6.719320081E-3	-7.941014133E-3
2.419059650E-1	4.107947648E-2	-6.566607859E-3	-4.886778072E-3
2.503089860E-1	3.939964995E-2	-8.093725890E-3	-3.817795310E-3
2.587120070E-1	4.062134400E-2	-1.114796288E-2	-2.596100792E-3
2.671150270E-1	4.260659590E-2	-1.420219894E-2	2.748812549E-3
2.755180480E-1	4.092676565E-2	-1.954711229E-2	4.123218823E-3
2.839210690E-1	3.710897267E-2	-2.183778957E-2	7.024743594E-3
2.923240900E-1	3.512371704E-2	-1.771457121E-2	7.788302377E-3
3.007271110E-1	3.405473381E-2	-1.160609815E-2	7.788302377E-3
3.091301320E-1	3.390202299E-2	-3.054236295E-4	7.024743594E-3
3.175331520E-1	3.405473381E-2	8.704573847E-3	8.093725890E-3
3.259361730E-1	3.374931216E-2	1.389677543E-2	1.145338640E-2
3.343391940E-1	3.405473381E-2	1.084253844E-2	1.359135192E-2
3.427422150E-1	3.313846514E-2	6.108472589E-3	1.389677543E-2
3.511452360E-1	3.222219273E-2	1.068982761E-3	1.496575773E-2
3.595482570E-1	2.916795574E-2	-5.192201585E-3	1.603474095E-2
3.679512770E-1	2.825168520E-2	-7.482878864E-3	1.740914769E-2
3.763542980E-1	2.733541466E-2	-1.832541777E-3	1.786728203E-2
3.847573190E-1	2.641914412E-2	6.566607859E-3	1.740914769E-2
3.931603400E-1	2.733541466E-2	1.068982668E-2	1.649287529E-2
4.015633610E-1	2.458660305E-2	1.313321572E-2	1.679829881E-2
4.099663820E-1	2.473931387E-2	1.557660475E-2	1.710372418E-2
4.183694020E-1	2.275406010E-2	9.162709117E-3	1.389677543E-2
4.267724230E-1	2.199050039E-2	-6.108472589E-4	1.481304597E-2
4.351754440E-1	1.832541823E-2	-3.054236295E-3	1.481304597E-2
4.435784650E-1	1.679829881E-2	1.527118147E-3	1.343864016E-2
4.519814860E-1	1.664558798E-2	6.719320081E-3	1.023169141E-2
4.603845070E-1	1.908897609E-2	8.093725890E-3	9.926267900E-3
4.687875270E-1	1.908897609E-2	7.482878864E-3	9.926267900E-3
4.771905480E-1	1.786728203E-2	8.704573847E-3	1.114796288E-2
4.855935690E-1	1.786728203E-2	1.572931744E-2	1.236965694E-2
4.939965900E-1	1.649287529E-2	2.199050039E-2	1.236965694E-2
5.023996110E-1	1.527118124E-2	2.321219631E-2	1.099525020E-2
5.108026320E-1	1.527118124E-2	2.107422985E-2	1.099525020E-2
5.192056520E-1	1.771457121E-2	1.893626526E-2	1.282779220E-2
5.276086730E-1	1.618745178E-2	1.603474095E-2	1.359135192E-2
5.360116940E-1	1.420219894E-2	7.330167107E-3	1.359135192E-2
5.444147150E-1	1.542389300E-2	1.527118147E-4	1.481304597E-2
5.528177360E-1	1.664558798E-2	-2.290677279E-3	1.542389300E-2
5.612207570E-1	1.649287529E-2	-3.970507067E-3	1.481304597E-2
5.696237770E-1	1.557660475E-2	-8.246437646E-3	1.481304597E-2
5.780267980E-1	1.466033421E-2	-8.093725890E-3	1.557660475E-2
5.864298190E-1	1.099525020E-2	-2.901524538E-3	1.298050396E-2
5.948328400E-1	9.162709117E-3	5.192201585E-3	1.221694518E-2
6.032358610E-1	7.024743594E-3	1.359135192E-2	1.221694518E-2
6.116388820E-1	4.275931045E-3	2.641914412E-2	9.773556143E-3
6.200419020E-1	5.039489828E-3	3.756710514E-2	1.038440317E-2
6.284449230E-1	6.719320081E-3	3.558185324E-2	1.221694518E-2
6.368479440E-1	4.581354558E-3	2.718270384E-2	1.343864016E-2
6.452509650E-1	4.275931045E-3	1.878355257E-2	1.542389300E-2
6.536539860E-1	4.428642802E-3	1.191152167E-2	1.450762246E-2
6.620570070E-1	3.359660041E-3	7.635590620E-3	1.343864016E-2
6.704600270E-1	5.039489828E-3	6.566607859E-3	1.420219894E-2
6.788630480E-1	2.748812549E-3	1.985253533E-3	1.603474095E-2
6.872660690E-1	3.206948051E-3	-0.000000000E0	1.572931744E-2
6.956690900E-1	-1.221694518E-3	-9.162708884E-4	1.450762246E-2
7.040721110E-1	-1.679830020E-3	6.872031838E-3	1.450762246E-2
7.124751320E-1	-4.581354442E-4	1.175880991E-2	1.236965694E-2
7.208781520E-1	-4.581354442E-4	8.704573847E-3	1.328592747E-2
7.292811730E-1	-3.206948051E-3	5.192201585E-3	1.328592747E-2
7.376841940E-1	-4.886778072E-3	3.054236295E-3	1.130067464E-2
7.460872150E-1	-4.123218823E-3	4.734066315E-3	1.084253844E-2
7.544902360E-1	-5.497625098E-3	5.955760833E-3	7.788302377E-3
7.628932570E-1	-6.413896102E-3	7.177455351E-3	6.566607859E-3
7.712962770E-1	-3.970507067E-3	6.566607859E-3	4.428642802E-3
7.796992980E-1	-6.261184346E-3	1.221694518E-3	3.359660041E-3
7.881023190E-1	-7.635590620E-3	-3.817795310E-3	-6.108472589E-4
7.965053400E-1	-7.482878864E-3	-6.719320081E-3	-5.650337320E-3
8.049083610E-1	-8.857285604E-3	-7.788302377E-3	-7.941014133E-3
8.133113820E-1	-8.857285604E-3	-1.099525020E-2	-1.221694518E-2
8.217144020E-1	-9.773556143E-3	-1.236965694E-2	-1.557660475E-2
8.301174230E-1	-9.773556143E-3	-1.206423342E-2	-1.924168877E-2
8.385204440E-1	-8.704573847E-3	-9.926267900E-3	-2.107422985E-2
8.469234650E-1	-9.009997360E-3	-8.704573847E-3	-2.351761982E-2
8.553264860E-1	-9.773556143E-3	-1.343864016E-2	-2.473931387E-2
8.637295070E-1	-1.099525020E-2	-1.404948719E-2	-2.229592577E-2
8.721325270E-1	-9.926267900E-3	-1.496575773E-2	-2.229592577E-2
8.805355480E-1	-1.206423342E-2	-1.404948719E-2	-2.305948362E-2
8.889385690E-1	-1.435491070E-2	-1.206423342E-2	-2.199050039E-2
8.973415900E-1	-1.588202827E-2	-1.130067464E-2	-1.985253580E-2
9.057446110E-1	-1.588202827E-2	-1.221694518E-2	-1.664558798E-2
9.141476320E-1	-1.710372418E-2	-1.191152167E-2	-1.511846948E-2
9.225506520E-1	-1.603474095E-2	-9.315420873E-3	-1.068982668E-2
9.309536730E-1	-1.404948719E-2	2.596100792E-3	-3.054236295E-3
9.393566940E-1	5.650337320E-3	2.840439789E-2	7.177455351E-3
9.477597150E-1	1.114796288E-2	7.040014863E-2	2.137965336E-2
9.561627360E-1	1.664558798E-2	1.067455560E-1	3.909422457E-2
9.645657570E-1	1.618745178E-2	1.334701329E-1	6.306997687E-2
9.729687770E-1	8.399149403E-3	1.372879148E-1	1.010952219E-1
9.813717980E-1	-4.428642802E-3	1.255291104E-1	1.404948682E-1
9.897748190E-1	-1.618745178E-2	1.130067408E-1	1.823379099E-1
9.981778400E-1	-2.779355086E-2	1.250709742E-1	2.144073844E-1
1.006580861E0	-3.924693540E-2	1.459924877E-1	2.431172132E-1
1.014983882E0	-5.008947477E-2	1.698155403E-1	2.702999115E-1
1.023386902E0	-5.971032009E-2	1.875301152E-1	2.942756712E-1
1.031789923E0	-6.856760383E-2	1.983726472E-1	3.132119179E-1
1.040192944E0	-7.727217674E-2	2.096733153E-1	3.303156495E-1
1.048595965E0	-8.475505561E-2	2.166980654E-1	3.474193811E-1
1.056998986E0	-8.567132801E-2	2.183778882E-1	3.694098890E-1
1.065402007E0	-9.147437662E-2	2.217375487E-1	3.894151151E-1
1.073805027E0	-1.000262350E-1	2.325800955E-1	4.049917459E-1
1.082208048E0	-1.000262350E-1	2.493783981E-1	4.080459774E-1
1.090611069E0	-1.004843712E-1	2.620534599E-1	4.077405334E-1
1.099014090E0	-1.059819981E-1	2.617480457E-1	4.097257853E-1
1.107417111E0	-1.085781008E-1	2.512109280E-1	4.040754735E-1
1.115820132E0	-1.104106456E-1	2.397575527E-1	3.953709006E-1
1.124223152E0	-1.078145429E-1	2.321219593E-1	3.866663277E-1
1.132626173E0	-1.043021679E-1	2.321219593E-1	3.761292100E-1
1.141029194E0	-1.032331884E-1	2.322746664E-1	3.655920923E-1
1.149432215E0	-1.010952219E-1	2.351761907E-1	3.506263196E-1
1.157835236E0	-9.758284688E-2	2.460187376E-1	3.313846290E-1
1.166238257E0	-9.177979827E-2	2.495311052E-1	3.078670204E-1
1.174641277E0	-9.055810422E-2	2.423536479E-1	2.826695740E-1
1.183044298E0	-9.055810422E-2	2.159345001E-1	2.603736520E-1
1.191447319E0	-8.887827396E-2	1.860029846E-1	2.368560284E-1
1.199850340E0	-8.444963396E-2	1.669140160E-1	2.153236568E-1
1.208253361E0	-7.925742865E-2	1.499630064E-1	1.947075576E-1
1.216656382E0	-7.589777559E-2	1.374406368E-1	1.769929975E-1
1.225059402E0	-7.895200700E-2	1.226275861E-1	1.574458778E-1
1.233462423E0	-8.292251825E-2	1.079672500E-1	1.404948682E-1
1.241865444E0	-8.750387281E-2	9.941539168E-2	1.217113137E-1
1.250268465E0	-9.437590092E-2	8.750387281E-2	1.065928489E-1
1.258671486E0	-1.007898003E-1	7.498150319E-2	9.223793447E-2
1.267074507E0	-1.079672500E-1	6.444438547E-2	7.834116369E-2
1.275477527E0	-1.148392856E-1	5.314370990E-2	6.551336497E-2
1.283880548E0	-1.244601309E-1	5.100574717E-2	5.451811850E-2
1.292283569E0	-1.328592747E-1	5.741964281E-2	4.718795046E-2
1.300686590E0	-1.368297935E-1	6.093201414E-2	3.955236077E-2
1.309089611E0	-1.354553849E-1	5.329642445E-2	3.649812192E-2
1.317492632E0	-1.356080920E-1	3.878879920E-2	3.603998944E-2
1.325895652E0	-1.397313178E-1	2.611372061E-2	4.001049697E-2
1.334298673E0	-1.418692768E-1	1.221694518E-2	3.970507160E-2
1.342701694E0	-1.455343664E-1	-1.145338640E-2	3.817795217E-2
1.351104715E0	-1.539335102E-1	-3.985778242E-2	4.260659590E-2
1.359507736E0	-1.624853760E-1	-5.299099907E-2	4.993676394E-2
1.367910757E0	-1.653869003E-1	-3.222219273E-2	5.390727147E-2
1.376313777E0	-1.687465608E-1	-2.137965523E-3	5.329642445E-2
1.384716798E0	-1.774511337E-1	1.557660475E-2	5.421269313E-2
1.393119819E0	-1.919587553E-1	2.473931387E-2	6.047387794E-2
1.401522840E0	-2.090624720E-1	4.092676565E-2	6.948387623E-2
1.409925861E0	-2.255553454E-1	7.757759839E-2	8.124268800E-2
1.418328882E0	-2.399102598E-1	1.282779276E-1	1.029277667E-1
1.426731902E0	-2.486148328E-1	1.908897758E-1	1.220167428E-1
1.435134923E0	-2.576248348E-1	2.391466945E-1	1.392731816E-1
1.443537944E0	-2.695363462E-1	2.531961799E-1	1.621799469E-1
1.451940965E0	-2.797680497E-1	2.472404242E-1	1.933331639E-1
1.460343986E0	-2.901524603E-1	2.153236568E-1	2.220429778E-1
1.468747007E0	-3.052709103E-1	1.769929975E-1	2.483094037E-1
1.477150027E0	-3.223746419E-1	1.499630064E-1	2.764083743E-1
1.485553048E0	-3.290939629E-1	1.299577504E-1	2.964136302E-1
1.493956069E0	-3.376458287E-1	1.049130186E-1	3.151971996E-1
1.502359090E0	-3.397837877E-1	6.505523622E-2	3.350497186E-1
1.510762111E0	-3.313846290E-1	2.779355086E-2	3.585673273E-1
1.519165132E0	-3.419217467E-1	-1.374406368E-2	3.669664860E-1
1.527568152E0	-3.284831047E-1	-4.657710344E-2	3.683409095E-1
1.535971173E0	-2.970244884E-1	-2.733541466E-2	3.614688516E-1
1.544374194E0	-2.661767006E-1	2.748812549E-3	3.484883606E-1
1.552777215E0	-2.547233105E-1	9.926267900E-3	3.318427801E-1
1.561180236E0	-2.643441558E-1	-1.450762246E-2	3.135173619E-1
1.569583257E0	-2.675510943E-1	-6.872031838E-3	3.003841341E-1
1.577986277E0	-2.680092454E-1	3.420744836E-2	2.866400778E-1
1.586389298E0	-2.753393948E-1	5.971032009E-2	2.634278834E-1
1.594792319E0	-2.855710983E-1	5.543438718E-2	2.389939874E-1
1.603195340E0	-2.939702570E-1	5.650337040E-2	2.237228155E-1
1.611598361E0	-3.011476994E-1	5.940489471E-2	2.052446753E-1
1.620001382E0	-3.028275371E-1	6.597150117E-2	1.844758689E-1
1.628404402E0	-2.874036431E-1	6.520794332E-2	1.750077456E-1
1.636807423E0	-2.644968629E-1	6.184828654E-2	1.695101112E-1
1.645210444E0	-2.428117841E-1	4.367557913E-2	1.667613089E-1
1.653613465E0	-2.108950168E-1	3.466558084E-2	1.597365588E-1
1.662016486E0	-1.792836636E-1	3.023693897E-2	1.511846930E-1
1.670419507E0	-1.482831687E-1	-7.635590737E-4	1.479777545E-1
1.678822527E0	-1.304158866E-1	-4.627167806E-2	1.534753740E-1
1.687225548E0	-1.101052165E-1	-6.887302548E-2	1.673721522E-1
1.695628569E0	-9.269607067E-2	-9.162709117E-2	1.812689304E-1
1.704031590E0	-7.375980914E-2	-1.227803007E-1	2.011214644E-1
1.712434611E0	-6.688777357E-2	-1.516428292E-1	2.302894145E-1
1.720837632E0	-6.337540597E-2	-1.524063945E-1	2.640387416E-1
1.729240652E0	-6.245913357E-2	-1.458397806E-1	2.970244884E-1
1.737643673E0	-6.948387623E-2	-1.351499557E-1	3.327590525E-1
1.746046694E0	-7.406523079E-2	-1.217113137E-1	3.672719002E-1
1.754449715E0	-7.391251624E-2	-1.178935245E-1	3.921639323E-1
1.762852736E0	-7.284353673E-2	-1.343863904E-1	4.115583301E-1
1.771255757E0	-7.559234649E-2	-1.539335102E-1	4.225535989E-1
1.779658777E0	-7.055285573E-2	-1.598892659E-1	4.220954478E-1
1.788061798E0	-6.933116168E-2	-1.658450365E-1	4.158342779E-1
1.796464819E0	-7.131642103E-2	-1.592784226E-1	4.049917459E-1
1.804867840E0	-6.734590977E-2	-1.330119967E-1	3.892624080E-1
1.813270861E0	-6.200099736E-2	-1.030804738E-1	3.717005551E-1
1.821673882E0	-5.818320066E-2	-9.116895497E-2	3.536805511E-1
1.830076902E0	-5.741964281E-2	-1.043021679E-1	3.457395434E-1
1.838479923E0	-6.123743951E-2	-1.273616552E-1	3.414636254E-1
1.846882944E0	-6.077930331E-2	-1.462979168E-1	3.309265077E-1
1.855285965E0	-5.405998230E-2	-1.598892659E-1	3.277195692E-1
1.863688986E0	-5.619794875E-2	-1.832541823E-1	3.319954872E-1
1.872092007E0	-5.833591148E-2	-1.870719790E-1	3.333698809E-1
1.880495027E0	-5.848862603E-2	-1.716480851E-1	3.353551328E-1
1.888898048E0	-5.680879578E-2	-1.491994411E-1	3.440597057E-1
1.897301069E0	-5.604523420E-2	-1.178935245E-1	3.524588645E-1
1.905704090E0	-5.085303262E-2	-7.635590434E-2	3.634541333E-1
1.914107111E0	-5.085303262E-2	-5.909947306E-2	3.804051280E-1
1.922510132E0	-5.573981255E-2	-5.451811850E-2	4.046863019E-1
1.930913152E0	-6.077930331E-2	-4.688252881E-2	4.277457893E-1
1.939316173E0	-5.925218388E-2	-4.291202128E-2	4.527905285E-1
1.947719194E0	-6.551336497E-2	-4.688252881E-2	4.737120569E-1
1.956122215E0	-7.131642103E-2	-1.710372418E-2	4.924955964E-1
1.964525236E0	-7.773031294E-2	3.939964995E-2	4.987567961E-1
1.972928257E0	-7.757759839E-2	6.673506647E-2	5.108210444E-1
1.981331277E0	-8.353336155E-2	5.573981255E-2	5.318952799E-1
1.989734298E0	-8.399149776E-2	5.085303262E-2	5.425850749E-1
1.998137319E0	-8.185353130E-2	6.032116711E-2	5.546492934E-1
2.006540340E0	-7.971556485E-2	4.611896724E-2	5.633538961E-1
2.014943361E0	-8.093725890E-2	1.893626526E-2	5.738909841E-1
2.023346382E0	-8.383878320E-2	1.236965694E-2	5.793886185E-1
2.031749402E0	-7.879929990E-2	6.413896102E-3	5.845808387E-1
2.040152423E0	-7.773031294E-2	-1.175880991E-2	5.931326747E-1
2.048555444E0	-6.108472496E-2	-1.496575773E-2	6.048914790E-1
2.056958465E0	-5.100574717E-2	-2.672456764E-2	6.157340407E-1
2.065361486E0	-4.978405312E-2	-4.840964451E-2	6.262711287E-1
2.073764507E0	-4.917320609E-2	-6.352811307E-2	6.392516494E-1
2.082167527E0	-4.596625641E-2	-8.612946421E-2	6.613948941E-1
2.090570548E0	-3.741439432E-2	-9.651386738E-2	6.762079000E-1
2.098973569E0	-3.115320951E-2	-1.015533581E-1	6.859814525E-1
2.107376590E0	-3.115320951E-2	-1.249182671E-1	7.059867382E-1
2.115779611E0	-2.916795574E-2	-1.574458778E-1	7.285880446E-1
2.124182632E0	-2.382304333E-2	-1.756185889E-1	7.495095730E-1
2.132585652E0	-1.099525020E-2	-1.569877416E-1	7.670714259E-1
2.140988673E0	3.054236295E-3	-1.417165697E-1	7.902836204E-1
2.149391694E0	5.192201585E-3	-1.450762302E-1	8.179244995E-1
2.157794715E0	7.024743594E-3	-1.320957243E-1	8.472451568E-1
2.166197736E0	1.466033421E-2	-8.979454637E-2	8.840487003E-1
2.174600757E0	2.565558441E-2	-5.238015205E-2	9.236010313E-1
2.183003777E0	3.390202299E-2	-3.527642787E-2	9.680401683E-1
2.191406798E0	4.474456236E-2	-2.031067200E-2	1.016755223E0
2.199809819E0	6.322269142E-2	-2.611372061E-2	1.055085897E0
2.208212840E0	7.421794534E-2	-6.306997687E-2	1.091278672E0
2.216615861E0	7.696675509E-2	-1.294996142E-1	1.121821046E0
2.225018882E0	8.124268800E-2	-2.105895877E-1	1.148698330E0
2.233421902E0	8.490777016E-2	-3.237490356E-1	1.181225896E0
2.241824923E0	8.231166750E-2	-4.479037523E-1	1.219098449E0
2.250227944E0	7.589777559E-2	-5.578562617E-1	1.267508030E0
2.258630965E0	7.818844914E-2	-6.390989423E-1	1.328287363E0
2.267033986E0	9.376505762E-2	-7.104153633E-1	1.393800735E0
2.275437007E0	1.044548824E-1	-7.576032877E-1	1.478555799E0
2.283840027E0	1.304158866E-1	-7.247702479E-1	1.577513099E0
2.292243048E0	1.681357026E-1	-7.009472251E-1	1.672652483E0
2.300646069E0	2.183778882E-1	-6.329904795E-1	1.769777179E0
2.309049090E0	2.089097649E-1	-5.464028716E-1	1.851630807E0
2.317452111E0	1.641651988E-1	-5.337277651E-1	1.876828194E0
2.325855132E0	1.012479365E-1	-5.537330508E-1	1.982046604E0
2.334258152E0	2.932066843E-2	-5.709894896E-1	2.149876833E0
2.342661173E0	-5.512896553E-2	-5.146388412E-1	2.292204380E0
2.351064194E0	-1.516428292E-1	-4.958552718E-1	2.367796659E0
2.359467215E0	-2.310529798E-1	-4.970769584E-1	2.445679665E0
2.367870236E0	-2.852656841E-1	-5.615213513E-1	2.533030987E0
2.376273257E0	-3.203893900E-1	-5.954233408E-1	2.629850149E0
2.384676277E0	-3.194731176E-1	-5.317425132E-1	2.755379200E0
2.393079298E0	-2.718270421E-1	-3.243598938E-1	2.894805193E0
2.401482319E0	-2.113531530E-1	-1.087308154E-1	3.014989376E0
2.409885340E0	-1.499630064E-1	1.718007922E-1	3.004605055E0
2.418288361E0	-9.132166207E-2	3.156553209E-1	2.863499165E0
2.426691382E0	-1.049130186E-1	1.346918195E-1	2.730792761E0
2.435094402E0	-1.458397806E-1	-1.814216375E-1	2.601140261E0
2.443497423E0	-1.449235082E-1	-4.955498278E-1	2.467364788E0
2.451900444E0	-9.376505762E-2	-8.800781965E-1	2.333283901E0
2.460303465E0	-7.238540053E-2	-1.115559816E0	2.202867985E0
2.468706486E0	-2.657185495E-2	-1.205507040E0	2.115516663E0
2.477109507E0	4.993676394E-2	-1.163205862E0	2.024347782E0
2.485512527E0	1.375933439E-1	-1.154348612E0	1.880951405E0
2.493915548E0	1.760767251E-1	-1.071426034E0	1.690061688E0
2.502318569E0	2.773246467E-1	-7.360709310E-1	1.411209822E0
2.510721590E0	3.293993771E-1	-3.124483824E-1	1.129914761E0
2.519124611E0	3.310792148E-1	7.391251624E-2	8.490777016E-1
2.527527632E0	3.362714052E-1	3.830012381E-1	5.580089688E-1
2.535930652E0	3.585673273E-1	6.343649030E-1	2.577775419E-1
2.544333673E0	3.985778391E-1	8.570187092E-1	-3.955236077E-2
2.552736694E0	4.352286756E-1	1.017060637E0	-3.092414141E-1
2.561139715E0	4.621059597E-1	1.082726717E0	-5.829010010E-1
2.569542736E0	4.950917065E-1	1.046686769E0	-8.764131069E-1
2.577945757E0	5.228852630E-1	9.097042680E-1	-1.162595034E0
2.586348777E0	5.338805318E-1	7.171346545E-1	-1.431825995E0
2.594751798E0	5.360184908E-1	5.442649126E-1	-1.700598717E0
2.603154819E0	5.289937258E-1	3.747547865E-1	-1.964942932E0
2.611557840E0	5.095993280E-1	1.805053651E-1	-2.209281921E0
2.619960861E0	4.703523815E-1	-2.672456764E-2	-2.430103064E0
2.628363882E0	4.231644273E-1	-1.724116355E-1	-2.646953821E0
2.636766902E0	3.749074936E-1	-2.473931462E-1	-2.871440172E0
2.645169923E0	3.202366829E-1	-2.373141646E-1	-3.101118803E0
2.653572944E0	2.744231224E-1	-1.620272398E-1	-3.335226059E0
2.661975965E0	2.463241518E-1	-8.521319181E-2	-3.557574511E0
2.670378986E0	2.238755226E-1	-5.711421743E-2	-3.755183458E0
2.678782007E0	1.940967143E-1	-9.559759498E-2	-3.933245420E0
2.687185027E0	1.650814712E-1	-1.435490996E-1	-4.105962753E0
2.695588048E0	1.351499557E-1	-1.707318127E-1	-4.274403572E0
2.703991069E0	9.407047927E-2	-2.079934925E-1	-4.418716431E0
2.712394090E0	5.604523420E-2	-2.437280566E-1	-4.537678719E0
2.720797111E0	3.023693897E-2	-2.425063550E-1	-4.652060032E0
2.729200132E0	3.359660041E-3	-2.348707765E-1	-4.761707306E0
2.737603152E0	-2.626643144E-2	-2.194468826E-1	-4.879142284E0
2.746006173E0	-6.200099736E-2	-2.264716178E-1	-5.016736031E0
2.754409194E0	-1.024696305E-1	-3.057290614E-1	-5.170363903E0
2.762812215E0	-1.594311297E-1	-4.761554301E-1	-5.305513859E0
2.771215236E0	-2.095206082E-1	-6.861341596E-1	-5.385229588E0
2.779618257E0	-2.541124523E-1	-8.602256775E-1	-5.426156044E0
2.788021277E0	-3.016058207E-1	-9.665130973E-1	-5.466319561E0
2.796424298E0	-3.335226178E-1	-1.000415087E0	-5.515645504E0
2.804827319E0	-3.489464819E-1	-9.930849075E-1	-5.542828083E0
2.813230340E0	-3.403946459E-1	-9.877400398E-1	-5.505566120E0
2.821633361E0	-3.074088693E-1	-9.440644383E-1	-5.429515839E0
2.830036382E0	-2.451024652E-1	-8.170081973E-1	-5.312080383E0
2.838439402E0	-1.533226669E-1	-5.508314967E-1	-5.154940128E0
2.846842423E0	-4.963133857E-2	-1.621799469E-1	-4.948473454E0
2.855245444E0	8.857285231E-2	2.144073844E-1	-4.675577641E0
2.863648465E0	2.626643181E-1	5.867187977E-1	-4.339153290E0
2.872051486E0	3.014531136E-1	9.973608851E-1	-3.879643679E0
2.880454507E0	2.706053257E-1	1.250404358E0	-3.374014854E0
2.888857527E0	1.858502775E-1	1.317597508E0	-2.852504015E0
2.897260548E0	-6.688777357E-2	9.768974781E-1	-2.137812614E0
2.905663569E0	-3.368822634E-1	2.090624720E-1	-1.273921967E0
2.914066590E0	-5.037962794E-1	-6.702521443E-1	-2.455606014E-1
2.922469611E0	-5.123481154E-1	-1.126096964E0	7.973083854E-1
2.930872632E0	-4.216373265E-1	-9.889616966E-1	1.643179178E0
2.939275652E0	-3.408527672E-1	-4.286620617E-1	2.245779991E0
2.947678673E0	-3.093941510E-1	3.213056624E-1	2.665584803E0
2.956081694E0	-3.510844707E-1	1.012784719E0	3.014073133E0
2.964484715E0	-4.225535989E-1	1.673874259E0	3.288038015E0
2.972887736E0	-4.854708612E-1	2.434684515E0	3.340570927E0
2.981290757E0	-6.224533319E-1	3.304378271E0	3.119444132E0
2.989693777E0	-3.110739589E-1	4.001966000E0	2.777675152E0
2.998096798E0	1.539335102E-1	4.741854668E0	1.727476001E0
3.006499819E0	3.052709103E-1	3.975852013E0	4.645493329E-1
3.014902840E0	-2.425063550E-1	1.111589313E0	3.907895386E-1
3.023305861E0	-1.062568784E0	-9.582666159E-1	1.660588264E0
3.031708882E0	-1.324164152E0	-2.526922464E0	2.686200857E0
3.040111902E0	-1.052031636E0	-3.531613350E0	2.668180943E0
3.048514923E0	-8.889354467E-1	-2.837385416E0	1.813758254E0
3.056917944E0	-6.300889254E-1	-3.158080280E-1	1.109756708E0
3.065320965E0	-1.588202864E-1	2.152014971E0	8.971819282E-1
3.073723986E0	-3.619270027E-2	2.707275152E0	8.199097514E-1
3.082127007E0	-2.394521236E-1	2.064052820E0	6.578825116E-1
3.090530027E0	-4.775298536E-1	1.083032131E0	5.913001299E-1
3.098933048E0	-6.465818286E-1	3.237490356E-1	8.005153537E-1
3.107336069E0	-6.594096422E-1	2.535016090E-2	9.648332596E-1
3.115739090E0	-5.609105229E-1	8.200624585E-2	8.182299137E-1
3.124142111E0	-4.459185004E-1	3.185568452E-1	6.232169271E-1
3.132545132E0	-3.168770075E-1	5.340332389E-1	6.061131954E-1
3.140948152E0	-2.215848416E-1	6.759024858E-1	6.699467301E-1
3.149351173E0	-1.939440072E-1	6.783458591E-1	6.972821355E-1
3.157754194E0	-1.872246861E-1	5.421269536E-1	6.983511448E-1
3.166157215E0	-2.241809368E-1	3.362714052E-1	7.492041588E-1
3.174560236E0	-2.828222811E-1	1.580567211E-1	8.083036542E-1
3.182963257E0	-3.336753249E-1	4.291202128E-2	8.338065147E-1
3.191366277E0	-3.332171738E-1	-1.481304597E-2	8.229639530E-1
3.199769298E0	-2.852656841E-1	7.757759839E-2	8.054021001E-1
3.208172319E0	-2.298312783E-1	1.798945218E-1	7.994463444E-1
3.216575340E0	-1.989834905E-1	1.493521482E-1	8.066238165E-1
3.224978361E0	-1.995943487E-1	2.809897438E-2	8.260182142E-1
3.233381382E0	-2.122694254E-1	-1.090362370E-1	8.547280431E-1
3.241784402E0	-2.357870489E-1	-1.989834905E-1	8.788564801E-1
3.250187423E0	-2.286095917E-1	-2.029540092E-1	8.771766424E-1
3.258590444E0	-2.150182426E-1	-1.510319859E-1	8.619054556E-1
3.266993465E0	-2.049392611E-1	-1.102579311E-1	8.554915786E-1
3.275396486E0	-1.994416267E-1	-1.282779276E-1	8.553388715E-1
3.283799507E0	-2.060082406E-1	-1.789782494E-1	8.541171551E-1
3.292202527E0	-2.177670449E-1	-2.148655206E-1	8.570187092E-1
3.300605548E0	-2.258607745E-1	-2.470877171E-1	8.550334573E-1
3.309008569E0	-2.188360244E-1	-2.438807636E-1	8.391514421E-1
3.317411590E0	-2.037175596E-1	-2.002051920E-1	8.228112459E-1
3.325814611E0	-1.841704547E-1	-1.510319859E-1	8.063184023E-1
3.334217632E0	-1.696628332E-1	-1.250709742E-1	7.911999226E-1
3.342620652E0	-1.569877416E-1	-1.375933439E-1	7.902836204E-1
3.351023673E0	-1.487413049E-1	-1.531699449E-1	7.934905887E-1
3.359426694E0	-1.411057115E-1	-1.623326540E-1	8.012788892E-1
3.367829715E0	-1.372879148E-1	-1.600419879E-1	8.112051487E-1
3.376232736E0	-1.270562261E-1	-1.276670843E-1	8.095253110E-1
3.384635757E0	-1.230857223E-1	-1.368297935E-1	8.197570443E-1
3.393038777E0	-1.348445266E-1	-1.748550236E-1	8.344173431E-1
3.401441798E0	-1.469087601E-1	-2.098260373E-1	8.423583508E-1
3.409844819E0	-1.427855492E-1	-2.066190839E-1	8.484668136E-1
3.418247840E0	-1.383569092E-1	-1.908897758E-1	8.614473343E-1
3.426650861E0	-1.363716573E-1	-1.534753740E-1	8.794673681E-1
3.435053882E0	-1.255291104E-1	-1.078145429E-1	9.006943107E-1
3.443456902E0	-1.151447073E-1	-8.215895295E-2	9.144383669E-1
3.451859923E0	-1.157555580E-1	-7.253811508E-2	9.213103652E-1
3.460262944E0	-1.139230132E-1	-5.573981255E-2	9.313893318E-1
3.468665965E0	-1.085781008E-1	-4.932591692E-2	9.649859667E-1
3.477068986E0	-1.127013192E-1	-5.864133686E-2	9.976662993E-1
3.485472007E0	-1.233911440E-1	-6.566607952E-2	1.033859015E0
3.493875027E0	-1.175880954E-1	-4.367557913E-2	1.082421303E0
3.502278048E0	-9.926267713E-2	-1.084253844E-2	1.123806238E0
3.510681069E0	-9.208522737E-2	9.926267900E-3	1.158471823E0
3.519084090E0	-1.067455560E-1	-2.626643144E-2	1.197260618E0
3.527487111E0	-1.334701329E-1	-1.130067408E-1	1.239256382E0
3.535890132E0	-1.594311297E-1	-1.971509457E-1	1.280183196E0
3.544293152E0	-1.740914732E-1	-2.585411072E-1	1.308892965E0
3.552696173E0	-1.728697717E-1	-2.939702570E-1	1.335312128E0
3.561099194E0	-1.647760421E-1	-3.203893900E-1	1.355470061E0
3.569502215E0	-1.557660550E-1	-3.500154912E-1	1.361731291E0
3.577905236E0	-1.437018216E-1	-3.999522328E-1	1.370893955E0
3.586308257E0	-1.455343664E-1	-4.408790171E-1	1.389066696E0
3.594711277E0	-1.414111406E-1	-4.624113739E-1	1.394564271E0
3.603114298E0	-1.325538605E-1	-4.989095032E-1	1.395785928E0
3.611517319E0	-1.243074164E-1	-5.633538961E-1	1.392426372E0
3.619920340E0	-1.036913246E-1	-6.212316751E-1	1.381889224E0
3.628323361E0	-7.711946964E-2	-6.707102656E-1	1.371962905E0
3.636726382E0	-5.024218559E-2	-7.372926474E-1	1.360662222E0
3.645129402E0	-4.046862945E-2	-8.617527485E-1	1.356233597E0
3.653532423E0	-3.390202299E-2	-1.020878434E0	1.362494826E0
3.661935444E0	-3.359659761E-2	-1.203521848E0	1.369519591E0
3.670338465E0	-3.069507517E-2	-1.387386799E0	1.379598498E0
3.678741486E0	-1.954711229E-2	-1.516275644E0	1.403116107E0
3.687144507E0	-1.679829881E-2	-1.653716207E0	1.462215662E0
3.695547527E0	-3.878879920E-2	-1.811467528E0	1.519635320E0
3.703950548E0	-8.139539510E-2	-1.996248841E0	1.550177574E0
3.712353569E0	-1.513374150E-1	-2.140866995E0	1.603779435E0
3.720756590E0	-2.533488870E-1	-2.229745150E0	1.740151167E0
3.729159611E0	-3.813214004E-1	-2.367949486E0	1.957307339E0
3.737562632E0	-4.581354558E-1	-2.589381456E0	2.205158710E0
3.745965652E0	-6.087092757E-1	-2.896179676E0	2.402615070E0
3.754368673E0	-7.113316059E-1	-2.966579676E0	2.453315258E0
3.762771694E0	-7.061394453E-1	-2.792946339E0	2.430103064E0
3.771174715E0	-6.571189165E-1	-2.530892849E0	2.538070440E0
3.779577736E0	-6.038225293E-1	-2.542499065E0	2.806843042E0
3.787980757E0	-5.541911721E-1	-2.689713240E0	3.074699640E0
3.796383777E0	-4.854708612E-1	-2.615495205E0	3.227564096E0
3.804786798E0	-4.391991794E-1	-2.393604994E0	3.231687307E0
3.813189819E0	-3.941491842E-1	-2.040840626E0	3.144489050E0
3.821592840E0	-3.153499067E-1	-1.714953661E0	3.060802937E0
3.829995861E0	-1.389677525E-1	-1.411362648E0	3.034078360E0
3.838398882E0	1.030804738E-1	-1.053711534E0	3.037132502E0
3.846801902E0	3.356605768E-1	-6.415423155E-1	3.048280478E0
3.855204923E0	5.154023767E-1	-1.629435122E-1	3.051029444E0
3.863607944E0	6.061131954E-1	2.385358512E-1	2.943672895E0
3.872010965E0	6.137487888E-1	5.282301903E-1	2.693683624E0
3.880413986E0	6.294780970E-1	7.214106321E-1	2.404142141E0
3.888817007E0	6.836907864E-1	8.761076927E-1	2.193094254E0
3.897220027E0	7.279772162E-1	8.962656260E-1	2.024500608E0
3.905623048E0	7.437065244E-1	7.976137996E-1	1.753437042E0
3.914026069E0	7.052231431E-1	6.817055345E-1	1.401741743E0
3.922429090E0	6.974348426E-1	6.510104537E-1	1.083948493E0
3.930832111E0	7.400414348E-1	6.517740488E-1	8.025006056E-1
3.939235132E0	7.528692484E-1	6.675033569E-1	5.369347334E-1
3.947638152E0	7.704311013E-1	7.539382577E-1	3.110739589E-1
3.956041173E0	7.876875401E-1	7.733326554E-1	1.470614821E-1
3.964444194E0	7.878402472E-1	7.401941419E-1	-2.076880634E-2
3.972847215E0	8.003626466E-1	7.832589149E-1	-2.487675399E-1
3.981250236E0	7.974610925E-1	8.351809382E-1	-4.607315361E-1
3.989653257E0	7.617265582E-1	9.959864616E-1	-6.233696342E-1
3.998056277E0	6.992673874E-1	1.297897696E0	-8.151756525E-1
4.006459298E0	6.287145615E-1	1.580414534E0	-1.109298587E0
4.014862319E0	5.589252710E-1	1.643637300E0	-1.452136636E0
4.023265340E0	5.073086619E-1	1.488023877E0	-1.755116940E0
4.031668361E0	4.766135812E-1	1.196802497E0	-2.000830173E0
4.040071382E0	4.573718905E-1	8.588512540E-1	-2.226538181E0
4.048474402E0	4.486673176E-1	5.540384650E-1	-2.433920860E0
4.056877423E0	4.437805414E-1	3.269560039E-1	-2.620382071E0
4.065280444E0	4.167505503E-1	1.117850468E-1	-2.812798977E0
4.073683465E0	3.587200642E-1	-9.177979827E-2	-3.032398462E0
4.082086486E0	2.867927849E-1	-1.417165697E-1	-3.280555248E0
4.090489507E0	2.570139766E-1	-1.024696305E-1	-3.528253794E0
4.098892527E0	2.483094037E-1	4.062134400E-2	-3.748158693E0
4.107295548E0	2.336490750E-1	2.145601064E-1	-3.960886240E0
4.115698569E0	2.121167034E-1	2.867927849E-1	-4.137879372E0
4.124101590E0	1.780619770E-1	3.153499067E-1	-4.271044254E0
4.132504611E0	1.473668963E-1	3.381039500E-1	-4.390312195E0
4.140907632E0	1.203369126E-1	3.249707520E-1	-4.513855934E0
4.149310652E0	9.009996802E-2	3.280249834E-1	-4.633123875E0
4.157713673E0	7.574506104E-2	3.556658030E-1	-4.741702080E0
4.166116694E0	6.933116168E-2	3.707842827E-1	-4.832107067E0
4.174519715E0	6.062658876E-2	3.933856487E-1	-4.887388706E0
4.182922736E0	6.261184067E-2	4.059080184E-1	-4.920832634E0
4.191325757E0	5.451811850E-2	3.782671690E-1	-4.988636971E0
4.199728777E0	2.809897438E-2	3.669664860E-1	-5.078736782E0
4.208131798E0	1.832541823E-2	3.521534503E-1	-5.134171009E0
4.216534819E0	1.298050396E-2	2.680092454E-1	-5.171127319E0
4.224937840E0	9.773556143E-3	2.006633282E-1	-5.182886124E0
4.233340861E0	3.298575059E-2	1.736333370E-1	-5.141043186E0
4.241743882E0	7.162184268E-2	1.287360638E-1	-5.068047047E0
4.250146902E0	7.834116369E-2	5.909947306E-2	-4.975198269E0
4.258549923E0	5.864133686E-2	8.368607610E-2	-4.858221054E0
4.266952944E0	4.902049154E-2	2.466295809E-1	-4.723834515E0
4.275355965E0	7.666133344E-2	4.734066129E-1	-4.575551510E0
4.283758986E0	1.159082651E-1	6.255075932E-1	-4.396114826E0
4.292162007E0	1.302631795E-1	6.725428104E-1	-4.191022873E0
4.300565027E0	1.255291104E-1	6.769714952E-1	-3.977837324E0
4.308968048E0	1.333174109E-1	6.891884208E-1	-3.754420042E0
4.317371069E0	1.948602796E-1	7.482879162E-1	-3.471597672E0
4.325774090E0	2.483094037E-1	7.655443549E-1	-3.169533730E0
4.334177111E0	2.531961799E-1	8.136485219E-1	-2.884420872E0
4.342580132E0	2.634278834E-1	8.942803741E-1	-2.583425760E0
4.350983152E0	2.670929730E-1	8.771766424E-1	-2.199661016E0
4.359386173E0	2.038702667E-1	7.747070193E-1	-1.813758254E0
4.367789194E0	1.102579311E-1	7.823426127E-1	-1.490620017E0
4.376192215E0	7.711946964E-2	8.079982400E-1	-1.115407109E0
4.384595236E0	3.878879920E-2	6.464291215E-1	-6.345176101E-1
4.392998257E0	-2.504473738E-2	3.701734245E-1	-1.354553849E-1
4.401401277E0	-1.079672500E-1	1.502684206E-1	3.000787199E-1
4.409804298E0	-1.827960461E-1	6.597150117E-2	7.114843726E-1
4.418207319E0	-2.782409191E-1	5.848862603E-2	1.155722976E0
4.426610340E0	-3.880407214E-1	1.221694499E-1	1.531241417E0
4.435013361E0	-4.778352678E-1	3.689517379E-1	1.580414534E0
4.443416382E0	-4.993676245E-1	6.919372082E-1	1.308892965E0
4.451819402E0	-3.884988427E-1	6.824691296E-1	7.348492742E-1
4.460222423E0	-1.695101112E-1	3.933856487E-1	1.223221645E-1
4.468625444E0	-3.394783735E-1	-1.583621502E-1	4.776825607E-1
4.477028465E0	-7.696675658E-1	-1.304006219E0	1.645164371E0
4.485431486E0	-8.319739699E-1	-2.101772785E0	2.192483425E0
4.493834507E0	-6.809419990E-1	-1.315459609E0	1.333174109E0
4.502237527E0	-4.291202128E-1	5.099047422E-1	6.562026739E-1
4.510640548E0	-2.574721277E-1	1.503753185E0	7.568397522E-1
4.519043569E0	-3.243598938E-1	1.169161677E0	8.327375054E-1
4.527446590E0	-3.889569938E-1	3.855973184E-1	7.459971905E-1
4.535849611E0	-3.353551328E-1	-2.376195788E-1	7.412631512E-1
4.544252632E0	-2.971771955E-1	-4.958552718E-1	8.405258060E-1
4.552655652E0	-3.190149665E-1	-4.656183124E-1	8.148702383E-1
4.561058673E0	-3.614688516E-1	-3.784198761E-1	6.609367132E-1
4.569461694E0	-4.069769979E-1	-3.002314270E-1	5.489989519E-1
4.577864715E0	-4.318690002E-1	-1.801999360E-1	5.120427012E-1
4.586267736E0	-4.327852726E-1	-1.588202827E-2	4.501944184E-1
4.594670757E0	-4.436278343E-1	1.180462316E-1	3.926220834E-1
4.603073777E0	-4.530959427E-1	1.560714692E-1	3.907895386E-1
4.611476798E0	-4.364503622E-1	7.024743408E-2	4.066715539E-1
4.619879819E0	-4.098785222E-1	-5.818320066E-2	4.251496792E-1
4.628282840E0	-3.666610718E-1	-1.488940120E-1	4.492781460E-1
4.636685861E0	-3.002314270E-1	-1.762294322E-1	4.752391577E-1
4.645088882E0	-2.330382317E-1	-1.530172378E-1	4.869979918E-1
4.653491902E0	-1.918060333E-1	-1.165191159E-1	4.920374751E-1
4.661894923E0	-1.769929975E-1	-9.116895497E-2	5.001311898E-1
4.670297944E0	-1.782146841E-1	-7.528692484E-2	5.222744346E-1
4.678700965E0	-1.795890927E-1	-6.322269142E-2	5.447230339E-1
4.687103986E0	-1.693574041E-1	-6.230641901E-2	5.635066032E-1
4.695507007E0	-1.479777545E-1	-6.597150117E-2	5.859552622E-1
4.703910027E0	-1.346918195E-1	-7.650861889E-2	5.799994469E-1
4.712313048E0	-1.330119967E-1	-1.333174109E-1	5.998520255E-1
4.720716069E0	-1.288887709E-1	-1.517955512E-1	6.303943992E-1
4.729119090E0	-1.331647038E-1	-1.644706279E-1	6.416950226E-1
4.737522111E0	-1.378987730E-1	-1.316375881E-1	6.491779089E-1
4.745925132E0	-1.293469071E-1	-7.269082218E-2	6.606312990E-1
4.754328152E0	-1.007898003E-1	-2.153236605E-2	6.704048514E-1
4.762731173E0	-7.467607409E-2	-1.603474095E-2	6.873558760E-1
4.771134194E0	-7.024743408E-2	-5.329642445E-2	7.081246972E-1
4.779537215E0	-7.620319724E-2	-1.085781008E-1	7.223268747E-1
4.787940236E0	-7.482878864E-2	-1.270562261E-1	7.209524512E-1
4.796343257E0	-8.979454637E-2	-1.455343664E-1	7.163711190E-1
4.804746277E0	-1.145338640E-1	-1.537808031E-1	7.145385742E-1
4.813149298E0	-1.325538605E-1	-1.018587798E-1	7.072083950E-1
4.821552319E0	-1.325538605E-1	-1.527118124E-2	6.980457306E-1
4.829955340E0	-1.230857223E-1	3.252761811E-2	6.969767213E-1
4.838358361E0	-1.113269106E-1	3.191677108E-2	7.079719901E-1
4.846761382E0	-1.007898003E-1	-3.359660041E-3	7.261446714E-1
4.855164402E0	-9.162709117E-2	-5.757235363E-2	7.495095730E-1
4.863567423E0	-9.025268257E-2	-8.689302206E-2	7.698202729E-1
4.871970444E0	-9.254335612E-2	-8.979454637E-2	7.777612805E-1
4.880373465E0	-8.506047726E-2	-9.926267713E-2	7.779139876E-1
4.888776486E0	-7.574506104E-2	-1.169772521E-1	7.782194018E-1
4.897179507E0	-7.223268598E-2	-1.296523362E-1	7.834116220E-1
4.905582527E0	-7.895200700E-2	-1.218640283E-1	7.889092565E-1
4.913985548E0	-9.254335612E-2	-9.284878522E-2	8.040276766E-1
4.922388569E0	-1.116323397E-1	-6.093201414E-2	8.232693672E-1
4.930791590E0	-1.243074164E-1	-3.512371704E-2	8.399149776E-1
4.939194611E0	-1.214058921E-1	-1.725643501E-2	8.568660021E-1
4.947597632E0	-1.107160673E-1	-2.748812735E-2	8.765658140E-1
4.956000652E0	-1.081199646E-1	-6.719319522E-2	8.932114244E-1
4.964403673E0	-1.120904684E-1	-1.003316641E-1	9.084826112E-1
4.972806694E0	-1.151447073E-1	-1.404948682E-1	9.206995368E-1
4.981209715E0	-1.212531775E-1	-1.896680743E-1	9.384140968E-1
4.989612736E0	-1.165191159E-1	-2.276933193E-1	9.503256083E-1
4.998015757E0	-1.007898003E-1	-2.431172132E-1	9.602518678E-1
5.006418777E0	-8.826743066E-2	-2.732014358E-1	9.736905098E-1
5.014821798E0	-8.918370306E-2	-3.162661791E-1	9.959864616E-1
5.023224819E0	-9.223793447E-2	-3.616215885E-1	1.031262875E0
5.031627840E0	-8.811471611E-2	-3.923166394E-1	1.074327588E0
5.040030861E0	-7.223268598E-2	-3.921639323E-1	1.115559816E0
5.048433882E0	-5.772506446E-2	-3.504736125E-1	1.156639338E0
5.056836902E0	-5.131116882E-2	-3.376458287E-1	1.207186937E0
5.065239923E0	-4.627167806E-2	-3.558185399E-1	1.271020412E0
5.073642944E0	-4.963133857E-2	-3.382566571E-1	1.327981949E0
5.082045965E0	-5.299099907E-2	-2.786990702E-1	1.396702290E0
5.090448986E0	-4.291202128E-2	-1.829487532E-1	1.452747464E0
5.098852007E0	-2.473931387E-2	-9.040539712E-2	1.495659471E0
5.107255027E0	-8.551862091E-3	-3.527642787E-2	1.548345089E0
5.115658048E0	1.328592747E-2	9.162708884E-4	1.610193372E0
5.124061069E0	3.359659761E-2	4.734066315E-3	1.665627718E0
5.132464090E0	5.054761097E-2	-1.511846948E-2	1.711593986E0
5.140867111E0	4.764608666E-2	-5.803048983E-2	1.768097401E0
5.149270132E0	5.238015205E-2	-8.567132801E-2	1.838497519E0
5.157673152E0	5.818320066E-2	-1.954711229E-1	1.901872993E0
5.166076173E0	8.307522535E-2	-2.973299026E-1	1.986628056E0
5.174479194E0	1.172826737E-1	-3.552076817E-1	2.080698490E0
5.182882215E0	9.407047927E-2	-4.445441067E-1	2.131551504E0
5.191285236E0	2.168507688E-2	-5.839699507E-1	2.176295996E0
5.199688257E0	-4.046862945E-2	-7.485933304E-1	2.290066481E0
5.208091277E0	-1.162136942E-1	-9.303203821E-1	2.445832491E0
5.216494298E0	-1.779092699E-1	-9.813261032E-1	2.526006222E0
5.224897319E0	-2.177670449E-1	-1.044854283E0	2.603125572E0
5.233300340E0	-2.771719396E-1	-1.222763538E0	2.700861216E0
5.241703361E0	-3.052709103E-1	-1.473974466E0	2.783020020E0
5.250106382E0	-2.970244884E-1	-1.744885206E0	2.900913715E0
5.258509402E0	-2.493783981E-1	-1.805817246E0	3.064162493E0
5.266912423E0	-1.847812980E-1	-1.612178683E0	3.270018101E0
5.275315444E0	-1.291942000E-1	-1.387539506E0	3.559712410E0
5.283718465E0	-9.407047927E-2	-8.797727823E-1	3.684478045E0
5.292121486E0	-8.796200156E-2	1.004843712E-1	3.498933077E0
5.300524507E0	-8.047912270E-2	1.054322362E0	3.144336224E0
5.308927527E0	-7.391251624E-2	1.361425877E0	2.721629858E0
5.317330548E0	-1.637070626E-1	9.410101771E-1	2.243183851E0
5.325733569E0	-1.550024897E-1	2.260134928E-2	1.770082593E0
5.334136590E0	-6.887302548E-2	-1.066386580E0	1.298355818E0
5.342539611E0	1.817270555E-2	-1.627602577E0	1.019962192E0
5.350942632E0	1.688992679E-1	-1.949060917E0	9.721634388E-1
5.359345652E0	3.043546379E-1	-1.998234153E0	8.286142945E-1
5.367748673E0	3.559712470E-1	-1.869039893E0	4.075878263E-1
5.376151694E0	4.257605374E-1	-1.631114841E0	-3.512371704E-2
5.384554715E0	5.074613690E-1	-1.223068953E0	-3.286358118E-1
5.392957736E0	5.673243999E-1	-6.230642200E-1	-5.845808387E-1
5.401360757E0	6.291726828E-1	2.901524492E-2	-9.294040799E-1
5.409763777E0	6.777350307E-1	6.026008129E-1	-1.336533785E0
5.418166798E0	6.919372082E-1	1.038134933E0	-1.713884711E0
5.426569819E0	6.635328531E-1	1.291789293E0	-2.008007765E0
5.434972840E0	6.282563806E-1	1.429077148E0	-2.257080555E0
5.443375861E0	5.998520255E-1	1.465880752E0	-2.497143507E0
5.451778882E0	5.801522136E-1	1.417776465E0	-2.735068560E0
5.460181902E0	5.606050491E-1	1.292858243E0	-2.953140974E0
5.468584923E0	5.335750580E-1	1.102732062E0	-3.141587496E0
5.476987944E0	4.999784827E-1	8.527427912E-1	-3.312166452E0
5.485390965E0	4.570664763E-1	5.505260825E-1	-3.474193811E0
5.493793986E0	4.052971601E-1	2.651077211E-1	-3.633777618E0
5.502197007E0	3.643703759E-1	5.238015205E-2	-3.799469948E0
5.510600027E0	3.210002482E-1	-1.408002973E-1	-3.948669434E0
5.519003048E0	2.506000996E-1	-3.407000601E-1	-4.060454369E0
5.527406069E0	1.583621502E-1	-4.946335554E-1	-4.136657715E0
5.535809090E0	5.757235363E-2	-5.848862529E-1	-4.205683231E0
5.544212111E0	-4.291202128E-2	-5.740436912E-1	-4.285551548E0
5.552615132E0	-1.308740228E-1	-4.370612204E-1	-4.393366337E0
5.561018152E0	-1.910424829E-1	-2.443388999E-1	-4.508358002E0
5.569421173E0	-2.292204350E-1	-6.704048812E-2	-4.617852688E0
5.577824194E0	-2.570139766E-1	6.444438547E-2	-4.716504574E0
5.586227215E0	-2.651077211E-1	1.438545287E-1	-4.794387341E0
5.594630236E0	-2.661767006E-1	2.208212912E-1	-4.855319500E0
5.603033257E0	-2.452551723E-1	2.460187376E-1	-4.884487629E0
5.611436277E0	-2.153236568E-1	2.425063550E-1	-4.902049065E0
5.619839298E0	-2.072299272E-1	2.023431510E-1	-4.935187817E0
5.628242319E0	-2.145601064E-1	1.400367320E-1	-4.941906929E0
5.636645340E0	-2.163926363E-1	1.163664013E-1	-4.926941395E0
5.645048361E0	-2.220429778E-1	7.925742865E-2	-4.878378868E0
5.653451382E0	-2.250972092E-1	-2.260134928E-2	-4.780337811E0
5.661854402E0	-1.847812980E-1	-1.296523362E-1	-4.633123875E0
5.670257423E0	-8.918370306E-2	-2.438807636E-1	-4.421312332E0
5.678660444E0	2.993151546E-2	-3.536805511E-1	-4.178500652E0
5.687063465E0	1.586675793E-1	-2.418955117E-1	-3.910033226E0
5.695466486E0	2.696890533E-1	9.620844387E-3	-3.557879925E0
5.703869507E0	3.370349705E-1	2.342599183E-1	-3.202366829E0
5.712272527E0	2.942756712E-1	3.888042867E-1	-2.894041538E0
5.720675548E0	1.988307834E-1	3.961344361E-1	-2.556090355E0
5.729078569E0	7.696675509E-2	1.780619770E-1	-2.126817465E0
5.737481590E0	-5.497625470E-2	-1.739387512E-1	-1.592326045E0
5.745884611E0	-1.543916464E-1	-6.387935281E-1	-9.787300229E-1
5.754287632E0	-1.554606259E-1	-8.919897079E-1	-3.503209054E-1
5.762690652E0	-5.176930502E-2	-7.566870451E-1	2.999260128E-1
5.771093673E0	4.092676565E-2	-5.028799772E-1	8.933641315E-1
5.779496694E0	2.183778957E-2	-3.523061574E-1	1.294996142E0
5.787899715E0	-5.757235363E-2	-2.489202619E-1	1.542694807E0
5.796302736E0	-9.804098308E-2	-1.481304597E-2	1.788255334E0
5.804705757E0	-1.838650256E-1	3.474193811E-1	1.977617979E0
5.813108777E0	-3.834593594E-1	9.605573416E-1	1.839872003E0
5.821511798E0	-6.262711287E-1	1.531852245E0	1.104717255E0
5.829914819E0	-3.833066523E-1	1.203979969E0	9.941539168E-2
5.838317840E0	3.985778242E-2	6.849125028E-1	1.082726792E-1
5.846720861E0	-7.653915882E-1	-6.051968932E-1	1.693421364E0
5.855123882E0	-1.210546613E0	-2.486606598E0	2.660239697E0
5.863526902E0	-8.812998533E-1	-2.761182308E0	1.670209169E0
5.871929923E0	-4.795151055E-1	-1.548497826E-1	6.481089592E-1
5.880332944E0	-2.350234836E-1	1.783063173E0	9.932376146E-1
5.888735965E0	-2.055501044E-1	1.987697005E0	1.301104665E0
5.897138986E0	-2.864873707E-1	9.640696645E-1	1.011410356E0
5.905542007E0	-2.153236568E-1	-1.130067408E-1	6.224533319E-1
5.913945027E0	-1.856975704E-1	-5.176930428E-1	8.307522535E-1
5.922348048E0	-2.480039895E-1	-6.158867478E-1	1.351652265E0
5.930751069E0	-2.530434728E-1	-6.145123243E-1	1.494437814E0
5.939154090E0	-2.579302490E-1	-5.370874405E-1	1.152210593E0
5.947557111E0	-3.129065037E-1	-3.341334462E-1	9.161182046E-1
5.955960132E0	-2.979407609E-1	1.068982668E-2	8.974873424E-1
5.964363152E0	-2.278460264E-1	3.173351586E-1	8.521319032E-1
5.972766173E0	-1.690519750E-1	3.787252903E-1	7.266027927E-1
5.981169194E0	-1.162136942E-1	2.087570578E-1	6.670452356E-1
5.989572215E0	-8.429691941E-2	-4.428642616E-2	7.116370797E-1
5.997975236E0	-1.072036922E-1	-2.493783981E-1	7.884510756E-1
6.006378257E0	-1.311794519E-1	-3.617742956E-1	8.234221339E-1
6.014781277E0	-1.354553849E-1	-3.147390485E-1	8.269344568E-1
6.023184298E0	-1.140757278E-1	-1.039967462E-1	8.298360109E-1
6.031587319E0	-7.941014320E-2	8.612946421E-2	8.411366940E-1
6.039990340E0	-3.283303976E-2	2.092151791E-1	8.680139780E-1
6.048393361E0	-8.093725890E-3	2.431172132E-1	9.217684865E-1
6.056796382E0	-1.313321572E-2	1.603474021E-1	1.001025915E0
6.065199402E0	-2.183778957E-2	3.298575059E-2	1.081810474E0
6.073602423E0	-3.726168349E-2	-8.246438205E-2	1.145338655E0
6.082005444E0	-5.405998230E-2	-1.114796251E-1	1.185349107E0
6.090408465E0	-5.176930502E-2	-5.054761097E-2	1.199245930E0
6.098811486E0	-3.680354729E-2	2.061609551E-2	1.198329568E0
6.107214507E0	-2.183778957E-2	5.787777901E-2	1.196649790E0
6.115617527E0	-6.719320081E-3	5.115845799E-2	1.182294846E0
6.124020548E0	5.955760833E-3	3.191677108E-2	1.157555580E0
6.132423569E0	1.878355257E-2	-1.068982761E-3	1.133885264E0
6.140826590E0	2.015795931E-2	-5.390727147E-2	1.120599270E0
6.149229611E0	9.162708884E-4	-9.391776472E-2	1.101052165E0
6.157632632E0	-1.572931744E-2	-1.001789495E-1	1.074327588E0
6.166035652E0	-1.756185852E-2	-7.696675509E-2	1.050962687E0
6.174438673E0	-7.024743594E-3	-4.428642616E-2	1.032331824E0
6.182841694E0	9.620844387E-3	-3.084778599E-2	1.011715770E0
6.191244715E0	2.199050039E-2	-5.940489471E-2	9.987352490E-1
6.199647736E0	2.412846684E-2	-1.252236813E-1	9.998042583E-1
6.208050757E0	1.847812906E-2	-2.018850148E-1	1.010952234E0
6.216453777E0	1.557660475E-2	-2.600682080E-1	1.025307178E0
6.224856798E0	1.771457121E-2	-2.895416021E-1	1.035233378E0
6.233259819E0	1.969982497E-2	-3.235963285E-1	1.045006990E0
6.241662840E0	7.941014133E-3	-3.400892019E-1	1.062110662E0
6.250065861E0	2.443389036E-3	-3.240544796E-1	1.086086392E0
6.258468882E0	-1.527118147E-4	-2.933593988E-1	1.110062122E0
6.266871902E0	9.620844387E-3	-2.383831441E-1	1.131441832E0
6.275274923E0	8.551862091E-3	-2.121167034E-1	1.150378108E0
6.283677944E0	1.206423342E-2	-1.792836636E-1	1.172215939E0
6.292080965E0	6.108472589E-3	-1.730224788E-1	1.196649790E0
6.300483986E0	1.145338640E-2	-2.050919682E-1	1.221083641E0
6.308887007E0	1.664558798E-2	-2.339545041E-1	1.251778722E0
6.317290027E0	1.695101149E-2	-2.898470163E-1	1.282473803E0
6.325693048E0	2.473931387E-2	-3.613161445E-1	1.314085126E0
6.334096069E0	4.352286831E-2	-4.257605374E-1	1.373795509E0
6.342499090E0	6.673506647E-2	-4.294256270E-1	1.468934894E0
6.350902111E0	8.933641016E-2	-3.771981895E-1	1.559493065E0
6.359305132E0	1.084253863E-1	-2.985515893E-1	1.637070656E0
6.367708152E0	1.172826737E-1	-2.174616307E-1	1.725338101E0
6.376111173E0	1.206423342E-1	-1.478250325E-1	1.818186879E0
6.384514194E0	1.404948682E-1	-5.497625470E-2	1.908134103E0
6.392917215E0	1.889045089E-1	8.628217876E-2	2.007396698E0
6.401320236E0	2.415900975E-1	2.221956849E-1	2.091693640E0
6.409723257E0	2.712161839E-1	2.912214398E-1	2.145906448E0
6.418126277E0	2.803788781E-1	2.292204350E-1	2.190956354E0
6.426529298E0	2.776300907E-1	6.765133142E-2	2.257385969E0
6.434932319E0	2.942756712E-1	-3.268032894E-2	2.330229521E0
6.443335340E0	3.246653080E-1	-1.542389393E-1	2.407196283E0
6.451738361E0	3.045073450E-1	-3.445178568E-1	2.457591295E0
6.460141382E0	2.095206082E-1	-6.096255779E-1	2.484163046E0
6.468544402E0	1.009425074E-1	-9.382613897E-1	2.560977221E0
6.476947423E0	-1.511846948E-2	-1.278503299E0	2.723309755E0
6.485350444E0	-1.319430023E-1	-1.631420374E0	2.901982546E0
6.493753465E0	-2.316638231E-1	-1.961888671E0	3.044310093E0
6.502156486E0	-3.216110766E-1	-2.279529333E0	3.129370451E0
6.510559507E0	-3.574983478E-1	-2.444152594E0	3.222219229E0
6.518962527E0	-3.390202224E-1	-2.347333193E0	3.422119141E0
6.527365548E0	-2.649549842E-1	-2.005258799E0	3.710897207E0
6.535768569E0	-1.343863904E-1	-1.512610555E0	3.845741749E0
6.544171590E0	1.588202827E-2	-6.297835112E-1	3.739454269E0
6.552574611E0	1.404948719E-2	7.757759839E-2	3.559406996E0
6.560977632E0	-1.298050396E-2	5.683933496E-1	3.182514191E0
6.569380652E0	1.517955512E-1	5.086830258E-1	2.500197887E0
6.577783673E0	3.471139669E-1	-1.895153672E-1	1.928902984E0
6.586186694E0	3.804051280E-1	-6.922426820E-1	1.603474021E0
6.594589715E0	3.492519259E-1	-8.426637650E-1	1.497797489E0
6.602992736E0	4.385883212E-1	-7.860077024E-1	1.391204596E0
6.611395757E0	5.095993280E-1	-6.705575585E-1	1.142742515E0
6.619798777E0	5.853443742E-1	-4.851654470E-1	7.947123051E-1
6.628201798E0	7.069029808E-1	-1.156028435E-1	4.485146105E-1
6.636604819E0	7.463026643E-1	2.220429778E-1	1.432436854E-1
6.645007840E0	7.201889157E-1	5.132644176E-1	-1.702736765E-1
6.653410861E0	6.812474132E-1	7.973083854E-1	-5.346440673E-1
6.661813882E0	6.277982593E-1	9.865183234E-1	-9.179506898E-1
6.670216902E0	5.807630420E-1	1.119224906E0	-1.275143623E0
6.678619923E0	5.486935377E-1	1.223221660E0	-1.595991135E0
6.687022944E0	5.147915483E-1	1.175422788E0	-1.878355265E0
6.695425965E0	4.534013867E-1	9.347490072E-1	-2.154458284E0
6.703828986E0	3.834593594E-1	6.838434935E-1	-2.439265728E0
6.712232007E0	3.292466700E-1	4.813476503E-1	-2.687727928E0
6.720635027E0	2.719797492E-1	2.951919436E-1	-2.844563007E0
6.729038048E0	2.029540092E-1	1.635543555E-1	-2.955584526E0
6.737441069E0	1.385096163E-1	1.861557066E-1	-3.086000443E0
6.745844090E0	9.636115283E-2	3.258870244E-1	-3.269101858E0
6.754247111E0	7.941014320E-2	4.802786708E-1	-3.473124743E0
6.762650132E0	5.100574717E-2	5.483881235E-1	-3.657906055E0
6.771053152E0	-3.512371797E-3	4.618005157E-1	-3.810617924E0
6.779456173E0	-9.009996802E-2	2.896943092E-1	-3.907284498E0
6.787859194E0	-1.736333370E-1	2.038702667E-1	-3.942408323E0
6.796262215E0	-2.313583940E-1	2.806843221E-1	-3.965467691E0
6.804665236E0	-2.567085624E-1	4.903576374E-1	-4.035867691E0
6.813068257E0	-2.637332976E-1	7.321004272E-1	-4.158953667E0
6.821471277E0	-2.883199155E-1	9.119949341E-1	-4.279901505E0
6.829874298E0	-3.155026138E-1	1.023016453E0	-4.375804424E0
6.838277319E0	-3.248180151E-1	1.052947998E0	-4.459032059E0
6.846680340E0	-3.164188862E-1	1.030804753E0	-4.552949905E0
6.855083361E0	-2.930539846E-1	9.813261032E-1	-4.651143551E0
6.863486382E0	-2.617480457E-1	8.641961813E-1	-4.742770672E0
6.871889402E0	-2.237228155E-1	6.681141853E-1	-4.848905563E0
6.880292423E0	-1.944021434E-1	4.109475017E-1	-4.949848175E0
6.888695444E0	-1.690519750E-1	1.185043678E-1	-5.016736031E0
6.897098465E0	-1.441599578E-1	-1.314848661E-1	-5.061022282E0
6.905501486E0	-1.188097894E-1	-2.484621257E-1	-5.111111641E0
6.913904507E0	-9.620844573E-2	-1.936385781E-1	-5.151580334E0
6.922307527E0	-6.200099736E-2	-4.001049697E-2	-5.146846294E0
6.930710548E0	-7.498150319E-2	1.630962193E-1	-5.111722469E0
6.939113569E0	-7.360709459E-2	3.871244490E-1	-5.041933060E0
6.947516590E0	-5.848862603E-2	6.287145615E-1	-4.905256271E0
6.955919611E0	-1.756185852E-2	8.367080092E-1	-4.668858528E0
6.964322632E0	8.643488586E-2	8.145648241E-1	-4.347094536E0
6.972725652E0	1.772984117E-1	7.204943299E-1	-3.918890476E0
6.981128673E0	1.704263836E-1	8.608365059E-1	-3.546884537E0
6.989531694E0	2.895416021E-1	1.053100705E0	-3.219775915E0
6.997934715E0	3.597890437E-1	1.172063231E0	-2.775537252E0
7.006337736E0	1.957765520E-1	9.602518678E-1	-2.152931213E0
7.014740757E0	-1.082726792E-1	6.322269142E-2	-1.398076653E0
7.023143777E0	-2.903051674E-1	-9.559759498E-1	-4.596625566E-1
7.031546798E0	-2.744231224E-1	-1.482373595E0	5.459447503E-1
7.039949819E0	-1.235438585E-1	-1.430604339E0	1.408461094E0
7.048352840E0	-2.550287358E-2	-8.748859763E-1	2.079782248E0
7.056755861E0	-1.478250325E-1	-2.290677279E-2	2.427659750E0
7.065158882E0	-5.630484819E-1	1.022863746E0	2.053210258E0
7.073561902E0	-4.943281412E-1	1.294232607E0	8.215895891E-1
7.081964923E0	3.376458287E-1	8.105943203E-1	-1.076618284E-1
7.090367944E0	-3.944546282E-1	3.396310806E-1	1.004538298E0
7.098770965E0	-1.393495321E0	-1.528339863E0	2.915268660E0
7.107173986E0	-8.599202037E-1	-3.153193474E0	3.088290930E0
7.115577007E0	-3.939964771E-1	-1.174048424E0	1.560714722E0
7.123980027E0	-1.029277667E-1	1.878049850E0	1.053406119E0
7.132383048E0	-4.963133857E-2	2.918169975E0	1.429687977E0
7.140786069E0	-2.829749882E-1	2.034579515E0	1.481457353E0
7.149189090E0	-3.498627543E-1	4.016320705E-1	9.958337545E-1
7.157592111E0	-3.468085229E-1	-7.365291119E-1	8.473978639E-1
7.165995132E0	-3.920112252E-1	-1.022100210E0	1.316833973E0
7.174398152E0	-3.469612300E-1	-7.962393761E-1	1.632794738E0
7.182801173E0	-2.437280566E-1	-5.326588154E-1	1.339740753E0
7.191204194E0	-1.757712960E-1	-3.289412558E-1	8.632798791E-1
7.199607215E0	-1.612636745E-1	-7.177454978E-2	7.308787704E-1
7.208010236E0	-2.012741715E-1	1.513374150E-1	7.835643291E-1
7.216413257E0	-2.506000996E-1	3.080197275E-1	7.291989326E-1
7.224816277E0	-2.567085624E-1	3.956763148E-1	5.909947157E-1
7.233219298E0	-2.182251811E-1	3.503209054E-1	5.335750580E-1
7.241622319E0	-1.663031727E-1	1.881409585E-1	5.515950918E-1
7.250025340E0	-1.438545287E-1	-8.551862091E-3	5.928272605E-1
7.258428361E0	-1.575985998E-1	-1.933331639E-1	6.384881139E-1
7.266831382E0	-1.765348613E-1	-2.716743052E-1	6.755970716E-1
7.275234402E0	-1.704263836E-1	-2.250972092E-1	6.995728016E-1
7.283637423E0	-1.383569092E-1	-1.033858955E-1	7.270609736E-1
7.292040444E0	-1.009425074E-1	3.985778242E-2	7.666133046E-1
7.300443465E0	-7.162184268E-2	1.203369126E-1	8.209787011E-1
7.308846486E0	-5.573981255E-2	1.032331884E-1	8.924478292E-1
7.317249507E0	-4.428642616E-2	2.367033064E-2	9.755230546E-1
7.325652527E0	-4.749337584E-2	-3.206948191E-2	1.046381354E0
7.334055548E0	-4.688252881E-2	-6.704048812E-2	1.088224411E0
7.342458569E0	-4.520269856E-2	-9.254335612E-2	1.113116384E0
7.350861590E0	-3.985778242E-2	-9.788827598E-2	1.122889996E0
7.359264611E0	-2.183778957E-2	-8.658760041E-2	1.121515512E0
7.367667632E0	-1.252236869E-2	-8.246438205E-2	1.119224906E0
7.376070652E0	-3.054236295E-4	-8.475505561E-2	1.109298587E0
7.384473673E0	1.908897609E-2	-8.246438205E-2	1.087308168E0
7.392876694E0	3.497100621E-2	-6.719319522E-2	1.073564053E0
7.401279715E0	4.291202128E-2	-5.971032009E-2	1.062721491E0
7.409682736E0	2.947338112E-2	-7.696675509E-2	1.052947998E0
7.418085757E0	1.298050396E-2	-1.003316641E-1	1.039967418E0
7.426488777E0	8.246437646E-3	-9.361234307E-2	1.022252917E0
7.434891798E0	1.878355257E-2	-6.139015034E-2	1.002858520E0
7.443294819E0	2.275406010E-2	-2.275406010E-2	9.941539168E-1
7.451697840E0	1.466033421E-2	1.221694518E-3	9.941539168E-1
7.460100861E0	7.635590737E-4	1.175880991E-2	9.987352490E-1
7.468503882E0	-1.084253844E-2	4.581354442E-4	1.004996419E0
7.476906902E0	-1.175880991E-2	-3.710897267E-2	1.018129706E0
7.485309923E0	-5.497625098E-3	-8.444963396E-2	1.028514028E0
7.493712944E0	6.261184346E-3	-1.038440317E-1	1.032484531E0
7.502115965E0	1.618745178E-2	-1.235438585E-1	1.037829518E0
7.510518986E0	1.130067464E-2	-1.786728203E-1	1.046534061E0
7.518922007E0	-2.901524538E-3	-2.484621257E-1	1.066691995E0
7.527325027E0	-2.214321308E-2	-3.188622594E-1	1.087308168E0
7.535728048E0	-1.725643501E-2	-3.689517379E-1	1.109909415E0
7.544131069E0	-2.443389036E-3	-3.871244490E-1	1.139993668E0
7.552534090E0	6.108472589E-3	-4.175141156E-1	1.179851532E0
7.560937111E0	1.114796288E-2	-4.460712075E-1	1.239867210E0
7.569340132E0	1.328592747E-2	-4.628695250E-1	1.312558055E0
7.577743152E0	1.252236869E-2	-4.871506989E-1	1.383569002E0
7.586146173E0	1.832541823E-2	-5.039489865E-1	1.455649018E0
7.594549194E0	4.504998401E-2	-5.213581324E-1	1.548345089E0
7.602952215E0	5.283828825E-2	-5.265503526E-1	1.636612535E0
7.611355236E0	2.977880463E-2	-5.485408306E-1	1.711135864E0
7.619758257E0	2.229592577E-2	-5.961869359E-1	1.749924660E0
7.628161277E0	6.856760383E-2	-6.529957056E-1	1.799556017E0
7.636564298E0	5.818320066E-2	-7.869240046E-1	1.929666519E0
7.644967319E0	8.796200156E-2	-8.099834919E-1	2.054737568E0
7.653370340E0	1.198787764E-1	-6.916317940E-1	2.135216475E0
7.661773361E0	1.406475753E-1	-5.806103349E-1	2.209892750E0
7.670176382E0	1.345391124E-1	-5.538857579E-1	2.301672459E0
7.678579402E0	1.238492802E-1	-6.114581227E-1	2.402462244E0
7.686982423E0	8.872556686E-2	-7.247702479E-1	2.504168272E0
7.695385444E0	5.100574717E-2	-8.189934492E-1	2.605721712E0
7.703788465E0	2.626643144E-2	-8.628217578E-1	2.710329294E0
7.712191486E0	3.329117596E-2	-8.573241234E-1	2.828070164E0
7.720594507E0	8.170082420E-2	-7.514948249E-1	2.965205193E0
7.728997527E0	9.804098308E-2	-6.478035450E-1	3.083251476E0
7.737400548E0	5.131116882E-2	-6.293253899E-1	3.140671253E0
7.745803569E0	6.566607859E-3	-9.686510563E-1	3.194272995E0
7.754206590E0	-3.863608837E-2	-1.480082870E0	3.332324505E0
7.762609611E0	-2.733541466E-2	-1.815438032E0	3.501834631E0
7.771012632E0	1.527118147E-4	-1.909355879E0	3.650423288E0
7.779415652E0	7.253811508E-2	-1.819866657E0	3.792445183E0
7.787818673E0	2.139492482E-1	-1.759850979E0	3.887279272E0
7.796221694E0	3.255815804E-1	-1.495048642E0	3.914767265E0
7.804624715E0	2.458660156E-1	-1.135412335E0	3.823751211E0
7.813027736E0	1.566823274E-1	-1.974563748E-1	3.387453556E0
7.821430757E0	2.644968629E-1	1.050657272E0	2.762098551E0
7.829833777E0	6.117635369E-1	1.544832706E0	2.117960215E0
7.838236798E0	7.024743557E-1	8.971819282E-1	1.311794519E0
7.846639819E0	7.087355256E-1	2.137965411E-1	7.328640223E-1
7.855042840E0	6.899519563E-1	-3.799470067E-1	5.890094638E-1
7.863445861E0	6.036698222E-1	-7.035433054E-1	6.502469182E-1
7.871848882E0	5.367820263E-1	-6.580352187E-1	5.343386531E-1
7.880251902E0	5.402944088E-1	-4.410317242E-1	1.634016484E-1
7.888654923E0	5.732801557E-1	-1.154501289E-1	-2.759502530E-1
7.897057944E0	5.781669021E-1	2.422009408E-1	-6.552863717E-1
7.905460965E0	5.483881235E-1	4.961606860E-1	-1.047297597E0
7.913863986E0	4.724903405E-1	6.232169271E-1	-1.481304646E0
7.922267007E0	3.623851240E-1	6.383354068E-1	-1.897444248E0
7.930670027E0	2.255553454E-1	4.984513521E-1	-2.207907438E0
7.939073048E0	8.521319181E-2	3.100049794E-1	-2.442625523E0
7.947476069E0	-2.550287358E-2	2.086043358E-1	-2.655658484E0
7.955879090E0	-1.160609797E-1	1.762294322E-1	-2.869149685E0
7.964282111E0	-1.980672181E-1	2.052446753E-1	-3.082488060E0
7.972685132E0	-2.764083743E-1	2.544178963E-1	-3.284220219E0
7.981088152E0	-3.645231128E-1	2.483094037E-1	-3.478164196E0
7.989491173E0	-4.207210541E-1	2.438807636E-1	-3.631181479E0
7.997894194E0	-4.895940721E-1	1.203369126E-1	-3.775646925E0
8.006297215E0	-5.328115225E-1	6.902574003E-2	-3.922250271E0
8.014700236E0	-5.673243999E-1	-3.848337755E-2	-4.048084736E0
8.023103257E0	-6.080984473E-1	-1.501157135E-1	-4.121539116E0
8.031506277E0	-6.493306160E-1	-1.887518018E-1	-4.156815529E0
8.039909298E0	-6.752916574E-1	-1.637070626E-1	-4.198658466E0
8.048312319E0	-7.001836896E-1	-7.314895838E-2	-4.254245758E0
8.056715340E0	-7.223268747E-1	5.238015205E-2	-4.329838276E0
8.065118361E0	-7.453863621E-1	1.858502775E-1	-4.404972076E0
8.073521382E0	-7.644753456E-1	3.486410677E-1	-4.468194962E0
8.081924402E0	-7.557707429E-1	5.296045542E-1	-4.529279709E0
8.090327423E0	-7.295043468E-1	6.798729897E-1	-4.609911442E0
8.098730444E0	-6.847597957E-1	7.601994276E-1	-4.716657162E0
8.107133465E0	-6.439857483E-1	7.496622801E-1	-4.810727596E0
8.115536486E0	-5.804576278E-1	7.157602906E-1	-4.854250431E0
8.123939507E0	-4.972296655E-1	6.665870547E-1	-4.899605751E0
8.132342527E0	-4.025483429E-1	6.336013079E-1	-4.977183342E0
8.140745548E0	-3.112266660E-1	6.073349118E-1	-5.028494835E0
8.149148569E0	-2.133384049E-1	5.847335458E-1	-5.031243324E0
8.157551590E0	-1.279724985E-1	5.642701387E-1	-4.997035980E0
8.165954611E0	-8.002099395E-2	5.612159371E-1	-4.938089371E0
8.174357632E0	-5.528167635E-2	6.125270724E-1	-4.848294735E0
8.182760652E0	-3.756710514E-2	7.084301114E-1	-4.716504574E0
8.191163673E0	-2.321219631E-2	8.336538076E-1	-4.537220955E0
8.199566694E0	1.206423342E-2	8.994725943E-1	-4.301433563E0
8.207969715E0	5.253286287E-2	8.625163436E-1	-4.005478382E0
8.216372736E0	3.390202299E-2	8.327375054E-1	-3.662029266E0
8.224775757E0	-1.527118124E-2	7.660024762E-1	-3.332019091E0
8.233178777E0	-1.050657257E-1	6.461237073E-1	-2.982461691E0
8.241581798E0	-2.139492482E-1	3.811686933E-1	-2.429492235E0
8.249984819E0	-3.532224298E-1	-2.292204350E-1	-1.575527787E0
8.258387840E0	-4.572191834E-1	-7.328640223E-1	-4.459185004E-1
8.266790861E0	-4.017847776E-1	-7.064448595E-1	6.471926570E-1
8.275193882E0	-1.546970755E-1	-9.422318637E-2	1.561936498E0
8.283596902E0	3.313846514E-2	7.960866690E-1	2.117501974E0
8.291999923E0	-1.740914769E-2	1.496270418E0	2.254331827E0
8.300402944E0	-3.009949923E-1	1.949977160E0	2.230966806E0
8.308805965E0	-9.138274789E-1	2.234173775E0	1.706401825E0
8.317208986E0	-6.755970716E-1	1.097387075E0	1.091889441E-1
8.325612007E0	1.892099380E-1	1.270562261E-1	-1.209477559E-1
8.334015027E0	-9.732323885E-1	-9.645278454E-1	1.860946178E0
8.342418048E0	-1.583316088E0	-3.262077093E0	3.597584963E0
8.350821069E0	-9.190196991E-1	-4.099090576E0	2.113684177E0
8.359224090E0	-1.765348613E-1	-5.896202922E-1	7.853968740E-1
8.367627111E0	3.316900730E-1	2.623283625E0	1.217571259E0
8.376030132E0	2.502946556E-1	2.964899778E0	1.754200578E0
8.384433152E0	-2.275406010E-2	1.505433083E0	1.312252641E0
8.392836173E0	-1.995943487E-1	-3.536805511E-1	6.099309921E-1
8.401239194E0	-2.547233105E-1	-1.406933904E0	8.429692388E-1
8.409642215E0	-3.087832928E-1	-1.385248899E0	1.833916187E0
8.418045236E0	-3.373403847E-1	-9.455915689E-1	2.097038746E0
8.426448257E0	-3.329117596E-1	-6.435275674E-1	1.304464340E0
8.434851277E0	-2.179197669E-1	-1.575985998E-1	5.467082858E-1
8.443254298E0	-8.139539510E-2	3.862081766E-1	5.201364160E-1
8.451657319E0	-3.833066672E-2	6.039752364E-1	6.273401380E-1
8.460060340E0	-2.290677279E-2	4.188885093E-1	5.398362875E-1
8.468463361E0	1.511846948E-2	6.948387623E-2	4.014793634E-1
8.476866382E0	3.374931216E-2	-2.528907657E-1	3.979669809E-1
8.485269402E0	3.115320951E-2	-5.097520351E-1	4.931064546E-1
8.493672423E0	3.481829539E-2	-6.042806506E-1	5.515950918E-1
8.502075444E0	1.740914769E-2	-5.763344169E-1	5.645755529E-1
8.510478465E0	-2.290677279E-3	-4.445441067E-1	5.899257660E-1
8.518881486E0	1.038440317E-2	-2.599155009E-1	6.511631608E-1
8.527284507E0	4.840964451E-2	-1.149920002E-1	7.337802649E-1
8.535687527E0	7.620319724E-2	-3.344388679E-2	8.319739699E-1
8.544090548E0	7.452336699E-2	-3.726168349E-2	9.517000318E-1
8.552493569E0	5.573981255E-2	-7.910472155E-2	1.064095974E0
8.560896590E0	2.489202656E-2	-8.857285231E-2	1.130067468E0
8.569299611E0	2.748812549E-3	-4.062134400E-2	1.172368646E0
8.577702632E0	5.344913341E-3	6.444438547E-2	1.193595529E0
8.586105652E0	1.084253844E-2	1.462979168E-1	1.190846682E0
8.594508673E0	2.611372061E-2	1.663031727E-1	1.175117373E0
8.602911694E0	3.726168349E-2	1.220167428E-1	1.155112147E0
8.611314715E0	4.001049697E-2	3.436015919E-2	1.130525589E0
8.619717736E0	2.473931387E-2	-7.696675509E-2	1.090515018E0
8.628120757E0	2.214321308E-2	-1.499630064E-1	1.046534061E0
8.636523777E0	3.329117596E-2	-1.713426560E-1	9.979717135E-1
8.644926798E0	4.718795046E-2	-1.467560530E-1	9.402466416E-1
8.653329819E0	5.344913527E-2	-1.324011385E-1	8.915315866E-1
8.661732840E0	5.405998230E-2	-1.180462316E-1	8.536590338E-1
8.670135861E0	5.008947477E-2	-1.029277667E-1	8.267817497E-1
8.678538882E0	4.871506989E-2	-1.104106456E-1	8.014315963E-1
8.686941902E0	4.688252881E-2	-1.339282542E-1	7.930324674E-1
8.695344923E0	4.856235534E-2	-1.372879148E-1	8.006680608E-1
8.703747944E0	5.146388337E-2	-1.206423342E-1	8.133431077E-1
8.712150965E0	4.749337584E-2	-1.120904684E-1	8.368607163E-1
8.720553986E0	4.382828996E-2	-1.075091213E-1	8.735115528E-1
8.728957007E0	3.481829539E-2	-9.788827598E-2	9.211576581E-1
8.737360027E0	3.588727489E-2	-1.064401343E-1	9.672766328E-1
8.745763048E0	2.916795574E-2	-1.351499557E-1	1.014311910E0
8.754166069E0	2.748812735E-2	-1.414111406E-1	1.054169655E0
8.762569090E0	2.611372061E-2	-1.394258887E-1	1.091736794E0
8.770972111E0	2.183778957E-2	-1.545443535E-1	1.116476059E0
8.779375132E0	1.267508045E-2	-1.724116355E-1	1.132358074E0
8.787778152E0	1.634016447E-2	-1.922641695E-1	1.148545504E0
8.796181173E0	2.718270384E-2	-2.267770469E-1	1.166565537E0
8.804584194E0	2.367033064E-2	-2.579302490E-1	1.181836724E0
8.812987215E0	1.786728203E-2	-2.559449971E-1	1.197260618E0
8.821390236E0	1.374406368E-2	-2.278460264E-1	1.215433359E0
8.829793257E0	1.175880991E-2	-2.315111160E-1	1.239409089E0
8.838196277E0	1.252236869E-2	-2.739650011E-1	1.279419541E0
8.846599298E0	7.024743594E-3	-2.874036431E-1	1.335464835E0
8.855002319E0	-2.748812549E-3	-2.841966748E-1	1.391662717E0
8.863405340E0	3.512371797E-3	-3.295520842E-1	1.425717473E0
8.871808361E0	-3.665083554E-3	-4.323271513E-1	1.456870675E0
8.880211382E0	-6.872031838E-3	-5.566345453E-1	1.531241417E0
8.888614402E0	7.635590737E-4	-6.093201637E-1	1.623326540E0
8.897017423E0	3.802524135E-2	-5.352548957E-1	1.697544575E0
8.905420444E0	9.162709117E-2	-3.762819171E-1	1.775274873E0
8.913823465E0	1.415638477E-1	-1.954711229E-1	1.848423839E0
8.922226486E0	1.646233350E-1	-7.482878864E-2	1.908897638E0
8.930629507E0	1.866138428E-1	-3.863608837E-2	1.975174665E0
8.939032527E0	1.934858710E-1	-5.619794875E-2	2.063289404E0
8.947435548E0	2.240282297E-1	-5.909947306E-2	2.143615723E0
8.955838569E0	2.582356930E-1	-1.212531775E-1	2.225469351E0
8.964241590E0	2.220429778E-1	-2.304421216E-1	2.257080555E0
8.972644611E0	1.673721522E-1	-3.607053161E-1	2.263341904E0
8.981047632E0	9.697200358E-2	-5.538857579E-1	2.378639221E0
8.989450652E0	4.352286831E-2	-7.443174124E-1	2.541735411E0
8.997853673E0	1.420219894E-2	-8.632798791E-1	2.657338381E0
9.006256694E0	-3.145863488E-2	-1.056154966E0	2.754157543E0
9.014659715E0	-1.107160673E-1	-1.392731786E0	2.877243280E0
9.023062736E0	-1.695101112E-1	-1.643179178E0	3.012240648E0
9.031465757E0	-2.079934925E-1	-1.847202063E0	3.154262543E0
9.039868777E0	-2.289150059E-1	-1.955474734E0	3.294299364E0
9.048271798E0	-1.898207814E-1	-1.849492788E0	3.382108450E0
9.056674819E0	-6.215370819E-2	-1.722589254E0	3.438306570E0
9.065077840E0	1.939439960E-2	-1.444501042E0	3.497864008E0
9.073480861E0	-3.206948051E-3	-1.006676316E0	3.465794563E0
9.081883882E0	-6.108472589E-3	-2.179197669E-1	3.162967205E0
9.090286902E0	1.151447073E-1	7.414158583E-1	2.654742241E0
9.098689923E0	2.629697323E-1	7.667660117E-1	2.041298866E0
9.107092944E0	2.959555089E-1	1.256818175E-1	1.343100429E0
9.115495965E0	3.805578351E-1	-3.184041381E-1	9.405520558E-1
9.123898986E0	4.407263100E-1	-7.417212725E-1	9.341381788E-1
9.132302007E0	4.637857676E-1	-8.782456517E-1	9.393303990E-1
9.140705027E0	4.805840850E-1	-8.568660021E-1	6.884248853E-1
9.149108048E0	5.305208564E-1	-7.508839965E-1	2.761029601E-1
9.157511069E0	6.129852533E-1	-4.723376334E-1	-6.184828654E-2
9.165914090E0	6.549809575E-1	-7.666133344E-2	-3.487937748E-1
9.174317111E0	6.577298045E-1	3.445178568E-1	-7.035433054E-1
9.182720132E0	6.572716236E-1	7.404996157E-1	-1.135259628E0
9.191123152E0	6.597150564E-1	1.024085402E0	-1.553231835E0
9.199526173E0	6.377245188E-1	1.145949483E0	-1.900040388E0
9.207929194E0	5.783196688E-1	1.127318621E0	-2.191720009E0
9.216332215E0	4.993676245E-1	1.036455035E0	-2.450413704E0
9.224735236E0	4.381301999E-1	9.245173335E-1	-2.686658859E0
9.233138257E0	4.065188468E-1	8.348754644E-1	-2.918475389E0
9.241541277E0	3.866663277E-1	7.252284288E-1	-3.157774925E0
9.249944298E0	3.486410677E-1	5.499152541E-1	-3.400586605E0
9.258347319E0	2.910687327E-1	3.414636254E-1	-3.625531197E0
9.266750340E0	2.211267054E-1	1.435490996E-1	-3.799164534E0
9.275153361E0	1.678302884E-1	-9.162709117E-3	-3.917974234E0
9.283556382E0	1.253764033E-1	-1.139230132E-1	-4.008990765E0
9.291959402E0	8.551861346E-2	-1.927223057E-1	-4.099243164E0
9.300362423E0	3.863608837E-2	-2.038702667E-1	-4.168116093E0
9.308765444E0	-1.847812906E-2	-1.562241912E-1	-4.194382668E0
9.317168465E0	-7.650861889E-2	-1.117850468E-1	-4.208126545E0
9.325571486E0	-1.430909634E-1	-7.330167107E-3	-4.227826595E0
9.333974507E0	-2.000524700E-1	1.940967143E-1	-4.270127773E0
9.342377527E0	-2.426590770E-1	3.860554695E-1	-4.315788746E0
9.350780548E0	-2.903051674E-1	5.618267655E-1	-4.362213135E0
9.359183569E0	-3.362714052E-1	6.829272509E-1	-4.403903484E0
9.367586590E0	-3.654393852E-1	7.293516397E-1	-4.455977917E0
9.375989611E0	-3.817795515E-1	7.149966955E-1	-4.508205414E0
9.384392632E0	-3.855973184E-1	6.459710002E-1	-4.520269871E0
9.392795652E0	-3.753656447E-1	5.450284481E-1	-4.508358002E0
9.401198673E0	-3.585673273E-1	4.326325655E-1	-4.495530605E0
9.409601694E0	-3.500154912E-1	3.237490356E-1	-4.478426456E0
9.418004715E0	-3.521534503E-1	2.400629669E-1	-4.451396465E0
9.426407736E0	-3.574983478E-1	2.200577259E-1	-4.415356636E0
9.434810757E0	-3.545968235E-1	2.750339806E-1	-4.355646610E0
9.443213777E0	-3.461976945E-1	3.912476599E-1	-4.262644768E0
9.451616798E0	-3.274141252E-1	5.570927262E-1	-4.132534504E0
9.460019819E0	-2.808370292E-1	7.580614686E-1	-3.955083370E0
9.468422840E0	-2.032594234E-1	9.602518678E-1	-3.742813826E0
9.476825861E0	-1.059819981E-1	1.187945247E0	-3.496642351E0
9.485228882E0	1.878355257E-2	1.415485859E0	-3.231840134E0
9.493631902E0	1.632489264E-1	1.463742733E0	-2.973757267E0
9.502034923E0	1.843231618E-1	1.425717473E0	-2.718270302E0
9.510437944E0	1.378987730E-1	1.219861984E0	-2.401546001E0
9.518840965E0	4.138490185E-2	7.278245091E-1	-2.008924007E0
9.527243986E0	-1.056765765E-1	3.665083647E-2	-1.565754294E0
9.535647007E0	-2.437280566E-1	-7.076665759E-1	-1.048519373E0
9.544050027E0	-3.067980409E-1	-1.230857253E0	-4.523324072E-1
9.552453048E0	-2.489202619E-1	-1.295301557E0	1.713426560E-1
9.560856069E0	-1.200314835E-1	-9.478822351E-1	7.101099491E-1
9.569259090E0	-9.773556143E-3	-3.837648034E-1	1.090515018E0
9.577662111E0	1.634016447E-2	1.699682474E-1	1.317292094E0
9.586065132E0	-5.604523420E-2	4.799732268E-1	1.464964390E0
9.594468152E0	-1.540862173E-1	5.633538961E-1	1.609429836E0
9.602871173E0	-2.267770469E-1	5.601469278E-1	1.749008417E0
9.611274194E0	-2.467822880E-1	5.920637250E-1	1.855906725E0
9.619677215E0	-2.373141646E-1	7.284353375E-1	1.912715435E0
9.628080236E0	-2.817533016E-1	1.047297597E0	1.763974190E0
9.636483257E0	-3.603998721E-1	1.337297320E0	1.237729311E0
9.644886277E0	-1.272089481E-1	1.029124975E0	2.205158621E-1
9.653289298E0	2.652604282E-1	5.092939138E-1	-1.609582454E-1
9.661692319E0	-4.217900336E-1	-9.072608948E-1	1.055238605E0
9.670095340E0	-1.128540277E0	-3.037285328E0	2.551661730E0
9.678498361E0	-9.704836011E-1	-3.843145609E0	2.217375517E0
9.686901382E0	-8.958075047E-1	-1.446639061E0	8.026533127E-1
9.695304402E0	-6.097782850E-1	1.433353066E0	5.505260825E-1
9.703707423E0	-3.501681983E-1	2.027402163E0	1.125333309E0
9.712110444E0	-3.112266660E-1	1.527576327E0	1.176339149E0
9.720513465E0	-2.315111160E-1	6.933116317E-1	8.649597168E-1
9.728916486E0	-1.771457046E-1	1.053711548E-1	8.168554902E-1
9.737319507E0	-3.106158376E-1	-3.350497186E-1	1.190235853E0
9.745722527E0	-3.831539452E-1	-5.523586273E-1	1.513221383E0
9.754125548E0	-3.732276857E-1	-4.613423944E-1	1.442973971E0
9.762528569E0	-3.707842827E-1	-1.963873953E-1	1.161067963E0
9.770931590E0	-3.208475113E-1	1.630962193E-1	1.026681542E0
9.779334611E0	-2.376195788E-1	4.576773047E-1	9.801044464E-1
9.787737632E0	-1.611109674E-1	5.141806602E-1	8.874083757E-1
9.796140652E0	-1.078145429E-1	3.768927455E-1	8.124268651E-1
9.804543673E0	-5.344913527E-2	1.307213157E-1	8.322793841E-1
9.812946694E0	-2.473931387E-2	-1.090362370E-1	9.100096822E-1
9.821349715E0	-4.932591692E-2	-2.866400778E-1	9.559759498E-1
9.829752736E0	-8.490777016E-2	-3.761292100E-1	9.495620728E-1
9.838155757E0	-8.643488586E-2	-3.127537966E-1	9.475768209E-1
9.846558777E0	-5.238015205E-2	-1.211004704E-1	9.639169574E-1
9.854961798E0	2.901524538E-3	5.436540768E-2	9.709417224E-1
9.863364819E0	2.809897438E-2	8.628217876E-2	9.891144037E-1
9.871767840E0	2.733541466E-2	-1.007897966E-2	1.043785214E0
9.880170861E0	-5.955760833E-3	-8.948912472E-2	1.083795786E0
9.888573882E0	-2.733541466E-2	-1.473668963E-1	1.099830508E0
9.896976902E0	-2.733541466E-2	-1.501157135E-1	1.112352848E0
9.905379923E0	-7.024743594E-3	-1.380514801E-1	1.125791550E0
9.913782944E0	2.290677279E-3	-1.157555580E-1	1.118461370E0
9.922185965E0	9.009997360E-3	-1.424801201E-1	1.105328083E0
9.930588986E0	2.596100792E-3	-1.879882365E-1	1.101510286E0
9.938992007E0	-5.650337320E-3	-2.218902707E-1	1.095554590E0
9.947395027E0	-5.803049076E-3	-1.988307834E-1	1.066233873E0
9.955798048E0	6.872031838E-3	-1.713426560E-1	1.035844207E0
9.964201069E0	1.756185852E-2	-1.574458778E-1	1.011257648E0
9.972604090E0	1.786728203E-2	-1.559187621E-1	9.891144037E-1
9.981007111E0	1.435491070E-2	-1.543916464E-1	9.706363082E-1
9.989410132E0	1.557660475E-2	-1.388150454E-1	9.654440880E-1
9.997813152E0	1.588202827E-2	-1.174353883E-1	9.686510563E-1
1.000621617E1	1.725643501E-2	-9.865183383E-2	9.804098606E-1
1.001461919E1	1.771457121E-2	-9.025268257E-2	1.002400398E0
1.002302222E1	2.260134928E-2	-1.090362370E-1	1.024085402E0
1.003142524E1	1.649287529E-2	-1.385096163E-1	1.045006990E0
1.003982826E1	1.313321572E-2	-1.493521482E-1	1.071273327E0
1.004823128E1	7.941014133E-3	-1.475196183E-1	1.103190184E0
1.005663430E1	-4.886778072E-3	-1.333174109E-1	1.129762053E0
1.006503732E1	-8.704573847E-3	-9.529217333E-2	1.156944752E0
1.007344034E1	-9.009997360E-3	-6.933116168E-2	1.180462360E0
1.008184336E1	-1.160609815E-2	-7.818844914E-2	1.197871447E0
1.009024638E1	-3.237490356E-2	-1.214058921E-1	1.202452779E0
1.009864940E1	-2.840439789E-2	-2.165453583E-1	1.197413325E0
1.010705242E1	-2.092151903E-2	-3.461976945E-1	1.212073684E0
1.011545544E1	-9.315420873E-3	-4.873034060E-1	1.234064221E0
1.012385847E1	3.054236295E-3	-5.638120174E-1	1.275907159E0
1.013226149E1	2.412846684E-2	-5.749599934E-1	1.327371120E0
1.014066451E1	4.642439261E-2	-5.259394646E-1	1.389677525E0
1.014906753E1	6.917845458E-2	-4.498890042E-1	1.466338873E0
1.015747055E1	9.223793447E-2	-3.662029207E-1	1.556744218E0
1.016587357E1	1.039967462E-1	-3.042019308E-1	1.648829460E0
1.017427659E1	1.052184403E-1	-2.524326444E-1	1.747939467E0
1.018267961E1	1.111742035E-1	-1.928750277E-1	1.851325274E0
1.019108263E1	1.209477559E-1	-1.244601309E-1	1.940356374E0
1.019948565E1	1.401894391E-1	-5.986303091E-2	2.026943922E0
1.020788867E1	1.594311297E-1	-3.206948051E-3	2.105132341E0
1.021629169E1	1.736333370E-1	-1.832541777E-3	2.171103954E0
1.022469472E1	1.663031727E-1	-2.535016090E-2	2.241198540E0
1.023309774E1	1.319430023E-1	-1.675248593E-1	2.312056780E0
1.024150076E1	1.053711548E-1	-3.866663277E-1	2.392383337E0
1.024990378E1	1.125486046E-1	-5.216635466E-1	2.488744497E0
1.025830680E1	1.382041872E-1	-6.080984473E-1	2.597322464E0
1.026670982E1	6.642963737E-2	-8.131904006E-1	2.663294077E0
1.027511284E1	-8.063183725E-2	-1.230857253E0	2.680550575E0
1.028351586E1	-2.287622988E-1	-1.729919434E0	2.751714230E0
1.029191888E1	-3.739912212E-1	-2.252499342E0	2.904426098E0
1.030032190E1	-4.891359508E-1	-2.745147467E0	2.984447002E0
1.030872492E1	-5.338805318E-1	-2.915726662E0	3.021861315E0
1.031712794E1	-5.047125220E-1	-2.755532026E0	3.171519041E0
1.032553096E1	-4.091149569E-1	-2.433615446E0	3.481065750E0
1.033393399E1	-3.066453338E-1	-2.125595808E0	3.777326822E0
1.034233701E1	-2.684673667E-1	-1.409224629E0	3.718532801E0
1.035074003E1	-2.055501044E-1	-3.388675153E-1	3.434641361E0
1.035914305E1	-1.586675793E-1	1.273616552E-1	3.274446726E0
1.036754607E1	-1.145338640E-1	1.661504507E-1	2.961387396E0
1.037594909E1	-9.636115283E-2	-1.012479365E-1	2.351609230E0
1.038435211E1	2.458660305E-2	-8.571714163E-1	1.732973695E0
1.039275513E1	1.192679256E-1	-1.386623263E0	1.287055135E0
1.040115815E1	1.774511337E-1	-1.426328301E0	1.141826272E0
1.040956117E1	2.892361879E-1	-1.225359559E0	1.123500824E0
1.041796419E1	4.083513916E-1	-8.567132950E-1	9.614735842E-1
1.042636722E1	4.873034060E-1	-4.683671296E-1	5.822901726E-1
1.043477024E1	5.438067913E-1	-1.860029846E-1	1.989834905E-1
1.044317326E1	5.873296261E-1	7.757759839E-2	-6.841489673E-2
1.045157628E1	6.015318632E-1	3.871244490E-1	-2.751866877E-1
1.045997930E1	5.728220344E-1	7.000309825E-1	-5.676298141E-1
1.046838232E1	5.150969625E-1	9.465078115E-1	-9.510892034E-1
1.047678534E1	4.443913698E-1	1.083337665E0	-1.347987175E0
1.048518836E1	3.671191931E-1	1.115559816E0	-1.675248623E0
1.049359138E1	2.814478874E-1	1.066081166E0	-1.937149405E0
1.050199440E1	1.882936656E-1	9.932376146E-1	-2.190650940E0
1.051039742E1	1.154501289E-1	9.487984776E-1	-2.461256266E0
1.051880044E1	8.796200156E-2	8.982508779E-1	-2.712314606E0
1.052720347E1	6.032116711E-2	7.821899056E-1	-2.914505005E0
1.053560649E1	1.847812906E-2	6.114581227E-1	-3.080502748E0
1.054400951E1	-3.008422814E-2	4.416425824E-1	-3.238406658E0
1.055241253E1	-8.139539510E-2	3.234436214E-1	-3.392493010E0
1.056081555E1	-1.308740228E-1	2.658712566E-1	-3.542303324E0
1.056921857E1	-1.646233350E-1	2.565558553E-1	-3.715478420E0
1.057762159E1	-1.745496094E-1	2.418955117E-1	-3.895067453E0
1.058602461E1	-1.939440072E-1	1.635543555E-1	-4.015404224E0
1.059442763E1	-2.359397560E-1	4.031591862E-2	-4.045946598E0
1.060283065E1	-2.890834510E-1	-3.497100621E-2	-4.025025368E0
1.061123367E1	-3.374931216E-1	3.436015919E-2	-4.048695564E0
1.061963669E1	-3.692571819E-1	2.278460264E-1	-4.140322685E0
1.062803972E1	-3.964398801E-1	4.926483035E-1	-4.254703999E0
1.063644274E1	-4.135435820E-1	7.623373866E-1	-4.341597080E0
1.064484576E1	-4.133908749E-1	9.552124143E-1	-4.401612759E0
1.065324878E1	-4.051444530E-1	1.038745761E0	-4.452465534E0
1.066165180E1	-3.930802047E-1	1.049893737E0	-4.510801792E0
1.067005482E1	-3.701734245E-1	1.028514028E0	-4.593876839E0
1.067845784E1	-3.377985358E-1	9.431481957E-1	-4.686267376E0
1.068686086E1	-3.011476994E-1	8.141067028E-1	-4.749184608E0
1.069526388E1	-2.649549842E-1	6.610894203E-1	-4.765983105E0
1.070366690E1	-2.283041626E-1	5.557183027E-1	-4.794539928E0
1.071206992E1	-1.808107942E-1	5.479300022E-1	-4.846156597E0
1.072047294E1	-1.374406368E-1	5.871769190E-1	-4.889679432E0
1.072887596E1	-1.108687744E-1	6.762079000E-1	-4.900522232E0
1.073727899E1	-9.330692142E-2	8.090671897E-1	-4.885251045E0
1.074568201E1	-6.169557199E-2	9.816315174E-1	-4.832870960E0
1.075408503E1	-3.771981969E-2	1.127929449E0	-4.736051559E0
1.076248805E1	-2.596100792E-3	1.232842445E0	-4.575093269E0
1.077089107E1	1.094943732E-1	1.248113632E0	-4.326631069E0
1.077929409E1	2.286095917E-1	1.102121115E0	-4.008685112E0
1.078769711E1	3.026748300E-1	1.023474574E0	-3.670581102E0
1.079610013E1	3.490992188E-1	8.379297256E-1	-3.336142302E0
1.080450315E1	2.597627938E-1	4.963133931E-1	-3.051182032E0
1.081290617E1	4.902049154E-2	1.145338640E-1	-2.708038568E0
1.082130919E1	-1.957765520E-1	-6.700994372E-1	-2.129413605E0
1.082971222E1	-3.054236174E-1	-1.479013920E0	-1.251626015E0
1.083811524E1	-2.864873707E-1	-1.833610773E0	-1.601946950E-1
1.084651826E1	-1.534753740E-1	-1.601030707E0	8.712208867E-1
1.085492128E1	3.726168349E-2	-8.693883419E-1	1.595074892E0
1.086332430E1	1.163664013E-1	-4.734066315E-3	1.987544298E0
1.087172732E1	4.764608666E-2	6.707102656E-1	2.167133331E0
1.088013034E1	-7.589777559E-2	1.049741030E0	2.249597788E0
1.088853336E1	-2.396048307E-1	1.187181592E0	2.290066481E0
1.089693638E1	-3.646758199E-1	1.312863469E0	2.200271845E0
1.090533940E1	-4.863871336E-1	1.703347564E0	1.638292313E0
1.091374242E1	-4.217900336E-1	1.794211149E0	3.191677034E-1
1.092214544E1	8.612946421E-2	1.449387789E0	-7.156075835E-1
1.093054847E1	-1.947075576E-1	5.048652887E-1	2.441861928E-1
1.093895149E1	-1.072495103E0	-1.805817246E0	2.354205370E0
1.094735451E1	-1.118003249E0	-4.376262665E0	2.984599590E0
1.095575753E1	-9.697200060E-1	-3.576510668E0	1.245364904E0
1.096416055E1	-5.222744346E-1	8.214368224E-1	2.264716178E-1
1.097256357E1	-1.788255423E-1	2.646953821E0	9.538379908E-1
1.098096659E1	-1.763821393E-1	2.396048307E0	1.370435834E0
1.098936961E1	-1.065928489E-1	1.149614573E0	8.696937561E-1
1.099777263E1	-9.177979827E-2	-1.924168877E-2	3.749074936E-1
1.100617565E1	-2.768665254E-1	-4.729484916E-1	7.301151752E-1
1.101457867E1	-3.727695346E-1	-5.363239050E-1	1.403727055E0
1.102298169E1	-3.536805511E-1	-5.076140761E-1	1.485733271E0
1.103138472E1	-3.127537966E-1	-3.797942698E-1	9.950701594E-1
1.103978774E1	-2.655658424E-1	-5.283828825E-2	7.165238261E-1
1.104819076E1	-2.040229887E-1	2.499892414E-1	7.794411182E-1
1.105659378E1	-1.750077456E-1	3.345915973E-1	7.999044657E-1
1.106499680E1	-1.734806150E-1	1.846285909E-1	6.617003083E-1
1.107339982E1	-1.301104724E-1	-1.068982761E-3	5.923691392E-1
1.108180284E1	-4.917320609E-2	-9.284878522E-2	6.814001203E-1
1.109020586E1	-3.985778242E-2	-1.600419879E-1	8.005153537E-1
1.109860888E1	-9.132166207E-2	-2.655658424E-1	8.472451568E-1
1.110701190E1	-1.313321590E-1	-2.922904193E-1	8.484668136E-1
1.111541492E1	-1.226275861E-1	-1.714953631E-1	8.553388715E-1
1.112381794E1	-5.757235363E-2	2.718270384E-2	8.776348233E-1
1.113222096E1	1.404948719E-2	1.805053651E-1	9.191724062E-1
1.114062399E1	6.429167092E-2	2.322746664E-1	9.851438999E-1
1.114902701E1	7.085828483E-2	1.827960461E-1	1.052184463E0
1.115743003E1	4.153761268E-2	1.056765765E-1	1.130067468E0
1.116583305E1	8.093725890E-3	7.375980914E-2	1.206423283E0
1.117423607E1	-1.206423342E-2	9.773556143E-2	1.246128440E0
1.118263909E1	-1.343864016E-2	1.782146841E-1	1.237729311E0
1.119104211E1	3.970507067E-3	2.600682080E-1	1.220625520E0
1.119944513E1	2.397575416E-2	2.809897363E-1	1.211157441E0
1.120784815E1	2.473931387E-2	2.292204350E-1	1.201689243E0
1.121625117E1	1.649287529E-2	1.553079188E-1	1.176949978E0
1.122465419E1	1.221694518E-2	1.001789495E-1	1.140757203E0
1.123305722E1	4.734066315E-3	6.856760383E-2	1.106091619E0
1.124146024E1	1.985253533E-3	5.741964281E-2	1.068524599E0
1.124986326E1	1.527118147E-4	7.223268598E-2	1.023016453E0
1.125826628E1	1.679830020E-3	9.849911928E-2	9.756757617E-1
1.126666930E1	1.985253533E-3	9.743013978E-2	9.410101771E-1
1.127507232E1	-3.512371797E-3	6.612421572E-2	9.138274789E-1
1.128347534E1	-9.620844387E-3	3.619270027E-2	8.855758309E-1
1.129187836E1	-6.413896102E-3	1.939439960E-2	8.582404256E-1
1.130028138E1	-4.886778072E-3	3.054236295E-3	8.429692388E-1
1.130868440E1	-9.315420873E-3	-1.710372418E-2	8.379297256E-1
1.131708742E1	-1.756185852E-2	-3.833066672E-2	8.322793841E-1
1.132549044E1	-2.473931387E-2	-4.596625641E-2	8.335011005E-1
1.133389347E1	-2.718270384E-2	-6.688777357E-2	8.431219459E-1
1.134229649E1	-2.443389036E-2	-1.017060652E-1	8.574768305E-1
1.135069951E1	-2.473931387E-2	-1.484358907E-1	8.773293495E-1
1.135910253E1	-2.886253223E-2	-1.844758689E-1	9.043593407E-1
1.136750555E1	-2.932066843E-2	-2.127275616E-1	9.436063170E-1
1.137590857E1	-1.924168877E-2	-2.437280566E-1	9.878927469E-1
1.138431159E1	-7.788302377E-3	-2.780882120E-1	1.025612593E0
1.139271461E1	1.832541777E-3	-3.319954872E-1	1.065928459E0
1.140111763E1	1.679830020E-3	-3.900259733E-1	1.120446563E0
1.140952065E1	-6.108472589E-4	-4.395045936E-1	1.189014196E0
1.141792367E1	6.413896102E-3	-4.682144225E-1	1.265675545E0
1.142632669E1	2.061609551E-2	-4.903576374E-1	1.345238328E0
1.143472972E1	2.687728032E-2	-5.154023767E-1	1.422510505E0
1.144313274E1	3.970507160E-2	-5.302154422E-1	1.508334637E0
1.145153576E1	5.207473040E-2	-5.202891231E-1	1.588202834E0
1.145993878E1	4.917320609E-2	-5.137225389E-1	1.660740972E0
1.146834180E1	3.848337755E-2	-5.170822144E-1	1.729003191E0
1.147674482E1	-1.527118147E-4	-5.192201734E-1	1.794516563E0
1.148514784E1	1.588202827E-2	-5.503733754E-1	1.841399074E0
1.149355086E1	2.794626169E-2	-5.633538961E-1	1.942341566E0
1.150195388E1	6.077930331E-2	-5.213581324E-1	2.052446842E0
1.151035690E1	1.111742035E-1	-3.715478480E-1	2.137660027E0
1.151875992E1	1.369825006E-1	-1.847812980E-1	2.203020573E0
1.152716294E1	1.356080920E-1	-4.917320609E-2	2.250514030E0
1.153556596E1	1.024696305E-1	-8.964183182E-2	2.311598778E0
1.154396899E1	6.688777357E-2	-1.962346882E-1	2.388260126E0
1.155237201E1	6.734590977E-2	-2.759502530E-1	2.474694967E0
1.156077503E1	1.090362370E-1	-2.780882120E-1	2.576095581E0
1.156917805E1	1.195733473E-1	-3.095468581E-1	2.656880140E0
1.157758107E1	4.611896724E-2	-4.388937652E-1	2.672609568E0
1.158598409E1	-3.603998944E-2	-7.492041588E-1	2.745605707E0
1.159438711E1	-1.099525094E-1	-1.163816690E0	2.959707737E0
1.160279013E1	-1.226275861E-1	-1.528492570E0	3.215652704E0
1.161119315E1	-1.371352077E-1	-1.663947940E0	3.371876955E0
1.161959617E1	-1.873773932E-1	-1.807038903E0	3.507026911E0
1.162799919E1	-2.880144715E-1	-2.062373161E0	3.565210104E0
1.163640222E1	-2.959555089E-1	-2.125290394E0	3.509011984E0
1.164480524E1	-3.040492237E-1	-2.240893126E0	3.582924604E0
1.165320826E1	-2.698417902E-1	-2.355732441E0	3.746326208E0
1.166161128E1	-2.032594234E-1	-2.096275091E0	3.821307659E0
1.167001430E1	-1.850867122E-1	-1.597518325E0	3.665389061E0
1.167841732E1	-1.716480851E-1	-5.031854510E-1	3.248485804E0
1.168682034E1	-6.872031838E-2	8.167027831E-1	2.722851753E0
1.169522336E1	1.818797737E-1	1.228871942E0	2.059318781E0
1.170362638E1	2.851129472E-1	5.935907960E-1	1.275907159E0
1.171202940E1	3.549022675E-1	-1.502684206E-1	6.815528274E-1
1.172043242E1	4.532486796E-1	-7.931851745E-1	5.682406425E-1
1.172883544E1	4.335488379E-1	-1.339588046E0	6.549809575E-1
1.173723846E1	3.758237660E-1	-1.501157165E0	5.876350403E-1
1.174564149E1	3.761292100E-1	-1.301868200E0	2.214321345E-1
1.175404451E1	4.469874799E-1	-8.573241234E-1	-2.641914487E-1
1.176244753E1	5.121954083E-1	-2.661767006E-1	-6.754443645E-1
1.177085055E1	5.291464329E-1	3.046600819E-1	-1.065012217E0
1.177925357E1	4.932591617E-1	7.206470370E-1	-1.502989650E0
1.178765659E1	4.356867969E-1	9.156600237E-1	-1.930582762E0
1.179605961E1	3.454341292E-1	9.126058221E-1	-2.291135311E0
1.180446263E1	2.403683960E-1	8.113578558E-1	-2.580677032E0
1.181286565E1	1.484358907E-1	6.870504618E-1	-2.838454485E0
1.182126867E1	6.474980712E-2	5.650337338E-1	-3.089359999E0
1.182967169E1	-8.399149403E-3	4.677563012E-1	-3.329728365E0
1.183807472E1	-7.910472155E-2	3.596363366E-1	-3.549480677E0
1.184647774E1	-1.467560530E-1	2.466295809E-1	-3.753503799E0
1.185488076E1	-2.078407854E-1	1.462979168E-1	-3.939812183E0
1.186328378E1	-2.538070381E-1	7.207997888E-2	-4.109169483E0
1.187168680E1	-2.945810854E-1	4.581354442E-4	-4.278221607E0
1.188008982E1	-3.518480062E-1	-1.085781008E-1	-4.440248489E0
1.188849284E1	-4.257605374E-1	-2.267770469E-1	-4.559211254E0
1.189689586E1	-4.990622103E-1	-3.064926267E-1	-4.605788231E0
1.190529888E1	-5.584670901E-1	-3.381039500E-1	-4.590211868E0
1.191370190E1	-6.168029904E-1	-3.168770075E-1	-4.583187103E0
1.192210492E1	-6.687250137E-1	-2.197522968E-1	-4.601054192E0
1.193050794E1	-7.172874212E-1	-6.215370819E-2	-4.610980511E0
1.193891097E1	-7.594358325E-1	1.543916464E-1	-4.620448589E0
1.194731399E1	-7.870767117E-1	3.883461356E-1	-4.636636257E0
1.195571701E1	-7.864658237E-1	5.667135715E-1	-4.653129101E0
1.196412003E1	-7.734853625E-1	6.259657145E-1	-4.669469357E0
1.197252305E1	-7.424848676E-1	5.975613594E-1	-4.661222935E0
1.198092607E1	-6.908682585E-1	5.270084739E-1	-4.634498119E0
1.198932909E1	-6.311579347E-1	4.353813827E-1	-4.623197556E0
1.199773211E1	-5.525113344E-1	3.900259733E-1	-4.616325378E0
1.200613513E1	-4.599680007E-1	4.367557764E-1	-4.567152023E0
1.201453815E1	-3.649812341E-1	5.920637250E-1	-4.518742561E0
1.202294117E1	-2.629697323E-1	8.157865405E-1	-4.481175423E0
1.203134419E1	-1.748550236E-1	1.025154471E0	-4.398558617E0
1.203974722E1	-1.212531775E-1	1.243685007E0	-4.289216518E0
1.204815024E1	-8.597674966E-2	1.446028233E0	-4.175446510E0
1.205655326E1	-4.703523964E-2	1.672805190E0	-4.046557903E0
1.206495628E1	-8.399149403E-3	1.828571320E0	-3.870022774E0
1.207335930E1	3.741439432E-2	1.911035657E0	-3.624767542E0
1.208176232E1	1.256818175E-1	1.956543803E0	-3.345610380E0
1.209016534E1	2.951919436E-1	1.797723532E0	-3.086916685E0
1.209856836E1	3.194731176E-1	1.503600478E0	-2.842119694E0
1.210697138E1	2.406738251E-1	1.096928954E0	-2.509818792E0
1.211537440E1	7.421794534E-2	1.986780763E-1	-2.025569439E0
1.212377742E1	-1.432436854E-1	-1.023779988E0	-1.415180445E0
1.213218044E1	-3.147390485E-1	-2.045422077E0	-6.719319820E-1
1.214058346E1	-3.191677034E-1	-2.342599154E0	1.546970755E-1
1.214898649E1	-1.580567211E-1	-1.854684949E0	8.787037730E-1
1.215738951E1	2.657185495E-2	-9.225320816E-1	1.348750710E0
1.216579253E1	9.330692142E-2	4.932591692E-2	1.574764252E0
1.217419555E1	2.809897438E-2	7.116370797E-1	1.676164865E0
1.218259857E1	-7.773031294E-2	1.026070714E0	1.789171576E0
1.219100159E1	-1.685938388E-1	1.074174881E0	1.938523769E0
1.219940461E1	-1.757712960E-1	9.918632507E-1	2.066343546E0
1.220780763E1	-2.082989216E-1	9.281824231E-1	2.027707577E0
1.221621065E1	-3.703261614E-1	9.344435930E-1	1.666238666E0
1.222461367E1	-5.917583108E-1	7.151494026E-1	5.633538961E-1
1.223301669E1	-6.261184346E-3	3.066453338E-1	-1.013853788E0
1.224141972E1	1.600419879E-1	1.175880954E-1	-4.123218954E-1
1.224982274E1	-1.104869962E0	-1.625159144E0	1.692810416E0
1.225822576E1	-1.530019641E0	-4.173155785E0	2.688186169E0
1.226662878E1	-1.121362805E0	-4.708258152E0	8.419002295E-1
1.227503180E1	-4.805840850E-1	-6.282563806E-1	-1.659977436E-1
1.228343482E1	3.622324169E-1	3.216110706E0	5.598415136E-1
1.229183784E1	4.052971601E-1	3.718685389E0	1.257734537E0
1.230024086E1	1.142284349E-1	2.053515673E0	8.012788892E-1
1.230864388E1	6.413896102E-3	2.524326444E-1	-2.183778957E-2
1.231704690E1	-1.751604527E-1	-7.731798887E-1	8.338065445E-2
1.232544992E1	-4.524851143E-1	-1.138008475E0	1.207797766E0
1.233385294E1	-5.702258945E-1	-1.161067963E0	1.862015128E0
1.234225597E1	-5.428904891E-1	-9.086353183E-1	1.412889719E0
1.235065899E1	-4.094203711E-1	-4.164451063E-1	5.071559548E-1
1.235906201E1	-1.519482583E-1	2.938175201E-1	3.038965166E-1
1.236746503E1	2.367033064E-2	7.290462255E-1	5.661026835E-1
1.237586805E1	-1.298050396E-2	5.865660906E-1	7.554653287E-1
1.238427107E1	-1.936385781E-1	5.619794875E-2	6.957550049E-1
1.239267409E1	-2.977880239E-1	-3.761292100E-1	6.248967648E-1
1.240107711E1	-2.835858464E-1	-5.095993280E-1	6.711684465E-1
1.240948013E1	-1.973036677E-1	-3.724641204E-1	7.310314775E-1
1.241788315E1	-1.394258887E-1	-2.082989216E-1	7.087355256E-1
1.242628617E1	-1.372879148E-1	-1.142284349E-1	6.769714952E-1
1.243468919E1	-1.635543555E-1	-7.605048269E-2	6.922426820E-1
1.244309222E1	-1.569877416E-1	-2.367033064E-2	7.258392572E-1
1.245149524E1	-1.064401343E-1	6.734590977E-2	7.188144922E-1
1.245989826E1	-4.062134400E-2	1.324011385E-1	7.218687534E-1
1.246830128E1	3.344388679E-2	1.618745178E-1	7.754706144E-1
1.247670430E1	6.963659078E-2	1.154501289E-1	8.496885300E-1
1.248510732E1	7.925742865E-2	3.588727489E-2	9.124531150E-1
1.249351034E1	7.635590434E-2	-1.160609815E-2	9.604045749E-1
1.250191336E1	6.566607952E-2	-1.817270555E-2	9.907942414E-1
1.251031638E1	7.299624383E-2	3.283303976E-2	9.991934299E-1
1.251871940E1	9.116895497E-2	1.027750522E-1	9.975135922E-1
1.252712242E1	1.026223376E-1	1.507265568E-1	9.961391687E-1
1.253552544E1	1.032331884E-1	1.678302884E-1	9.964445829E-1
1.254392846E1	9.300149232E-2	1.588202864E-1	9.895725846E-1
1.255233149E1	7.391251624E-2	1.369825006E-1	9.721634388E-1
1.256073451E1	5.848862603E-2	1.339282542E-1	9.510892034E-1
1.256913753E1	4.260659590E-2	1.215586066E-1	9.274188280E-1
1.257754055E1	2.489202656E-2	1.046075895E-1	8.939749599E-1
1.258594357E1	1.588202827E-2	9.849911928E-2	8.599202037E-1
1.259434659E1	1.466033421E-2	1.136175916E-1	8.222004175E-1
1.260274961E1	2.122694254E-2	1.375933439E-1	7.814263701E-1
1.261115263E1	2.993151546E-2	1.440072358E-1	7.475243211E-1
1.261955565E1	3.405473381E-2	1.240019947E-1	7.241594195E-1
1.262795867E1	3.084778599E-2	8.933641016E-2	7.096518278E-1
1.263636169E1	2.397575416E-2	4.993676394E-2	7.040014863E-1
1.264476472E1	2.168507688E-2	-6.108472589E-4	7.036960125E-1
1.265316774E1	2.092151903E-2	-3.023693897E-2	7.024743557E-1
1.266157076E1	2.107422985E-2	-3.008422814E-2	7.107207775E-1
1.266997378E1	2.046338283E-2	-2.015795931E-2	7.220214605E-1
1.267837680E1	2.183778957E-2	-2.000524849E-2	7.403468490E-1
1.268677982E1	2.596100792E-2	-3.558185324E-2	7.734853625E-1
1.269518284E1	2.886253223E-2	-5.558710173E-2	8.105943203E-1
1.270358586E1	3.084778599E-2	-6.704048812E-2	8.510629535E-1
1.271198888E1	3.054236248E-2	-5.757235363E-2	8.930587173E-1
1.272039190E1	2.107422985E-2	-6.444438547E-2	9.294040799E-1
1.272879492E1	1.740914769E-2	-4.840964451E-2	9.622371197E-1
1.273719794E1	1.282779220E-2	-3.878879920E-2	9.862129092E-1
1.274560097E1	1.786728203E-2	-3.237490356E-2	9.982771277E-1
1.275400399E1	1.863084175E-2	-4.749337584E-2	1.012632012E0
1.276240701E1	1.175880991E-2	-6.352811307E-2	1.031262875E0
1.277081003E1	4.275931045E-3	-8.231166750E-2	1.041494608E0
1.277921305E1	-2.748812549E-3	-1.050657257E-1	1.051268101E0
1.278761607E1	-7.024743594E-3	-1.084253863E-1	1.061041713E0
1.279601909E1	-1.313321572E-2	-1.096470803E-1	1.075396657E0
1.280442211E1	-1.618745178E-2	-1.191152185E-1	1.092194915E0
1.281282513E1	-1.572931744E-2	-1.197260618E-1	1.108993173E0
1.282122815E1	-1.496575773E-2	-1.059819981E-1	1.125027895E0
1.282963117E1	-9.162709117E-3	-6.841489673E-2	1.142895222E0
1.283803419E1	-3.817795310E-3	-3.023693897E-2	1.158624530E0
1.284643722E1	6.872031838E-3	1.175880991E-2	1.172674060E0
1.285484024E1	1.068982668E-2	2.137965336E-2	1.195580840E0
1.286324326E1	-4.275931045E-3	1.466033421E-2	1.235285878E0
1.287164628E1	-1.374406368E-2	9.162708884E-4	1.284000993E0
1.288004930E1	5.955760833E-3	-1.160609815E-2	1.316986680E0
1.288845232E1	2.962609194E-2	-3.924693540E-2	1.337297320E0
1.289685534E1	4.627167806E-2	-9.498675168E-2	1.376238823E0
1.290525836E1	4.596625641E-2	-1.856975704E-1	1.418540001E0
1.291366138E1	4.199574888E-2	-3.361186981E-1	1.452747464E0
1.292206440E1	3.665083647E-2	-5.167768002E-1	1.511847019E0
1.293046742E1	3.573456407E-2	-6.528429985E-1	1.582857966E0
1.293887044E1	4.214845970E-2	-7.342383862E-1	1.654174328E0
1.294727346E1	5.054761097E-2	-7.704311013E-1	1.730682969E0
1.295567649E1	5.833591148E-2	-7.708892226E-1	1.831167340E0
1.296407951E1	6.337540597E-2	-7.606575489E-1	1.946312070E0
1.297248253E1	6.581879407E-2	-7.317950130E-1	2.080698490E0
1.298088555E1	7.742489129E-2	-6.762079000E-1	2.236769915E0
1.298928857E1	8.261708915E-2	-6.216897964E-1	2.376501322E0
1.299769159E1	6.520794332E-2	-6.087092757E-1	2.462936163E0
1.300609461E1	5.192201585E-2	-6.956022978E-1	2.532114506E0
1.301449763E1	2.794626169E-2	-9.196305275E-1	2.618549585E0
1.302290065E1	-2.137965523E-3	-1.238187432E0	2.701166630E0
1.303130367E1	-4.306473210E-2	-1.518566251E0	2.798444033E0
1.303970669E1	-1.238492802E-1	-1.647913218E0	2.944131136E0
1.304810972E1	-2.110477239E-1	-1.684105873E0	3.155178785E0
1.305651274E1	-2.345653474E-1	-1.584690452E0	3.255205154E0
1.306491576E1	-1.721062213E-1	-1.649592996E0	3.315220833E0
1.307331878E1	-1.082726792E-1	-1.619508743E0	3.446552992E0
1.308172180E1	-1.175880954E-1	-1.325996637E0	3.638511658E0
1.309012482E1	-2.163926363E-1	-6.717792749E-1	3.578037739E0
1.309852784E1	-1.714953631E-1	4.375193417E-1	3.155026197E0
1.310693086E1	-2.993151546E-2	1.498561025E0	2.668486357E0
1.311533388E1	1.223221645E-1	1.535364628E0	2.108797550E0
1.312373690E1	1.560714692E-1	5.459447503E-1	1.435032964E0
1.313213992E1	1.272089481E-1	-4.263713956E-1	8.225058317E-1
1.314054294E1	1.834068894E-1	-1.098303318E0	5.812211633E-1
1.314894597E1	2.689255178E-1	-1.691283345E0	6.540647149E-1
1.315734899E1	3.176405728E-1	-1.974105597E0	7.667660117E-1
1.316575201E1	3.498627543E-1	-1.929666519E0	6.210789680E-1
1.317415503E1	4.136963189E-1	-1.707928896E0	2.405211031E-1
1.318255805E1	4.987567961E-1	-1.334548593E0	-1.597365588E-1
1.319096107E1	5.648810267E-1	-8.316685557E-1	-5.115845799E-1
1.319936409E1	5.897729993E-1	-2.767138183E-1	-8.674030900E-1
1.320776711E1	5.864133835E-1	2.339545041E-1	-1.256360054E0
1.321617013E1	5.722111464E-1	6.332958937E-1	-1.650203824E0
1.322457315E1	5.665608048E-1	8.832851648E-1	-1.987544298E0
1.323297617E1	5.630484819E-1	9.692618847E-1	-2.256775141E0
1.324137919E1	5.421269536E-1	9.657495022E-1	-2.501877546E0
1.324978222E1	5.118899941E-1	8.984035850E-1	-2.734915972E0
1.325818524E1	4.761554301E-1	7.910472155E-1	-2.956958771E0
1.326658826E1	4.317162931E-1	7.130114436E-1	-3.159301996E0
1.327499128E1	3.891097009E-1	6.702521443E-1	-3.341792583E0
1.328339430E1	3.474193811E-1	6.516213417E-1	-3.503056288E0
1.329179732E1	2.974826097E-1	6.592568755E-1	-3.660807610E0
1.330020034E1	2.460187376E-1	6.655181050E-1	-3.822987556E0
1.330860336E1	1.963873953E-1	6.238277555E-1	-3.970507145E0
1.331700638E1	1.249182671E-1	5.369347334E-1	-4.073129654E0
1.332540940E1	3.939964995E-2	4.782933891E-1	-4.111307621E0
1.333381242E1	-3.848337755E-2	4.811949134E-1	-4.114666939E0
1.334221544E1	-1.114796251E-1	5.679352283E-1	-4.129174709E0
1.335061846E1	-1.809635013E-1	7.453863621E-1	-4.173766613E0
1.335902149E1	-2.519744933E-1	9.378032684E-1	-4.243250370E0
1.336742451E1	-3.298575282E-1	1.107771516E0	-4.340986252E0
1.337582753E1	-4.098785222E-1	1.216502309E0	-4.453382015E0
1.338423055E1	-4.793623984E-1	1.256207347E0	-4.546689034E0
1.339263357E1	-5.279247165E-1	1.225817680E0	-4.612507820E0
1.340103659E1	-5.522059202E-1	1.138619304E0	-4.662291527E0
1.340943961E1	-5.515950918E-1	1.006218195E0	-4.708868980E0
1.341784263E1	-5.292991400E-1	8.437327743E-1	-4.751627922E0
1.342624565E1	-4.958552718E-1	6.540647149E-1	-4.785682678E0
1.343464867E1	-4.417952895E-1	4.585935771E-1	-4.809353352E0
1.344305169E1	-3.746020794E-1	2.803788781E-1	-4.812865734E0
1.345145472E1	-3.031329513E-1	1.979145110E-1	-4.812865734E0
1.345985774E1	-2.176143378E-1	2.538070381E-1	-4.811185837E0
1.346826076E1	-1.171299592E-1	3.973561525E-1	-4.756973267E0
1.347666378E1	-3.298575059E-2	5.670189857E-1	-4.639232159E0
1.348506680E1	4.199574888E-2	7.137750387E-1	-4.467889786E0
1.349346982E1	1.192679256E-1	7.863131166E-1	-4.253634930E0
1.350187284E1	1.433963925E-1	8.015843034E-1	-3.964398623E0
1.351027586E1	1.140757278E-1	8.944330812E-1	-3.603998899E0
1.351867888E1	1.017060652E-1	9.141329527E-1	-3.226953268E0
1.352708190E1	8.063183725E-2	7.560762167E-1	-2.838149071E0
1.353548492E1	-4.291202128E-2	2.147128135E-1	-2.261203766E0
1.354388794E1	-2.151709497E-1	-7.380561829E-1	-1.415485859E0
1.355229097E1	-2.927485406E-1	-1.392426372E0	-4.343124032E-1
1.356069399E1	-1.569877416E-1	-1.288429618E0	5.499152541E-1
1.356909701E1	6.108472496E-2	-7.227849960E-1	1.406933904E0
1.357750003E1	1.875301152E-1	3.665083647E-2	1.855906725E0
1.358590305E1	1.388150454E-1	5.913001299E-1	1.944479585E0
1.359430607E1	2.855710872E-2	8.655705452E-1	1.991056681E0
1.360270909E1	-7.803573459E-2	9.006943107E-1	2.079782248E0
1.361111211E1	-1.528645307E-1	7.798992395E-1	2.151251316E0
1.361951513E1	-2.104368806E-1	6.135960817E-1	2.158581495E0
1.362791815E1	-2.379250079E-1	5.541911721E-1	2.097802162E0
1.363632117E1	-2.898470163E-1	8.292251825E-1	1.816812515E0
1.364472419E1	-4.888305068E-1	1.468629479E0	9.497147799E-1
1.365312722E1	-5.337277651E-1	1.647149682E0	-5.282301903E-1
1.366153024E1	-1.462979168E-1	7.029324770E-1	-8.278507590E-1
1.366993326E1	-4.688252807E-1	-1.465728045E0	9.512419105E-1
1.367833628E1	-7.588250041E-1	-3.651492119E0	2.815089703E0
1.368673930E1	-6.688777208E-1	-4.174988270E0	2.226080179E0
1.369514232E1	-6.887302995E-1	-8.141067028E-1	3.335226178E-1
1.370354534E1	-2.344126403E-1	2.740871668E0	1.212531775E-1
1.371194836E1	-6.459710002E-2	2.966427088E0	8.266290426E-1
1.372035138E1	-2.283041626E-1	1.587286592E0	8.101361990E-1
1.372875440E1	-3.002314270E-1	6.230641901E-2	3.240544796E-1
1.373715742E1	-3.384093940E-1	-7.059867382E-1	5.987830162E-1
1.374556044E1	-4.185830951E-1	-9.116895199E-1	1.441904902E0
1.375396346E1	-3.713951409E-1	-7.146912813E-1	1.714800954E0
1.376236649E1	-2.660239935E-1	-4.514161348E-1	1.246739268E0
1.377076951E1	-2.240282297E-1	-1.688992679E-1	8.652651310E-1
1.377917253E1	-1.771457046E-1	1.803526580E-1	8.965710402E-1
1.378757555E1	-1.592784226E-1	3.377985358E-1	1.000415087E0
1.379597857E1	-1.992889196E-1	2.148655206E-1	9.544488192E-1
1.380438159E1	-2.286095917E-1	4.550812021E-2	8.932114244E-1
1.381278461E1	-2.050919682E-1	7.788302377E-3	9.158127308E-1
1.382118763E1	-1.692046970E-1	1.572931744E-2	9.633061290E-1
1.382959065E1	-1.626380831E-1	9.926267900E-3	9.717052579E-1
1.383799367E1	-1.704263836E-1	-1.221694518E-2	9.405520558E-1
1.384639669E1	-1.609582454E-1	1.664558798E-2	9.089407325E-1
1.385479972E1	-1.250709742E-1	1.246128380E-1	9.009997249E-1
1.386320274E1	-6.383354217E-2	2.179197669E-1	9.156600237E-1
1.387160576E1	-8.857285604E-3	2.531961799E-1	9.422318935E-1
1.388000878E1	1.740914769E-2	2.078407854E-1	9.739959836E-1
1.388841180E1	8.704573847E-3	9.819369763E-2	1.008356094E0
1.389681482E1	6.566607859E-3	3.542914242E-2	1.038745761E0
1.390521784E1	1.130067464E-2	3.161134571E-2	1.060430884E0
1.391362086E1	1.725643501E-2	4.138490185E-2	1.072800517E0
1.392202388E1	2.092151903E-2	6.123743951E-2	1.078756213E0
1.393042690E1	3.481829539E-2	9.804098308E-2	1.083795786E0
1.393882992E1	4.963133857E-2	1.094943732E-1	1.098608851E0
1.394723294E1	4.871506989E-2	7.330167294E-2	1.105938911E0
1.395563596E1	4.107947648E-2	2.244863659E-2	1.112505555E0
1.396403899E1	3.252761811E-2	-7.330167107E-3	1.114185452E0
1.397244201E1	3.588727489E-2	1.679830020E-3	1.104259133E0
1.398084503E1	4.138490185E-2	6.108472589E-3	1.088835239E0
1.398924805E1	3.863608837E-2	-9.468132630E-3	1.068830013E0
1.399765107E1	3.420744836E-2	-2.764083818E-2	1.046839476E0
1.400605409E1	2.733541466E-2	-5.039490014E-2	1.023627281E0
1.401445711E1	2.535016090E-2	-5.726693198E-2	1.004843712E0
1.402286013E1	1.924168877E-2	-5.497625470E-2	9.833113551E-1
1.403126315E1	1.466033421E-2	-4.169032723E-2	9.630007148E-1
1.403966617E1	2.137965523E-3	-4.291202128E-2	9.498674870E-1
1.404806919E1	-3.054236295E-3	-3.497100621E-2	9.433009028E-1
1.405647222E1	-1.404948719E-2	-5.635065958E-2	9.387195110E-1
1.406487524E1	-1.695101149E-2	-8.796200156E-2	9.352071285E-1
1.407327826E1	-1.313321572E-2	-1.108687744E-1	9.361234307E-1
1.408168128E1	-1.527118124E-2	-1.415638477E-1	9.345963001E-1
1.409008430E1	-2.031067200E-2	-1.942494214E-1	9.385668039E-1
1.409848732E1	-2.947338112E-2	-2.628170252E-1	9.541434050E-1
1.410689034E1	-3.680354729E-2	-3.263451457E-1	9.765920639E-1
1.411529336E1	-3.939964995E-2	-3.672719002E-1	1.003469348E0
1.412369638E1	-3.649812192E-2	-4.185830951E-1	1.036455035E0
1.413209940E1	-2.993151546E-2	-4.779879749E-1	1.098150611E0
1.414050242E1	-2.687728032E-2	-5.383091569E-1	1.187792540E0
1.414890544E1	-1.389677543E-2	-5.573981404E-1	1.288582325E0
1.415730847E1	-8.246437646E-3	-5.702258945E-1	1.400214672E0
1.416571149E1	-1.343864016E-2	-5.946598053E-1	1.513984919E0
1.417411451E1	-4.016320780E-2	-6.398624778E-1	1.636612535E0
1.418251753E1	-6.780404598E-2	-6.824691296E-1	1.740761995E0
1.419092055E1	-6.047387794E-2	-6.957550049E-1	1.794669271E0
1.419932357E1	-5.070032179E-2	-7.288935184E-1	1.897902489E0
1.420772659E1	-1.710372418E-2	-6.939224601E-1	2.048934460E0
1.421612961E1	5.115845799E-2	-5.601469278E-1	2.158581495E0
1.422453263E1	1.119377613E-1	-3.274141252E-1	2.211114407E0
1.423293565E1	1.637070626E-1	-1.574458778E-1	2.266090631E0
1.424133867E1	1.823379099E-1	-6.077930331E-2	2.359244823E0
1.424974169E1	2.177670449E-1	-5.955760833E-3	2.451329947E0
1.425814472E1	1.985253543E-1	-1.070509851E-1	2.480803490E0
1.426654774E1	1.267508119E-1	-2.386885732E-1	2.458965540E0
1.427495076E1	4.474456236E-2	-4.459185004E-1	2.514858246E0
1.428335378E1	-3.084778599E-2	-6.755970716E-1	2.679481506E0
1.429175680E1	-7.131642103E-2	-8.005153537E-1	2.791419268E0
1.430015982E1	-1.093416587E-1	-9.941539168E-1	2.871745586E0
1.430856284E1	-1.698155403E-1	-1.286291599E0	2.966427088E0
1.431696586E1	-2.831276953E-1	-1.645317078E0	3.140060425E0
1.432536888E1	-3.910949528E-1	-1.992278337E0	3.327132225E0
1.433377190E1	-4.567610323E-1	-2.311904192E0	3.392645597E0
1.434217492E1	-5.013529062E-1	-2.614273548E0	3.328659534E0
1.435057794E1	-5.402944088E-1	-2.933899403E0	3.302087545E0
1.435898096E1	-5.144860744E-1	-3.235199690E0	3.375389338E0
1.436738399E1	-4.815003574E-1	-3.182208776E0	3.398143291E0
1.437578701E1	-4.608842432E-1	-2.813104391E0	3.204199314E0
1.438419003E1	-3.492519259E-1	-2.141783237E0	2.806079626E0
1.439259305E1	-1.583621502E-1	-1.354553819E0	2.459729195E0
1.440099607E1	-3.374931216E-2	-7.206470370E-1	2.292662382E0
1.440939909E1	1.343863904E-1	-3.744493723E-1	1.887823462E0
1.441780211E1	2.232646793E-1	-2.942756712E-1	1.240783453E0
1.442620513E1	2.915268540E-1	-1.273616552E-1	7.035433054E-1
1.443460815E1	3.764346242E-1	3.710897267E-2	5.008947253E-1
1.444301117E1	3.918585181E-1	1.545443535E-1	3.793361485E-1
1.445141419E1	3.744493723E-1	3.090887070E-1	1.603474021E-1
1.445981722E1	3.901786804E-1	5.190674663E-1	-1.710372269E-1
1.446822024E1	4.401154518E-1	8.025006056E-1	-5.053234100E-1
1.447662326E1	5.004366040E-1	1.157708287E0	-8.470924497E-1
1.448502628E1	5.373928547E-1	1.499782681E0	-1.254832983E0
1.449342930E1	5.216635466E-1	1.675095916E0	-1.718160629E0
1.450183232E1	4.709632397E-1	1.619356036E0	-2.124832153E0
1.451023534E1	4.275930822E-1	1.379751205E0	-2.430408478E0
1.451863836E1	4.085040987E-1	1.053100705E0	-2.631682634E0
1.452704138E1	3.826957941E-1	7.521057129E-1	-2.791266441E0
1.453544440E1	3.547495604E-1	5.638120174E-1	-3.018501759E0
1.454384742E1	3.293993771E-1	4.792096615E-1	-3.322703600E0
1.455225044E1	3.016058207E-1	4.010212123E-1	-3.610565424E0
1.456065347E1	2.670929730E-1	2.965663373E-1	-3.824056625E0
1.456905649E1	2.240282297E-1	1.484358907E-1	-3.965314865E0
1.457745951E1	1.695101112E-1	-1.496575773E-2	-4.093745708E0
1.458586253E1	1.102579311E-1	-1.175880954E-1	-4.268600464E0
1.459426555E1	3.909422457E-2	-1.349972486E-1	-4.464682579E0
1.460266857E1	-3.038965166E-2	-7.116370648E-2	-4.607162952E0
1.461107159E1	-7.971556485E-2	7.421794534E-2	-4.661375523E0
1.461947461E1	-1.056765765E-1	2.817533016E-1	-4.681685925E0
1.462787763E1	-1.282779276E-1	5.221216679E-1	-4.723376274E0
1.463628065E1	-1.582094431E-1	7.913526297E-1	-4.820653915E0
1.464468367E1	-1.838650256E-1	1.005149126E0	-4.973670959E0
1.465308669E1	-2.287622988E-1	1.021031141E0	-5.140432358E0
1.466148972E1	-2.881672084E-1	8.887827396E-1	-5.247330666E0
1.466989274E1	-3.280249834E-1	7.339329720E-1	-5.263060093E0
1.467829576E1	-3.319954872E-1	5.926745534E-1	-5.267183304E0
1.468669878E1	-3.300102353E-1	4.598152637E-1	-5.306888103E0
1.469510180E1	-3.373403847E-1	3.475720882E-1	-5.353007317E0
1.470350482E1	-3.781144619E-1	2.191414535E-1	-5.377440929E0
1.471190784E1	-4.439332485E-1	1.197260618E-1	-5.395002842E0
1.472031086E1	-5.016583204E-1	9.025268257E-2	-5.410121441E0
1.472871388E1	-4.958552718E-1	1.029277667E-1	-5.387825489E0
1.473711690E1	-3.981196880E-1	4.214845970E-2	-5.247483253E0
1.474551992E1	-2.551814318E-1	-1.858502775E-1	-4.992912769E0
1.475392294E1	-1.305686086E-1	-5.160132051E-1	-4.666262150E0
1.476232596E1	-1.527118147E-3	-5.135698318E-1	-4.262186527E0
1.477072899E1	8.108997345E-2	-2.684673667E-1	-3.795652151E0
1.477913201E1	1.374406368E-1	1.951656938E-1	-3.339807272E0
1.478753503E1	1.178935245E-1	6.775823236E-1	-2.905494928E0
1.479593805E1	-9.208522737E-2	6.755970716E-1	-2.335268974E0
1.480434107E1	-3.101576865E-1	8.353336155E-2	-1.559034944E0
1.481274409E1	-4.260659516E-1	-8.512156606E-1	-4.914266169E-1
1.482114711E1	-3.613161445E-1	-1.343863964E0	7.719582319E-1
1.482955013E1	-1.377460510E-1	-9.881981611E-1	1.799250603E0
1.483795315E1	5.314370990E-2	-1.942494214E-1	2.377722979E0
1.484635617E1	6.902574003E-2	5.980194807E-1	2.637180328E0
1.485475919E1	-6.612421572E-2	1.292858243E0	2.639471054E0
1.486316222E1	-6.279509664E-1	2.113837004E0	1.931040883E0
1.487156524E1	-1.001789451E0	2.375432253E0	-1.094943732E-1
1.487996826E1	6.864396334E-1	1.885685444E0	-1.252542257E0
1.488837128E1	-5.297572613E-1	-4.344651103E-1	9.965972900E-1
1.489677430E1	-1.700598717E0	-3.609649181E0	3.602624416E0
1.490517732E1	-1.203369141E0	-5.424323559E0	3.464725733E0
1.491358034E1	-8.672503829E-1	-1.196649790E0	1.796654463E0
1.492198336E1	5.192201585E-2	3.239170313E0	1.086544514E0
1.493038638E1	9.269607067E-2	4.192855358E0	1.341267824E0
1.493878940E1	-2.002051920E-1	2.791571856E0	1.192068458E0
1.494719242E1	-1.565296054E-1	9.600991607E-1	4.355340898E-1
1.495559544E1	-1.754658818E-1	-4.880669713E-1	4.773771465E-1
1.496399847E1	-3.567348123E-1	-1.298813939E0	1.638903141E0
1.497240149E1	-3.704788685E-1	-1.304617047E0	2.510887623E0
1.498080451E1	-2.292204350E-1	-1.090362310E0	2.109713793E0
1.498920753E1	-1.693574041E-1	-8.247964978E-1	1.139840961E0
1.499761055E1	-1.079672500E-1	-8.276980370E-2	6.300889254E-1
1.500601357E1	-9.666658193E-2	5.512896776E-1	7.336275578E-1
1.501441659E1	-1.291942000E-1	6.297835112E-1	8.185353279E-1
1.502281961E1	-1.067455560E-1	3.830012381E-1	7.232431769E-1
1.503122263E1	-4.596625641E-2	1.269035190E-1	6.051968932E-1
1.503962565E1	-3.863608837E-2	-1.328592747E-1	6.488724947E-1
1.504802867E1	-6.994201243E-2	-3.434488773E-1	7.881456614E-1
1.505643169E1	-1.188097894E-1	-4.587462842E-1	8.936695457E-1
1.506483472E1	-1.517955512E-1	-4.500417113E-1	9.023740888E-1
1.507323774E1	-1.278197914E-1	-2.991624475E-1	8.858812451E-1
1.508164076E1	-4.306473210E-2	-6.383354217E-2	9.023740888E-1
1.509004378E1	3.970507160E-2	1.365243644E-1	9.616262913E-1
1.509844680E1	6.551336497E-2	1.533226669E-1	1.028514028E0
1.510684982E1	4.062134400E-2	4.275930673E-2	1.097234368E0
1.511525284E1	-7.941014133E-3	-7.895200700E-2	1.167176366E0
1.512365586E1	-3.008422814E-2	-1.423274130E-1	1.225817680E0
1.513205888E1	-2.107422985E-2	-1.243074164E-1	1.251167893E0
1.514046190E1	-1.527118147E-3	-6.597150117E-2	1.252389550E0
1.514886492E1	2.107422985E-2	-1.832541777E-3	1.254832983E0
1.515726794E1	2.382304333E-2	1.634016447E-2	1.261552334E0
1.516567096E1	1.435491070E-2	-2.947338112E-2	1.263079405E0
1.517407399E1	3.359660041E-3	-9.834641218E-2	1.263537526E0
1.518247701E1	-6.413896102E-3	-1.551551968E-1	1.248266339E0
1.519088003E1	-5.497625098E-3	-1.812689304E-1	1.206575990E0
1.519928305E1	4.581354442E-4	-1.921114624E-1	1.156486630E0
1.520768607E1	4.275931045E-3	-2.092151791E-1	1.110062122E0
1.521608909E1	-9.162709117E-3	-2.492256761E-1	1.068830013E0
1.522449211E1	-2.122694254E-2	-2.987042964E-1	1.024696231E0
1.523289513E1	-2.657185495E-2	-3.304683566E-1	9.839222431E-1
1.524129815E1	-2.000524849E-2	-3.423798978E-1	9.539906979E-1
1.524970117E1	-1.832541823E-2	-3.458922505E-1	9.391776323E-1
1.525810419E1	-1.740914769E-2	-3.318427801E-1	9.304730892E-1
1.526650722E1	-1.756185852E-2	-3.136700690E-1	9.339854717E-1
1.527491024E1	-2.092151903E-2	-2.982461751E-1	9.484930634E-1
1.528331326E1	-1.603474095E-2	-2.635805905E-1	9.715525508E-1
1.529171628E1	-6.872031838E-3	-2.388412803E-1	1.002094984E0
1.530011930E1	1.114796288E-2	-2.203631550E-1	1.031568289E0
1.530852232E1	2.611372061E-2	-2.252499312E-1	1.059056401E0
1.531692534E1	2.932066843E-2	-2.567085624E-1	1.091431379E0
1.532532836E1	2.947338112E-2	-2.916795611E-1	1.132205367E0
1.533373138E1	1.832541823E-2	-3.666610718E-1	1.172826767E0
1.534213440E1	2.336490713E-2	-4.396573007E-1	1.207339644E0
1.535053742E1	1.221694518E-2	-5.358657837E-1	1.245212078E0
1.535894044E1	1.313321572E-2	-6.064186096E-1	1.291178346E0
1.536734347E1	2.519745007E-2	-6.415423155E-1	1.351041436E0
1.537574649E1	4.795150831E-2	-6.531484127E-1	1.414111376E0
1.538414951E1	7.162184268E-2	-6.131379604E-1	1.480235577E0
1.539255253E1	1.047603041E-1	-5.218162537E-1	1.550788522E0
1.540095555E1	1.346918195E-1	-3.930802047E-1	1.622257590E0
1.540935857E1	1.601946950E-1	-2.683146596E-1	1.688534498E0
1.541776159E1	1.730224788E-1	-1.542389393E-1	1.757407546E0
1.542616461E1	1.884463727E-1	-5.512896553E-2	1.833610773E0
1.543456763E1	2.073826492E-1	1.634016447E-2	1.915922403E0
1.544297065E1	2.290677279E-1	6.474980712E-2	1.997165084E0
1.545137367E1	2.426590770E-1	9.773556143E-2	2.071841240E0
1.545977669E1	2.414373755E-1	8.108997345E-2	2.123915911E0
1.546817972E1	2.264716178E-1	-5.497625098E-3	2.174463511E0
1.547658274E1	2.099787444E-1	-1.349972486E-1	2.240587711E0
1.548498576E1	2.290677279E-1	-2.344126403E-1	2.319692373E0
1.549338878E1	2.551814318E-1	-3.013004065E-1	2.386580229E0
1.550179180E1	2.234173864E-1	-4.028537571E-1	2.398186445E0
1.551019482E1	1.557660550E-1	-5.749599934E-1	2.407196283E0
1.551859784E1	8.246438205E-2	-8.490777016E-1	2.517912388E0
1.552700086E1	1.068982668E-2	-1.160609841E0	2.678107023E0
1.553540388E1	-4.963133857E-2	-1.466186166E0	2.813409805E0
1.554380690E1	-1.023169160E-1	-1.723810911E0	2.940771341E0
1.555220992E1	-1.947075576E-1	-2.091235638E0	3.097911835E0
1.556061294E1	-2.805316150E-1	-2.529518604E0	3.230618477E0
1.556901596E1	-2.922904193E-1	-2.663294077E0	3.217179775E0
1.557741899E1	-2.139492482E-1	-2.639929056E0	3.249249220E0
1.558582201E1	-1.134648770E-1	-2.537612200E0	3.444262266E0
1.559422503E1	-6.093201414E-2	-2.170034885E0	3.627821922E0
1.560262805E1	-6.826218218E-2	-1.635848999E0	3.522298098E0
1.561103107E1	-1.206423342E-2	-6.424586177E-1	3.036063671E0
1.561943409E1	5.986303091E-2	3.461976945E-1	2.568612814E0
1.562783711E1	1.160609797E-1	1.040731072E0	2.296633005E0
1.563624013E1	2.782409191E-1	1.150530815E0	1.871636033E0
1.564464315E1	2.841966748E-1	6.751389503E-1	1.227955699E0
1.565304617E1	3.414636254E-1	4.095730782E-1	6.482616663E-1
1.566144919E1	4.367557764E-1	1.498102844E-1	4.010212123E-1
1.566985222E1	5.008947253E-1	-8.612946421E-2	4.072824121E-1
1.567825524E1	5.173876286E-1	-1.869192570E-1	3.344388604E-1
1.568665826E1	5.282301903E-1	-1.824906170E-1	4.749337584E-2
1.569506128E1	5.801522136E-1	-8.567132801E-2	-3.469612300E-1
1.570346430E1	6.447492838E-1	1.104106456E-1	-7.094991207E-1
1.571186732E1	6.823163629E-1	3.810159862E-1	-1.068830013E0
1.572027034E1	6.673506498E-1	6.149705052E-1	-1.478708506E0
1.572867336E1	6.065713167E-1	7.024743557E-1	-1.911493778E0
1.573707638E1	5.384618640E-1	6.418477297E-1	-2.283347130E0
1.574547940E1	4.701996744E-1	5.343386531E-1	-2.538986683E0
1.575388242E1	4.097257853E-1	4.146125913E-1	-2.696738005E0
1.576228544E1	3.506263196E-1	3.220692277E-1	-2.862888336E0
1.577068847E1	2.994678617E-1	3.060344756E-1	-3.086458445E0
1.577909149E1	2.368560284E-1	3.187095523E-1	-3.331255436E0
1.578749451E1	1.606528312E-1	3.591781855E-1	-3.555741787E0
1.579589753E1	9.865183383E-2	4.445441067E-1	-3.721128702E0
1.580430055E1	6.444438547E-2	5.051707029E-1	-3.840396643E0
1.581270357E1	4.443913698E-2	5.001311898E-1	-3.948058605E0
1.582110659E1	7.024743594E-3	4.271349311E-1	-4.049917221E0
1.582950961E1	-4.810422286E-2	3.778090179E-1	-4.122455597E0
1.583791263E1	-1.044548824E-1	4.069769979E-1	-4.146430969E0
1.584631565E1	-1.403421611E-1	5.312843919E-1	-4.139253616E0
1.585471867E1	-1.641651988E-1	7.096518278E-1	-4.153455734E0
1.586312169E1	-1.748550236E-1	8.900044560E-1	-4.202170849E0
1.587152472E1	-1.991362125E-1	1.008508801E0	-4.266157150E0
1.587992774E1	-2.368560284E-1	1.044243336E0	-4.322813511E0
1.588833076E1	-2.735068500E-1	1.012937427E0	-4.374429703E0
1.589673378E1	-3.009949923E-1	9.567395449E-1	-4.420548916E0
1.590513680E1	-3.084778786E-1	9.061918855E-1	-4.458574295E0
1.591353982E1	-2.922904193E-1	8.564078808E-1	-4.497973919E0
1.592194284E1	-2.628170252E-1	7.536327839E-1	-4.550506592E0
1.593034586E1	-2.510582209E-1	5.560237169E-1	-4.594335079E0
1.593874888E1	-2.715215981E-1	3.405473530E-1	-4.594945908E0
1.594715190E1	-2.994678617E-1	2.345653474E-1	-4.523476601E0
1.595555492E1	-3.034383655E-1	2.858765125E-1	-4.425130367E0
1.596395794E1	-2.867927849E-1	4.885250926E-1	-4.354271889E0
1.597236097E1	-2.786990702E-1	7.782194018E-1	-4.295477867E0
1.598076399E1	-2.793098986E-1	1.067150116E0	-4.184456348E0
1.598916701E1	-2.958027720E-1	1.310420036E0	-4.026399612E0
1.599757003E1	-3.240544796E-1	1.465728045E0	-3.837189674E0
1.600597305E1	-2.930539846E-1	1.566975951E0	-3.627516508E0
1.601437607E1	-1.559187621E-1	1.623784781E0	-3.373251200E0
1.602277909E1	6.673506647E-2	1.642110109E0	-3.087069273E0
1.603118211E1	1.786728203E-1	1.714953661E0	-2.801040173E0
1.603958513E1	2.312056869E-1	1.872857690E0	-2.497448921E0
1.604798815E1	2.392994165E-1	1.892099380E0	-2.219513416E0
1.605639117E1	1.930277348E-1	1.833763480E0	-1.969676971E0
1.606479419E1	3.527642787E-2	1.635390878E0	-1.679524541E0
1.607319722E1	-1.853921413E-1	1.155112147E0	-1.294996142E0
1.608160024E1	-3.597890437E-1	4.792096615E-1	-7.815790772E-1
1.609000326E1	-4.391991794E-1	-1.346918195E-1	-1.421747059E-1
1.609840628E1	-4.107947946E-1	-3.720059693E-1	4.834856093E-1
1.610680930E1	-3.203893900E-1	-2.168507725E-1	1.002247691E0
1.611521232E1	-2.483094037E-1	1.566823274E-1	1.402963400E0
1.612361534E1	-2.328855246E-1	5.653391480E-1	1.678913713E0
1.613201836E1	-2.756448388E-1	8.554915786E-1	1.847354770E0
1.614042138E1	-3.335226178E-1	1.009119630E0	2.016712189E0
1.614882440E1	-3.419217467E-1	1.221236348E0	2.143004894E0
1.615722742E1	-4.103366435E-1	1.716633558E0	1.854379535E0
1.616563044E1	-4.888305068E-1	2.250361204E0	6.791094542E-1
1.617403346E1	4.367557913E-2	2.284568787E0	-9.660549164E-1
1.618243649E1	-3.717005551E-1	7.884510756E-1	-1.831014603E-1
1.619083951E1	-1.685174823E0	-2.773246527E0	1.999913931E0
1.619924253E1	-1.836817741E0	-5.378968239E0	3.187248230E0
1.620764555E1	-1.564837933E0	-4.291354656E0	1.648524046E0
1.621604857E1	-8.544226289E-1	6.007682681E-1	4.080459774E-1
1.622445159E1	3.069507517E-2	3.662945509E0	7.484406233E-1
1.623285461E1	2.028012872E-1	3.325147152E0	1.239714503E0
1.624125763E1	1.325538605E-1	1.699835181E0	8.716790676E-1
1.624966065E1	-1.142284349E-1	4.989095032E-1	4.799732268E-1
1.625806367E1	-5.546492934E-1	-4.869979918E-1	9.344435930E-1
1.626646669E1	-8.339592218E-1	-1.109756708E0	1.826433301E0
1.627486972E1	-8.113578558E-1	-1.123958945E0	1.960667014E0
1.628327274E1	-6.496360302E-1	-6.662816405E-1	1.318361044E0
1.629167576E1	-4.254551232E-1	1.728697717E-1	7.466080785E-1
1.630007878E1	-2.331909388E-1	7.835643291E-1	7.369872332E-1
1.630848180E1	-9.575030953E-2	8.464815617E-1	8.434273601E-1
1.631688482E1	-4.062134400E-2	4.833329022E-1	8.127322793E-1
1.632528784E1	-1.181989461E-1	-1.236965694E-2	7.739434838E-1
1.633369086E1	-2.360924631E-1	-3.852919042E-1	8.670976758E-1
1.634209388E1	-2.817533016E-1	-4.934118688E-1	9.443698525E-1
1.635049690E1	-2.547233105E-1	-3.695625961E-1	9.049702287E-1
1.635889992E1	-1.918060333E-1	-1.200314835E-1	8.451071978E-1
1.636730294E1	-1.195733473E-1	1.258345395E-1	8.689302206E-1
1.637570596E1	-8.276980370E-2	2.131856978E-1	9.468132257E-1
1.638410899E1	-8.842013776E-2	1.550024897E-1	1.014006495E0
1.639251201E1	-1.246128380E-1	5.482354015E-2	1.056918502E0
1.640091503E1	-1.443126649E-1	-1.084253844E-2	1.090209603E0
1.640931805E1	-1.293469071E-1	-2.412846684E-2	1.113574505E0
1.641772107E1	-1.140757278E-1	-1.649287529E-2	1.139993668E0
1.642612409E1	-1.087308154E-1	-1.664558798E-2	1.153585076E0
1.643452711E1	-1.068982705E-1	-3.985778242E-2	1.154195905E0
1.644293013E1	-1.058292910E-1	-6.933116168E-2	1.148545504E0
1.645133315E1	-1.065928489E-1	-1.221694499E-1	1.130067468E0
1.645973617E1	-1.061347127E-1	-1.747023165E-1	1.092042208E0
1.646813919E1	-1.007898003E-1	-2.170034945E-1	1.046075940E0
1.647654222E1	-9.666658193E-2	-2.567085624E-1	9.965972900E-1
1.648494524E1	-9.407047927E-2	-2.932066917E-1	9.400939345E-1
1.649334826E1	-9.895725548E-2	-3.275668323E-1	8.900044560E-1
1.650175128E1	-1.049130186E-1	-3.547495604E-1	8.496885300E-1
1.651015430E1	-1.168245375E-1	-3.761292100E-1	8.231166601E-1
1.651855732E1	-1.244601309E-1	-3.759764731E-1	8.017370105E-1
1.652696034E1	-1.240019947E-1	-3.608580232E-1	7.829535007E-1
1.653536336E1	-1.183516532E-1	-3.545968235E-1	7.695148587E-1
1.654376638E1	-1.116323397E-1	-3.532224298E-1	7.666133046E-1
1.655216940E1	-1.023169160E-1	-3.581092060E-1	7.722636461E-1
1.656057242E1	-9.025268257E-2	-3.687990308E-1	7.860077024E-1
1.656897544E1	-9.345962852E-2	-3.845283389E-1	8.069292307E-1
1.657737847E1	-9.956810623E-2	-4.078932703E-1	8.330429196E-1
1.658578149E1	-1.085781008E-1	-4.188885093E-1	8.594620824E-1
1.659418451E1	-1.371352077E-1	-4.443913698E-1	8.699992299E-1
1.660258753E1	-1.044548824E-1	-4.999784827E-1	8.599202037E-1
1.661099055E1	-1.172826737E-1	-5.798467398E-1	8.710681796E-1
1.661939357E1	-1.160609797E-1	-6.728482842E-1	9.000834227E-1
1.662779659E1	-1.209477559E-1	-6.939224601E-1	9.161182046E-1
1.663619961E1	-1.047603041E-1	-6.827745438E-1	9.265025854E-1
1.664460263E1	-1.017060652E-1	-6.771242023E-1	9.542961121E-1
1.665300565E1	-1.006370857E-1	-6.896465421E-1	9.854493141E-1
1.666140867E1	-1.026223376E-1	-6.818582416E-1	1.028819442E0
1.666981169E1	-1.064401343E-1	-6.418477297E-1	1.081046939E0
1.667821472E1	-8.750387281E-2	-5.891621709E-1	1.122126460E0
1.668661774E1	-7.834116369E-2	-5.609105229E-1	1.172521353E0
1.669502076E1	-6.963659078E-2	-5.551074743E-1	1.245975733E0
1.670342378E1	-5.955760926E-2	-5.236487985E-1	1.333479524E0
1.671182680E1	-6.123743951E-2	-4.986040890E-1	1.422663212E0
1.672022982E1	-6.062658876E-2	-4.327852726E-1	1.511236072E0
1.672863284E1	-6.047387794E-2	-3.553603888E-1	1.599503517E0
1.673703586E1	-6.291726977E-2	-2.437280566E-1	1.687007427E0
1.674543888E1	-4.321744293E-2	-1.049130186E-1	1.774511337E0
1.675384190E1	-3.054236295E-4	3.863608837E-2	1.861557007E0
1.676224492E1	3.329117596E-2	1.305686086E-1	1.927070379E0
1.677064794E1	3.771981969E-2	1.392731816E-1	1.976549029E0
1.677905096E1	2.870982140E-2	2.840439789E-2	2.033052444E0
1.678745399E1	9.926267900E-3	-1.614163816E-1	2.103452444E0
1.679585701E1	1.236965694E-2	-3.283303976E-1	2.170798540E0
1.680426003E1	5.115845799E-2	-4.282039404E-1	2.239213228E0
1.681266305E1	8.108997345E-2	-5.161659122E-1	2.309002638E0
1.682106607E1	4.672981426E-2	-6.702521443E-1	2.369323730E0
1.682946909E1	-2.336490713E-2	-9.069554806E-1	2.462936163E0
1.683787211E1	-1.046075895E-1	-1.177255392E0	2.621298313E0
1.684627513E1	-1.962346882E-1	-1.466796994E0	2.809897423E0
1.685467815E1	-2.919849753E-1	-1.832694530E0	2.968870401E0
1.686308117E1	-3.929274976E-1	-2.406127453E0	3.077601194E0
1.687148419E1	-5.016583204E-1	-3.158843994E0	3.107379913E0
1.687988722E1	-5.899257660E-1	-3.545510292E0	3.156400442E0
1.688829024E1	-5.821374655E-1	-3.389133215E0	3.313388348E0
1.689669326E1	-5.297572613E-1	-3.066911459E0	3.593461752E0
1.690509628E1	-3.816268146E-1	-2.943214893E0	3.757168770E0
1.691349930E1	-2.664821148E-1	-2.651077032E0	3.733803988E0
1.692190232E1	-2.232646793E-1	-1.743968964E0	3.523977757E0
1.693030534E1	-1.827960461E-1	-8.530482054E-1	3.228327751E0
