"Time (s)"	"Acceleration x (m/s^2)"	"Acceleration y (m/s^2)"	"Acceleration z (m/s^2)"
3.707833200E-2	-6.125625968E-1	9.646664619E0	1.331007600E0
4.548135300E-2	-6.885347366E-1	9.716055870E0	1.361516118E0
5.388437400E-2	-8.057830334E-1	9.661619186E0	1.222134113E0
6.228739500E-2	-8.656035662E-1	9.665208817E0	1.249651670E0
7.069041600E-2	-7.160521746E-1	9.707083702E0	1.268195987E0
7.909343600E-2	-5.946164131E-1	9.692128181E0	1.298106313E0
8.749645700E-2	-6.179464459E-1	9.665208817E0	1.362114310E0
9.589947800E-2	-6.586244106E-1	9.671191216E0	1.346560955E0
1.043024990E-1	-6.717849374E-1	9.707083702E0	1.350150228E0
1.127055200E-1	-7.034898400E-1	9.749555588E0	1.353141189E0
1.211085410E-1	-7.633104324E-1	9.712467194E0	1.299302697E0
1.295115610E-1	-7.435696125E-1	9.682557106E0	1.210170031E0
1.379145820E-1	-6.664010882E-1	9.728020668E0	1.236491084E0
1.463176030E-1	-6.622136831E-1	9.781859398E0	1.275374413E0
1.547206240E-1	-6.903293133E-1	9.739984512E0	1.269392371E0
1.631236450E-1	-7.268198729E-1	9.653842926E0	1.219741344E0
1.715266660E-1	-7.010970116E-1	9.624530792E0	1.232303619E0
1.799296860E-1	-6.394818425E-1	9.621540070E0	1.307079315E0
1.883327070E-1	-6.478567123E-1	9.634700775E0	1.333998680E0
1.967357280E-1	-6.520441771E-1	9.644271851E0	1.363310695E0
2.051387490E-1	-6.741777658E-1	9.675378799E0	1.361516118E0
2.135417700E-1	-7.220342159E-1	9.691530228E0	1.350748420E0
2.219447910E-1	-7.615157962E-1	9.694520950E0	1.328016520E0
2.303478110E-1	-7.447660565E-1	9.645467758E0	1.306481123E0
2.387508320E-1	-6.699903607E-1	9.577870369E0	1.302293777E0
2.471538530E-1	-5.850451589E-1	9.597013474E0	1.303490162E0
2.555568740E-1	-6.131607890E-1	9.659825325E0	1.331007600E0
2.639598950E-1	-6.723831892E-1	9.673583984E0	1.336989641E0
2.723629160E-1	-7.411768436E-1	9.669396400E0	1.331605792E0
2.807659360E-1	-7.704889178E-1	9.713065147E0	1.303490162E0
2.891689570E-1	-8.482556343E-1	9.724431038E0	1.286142230E0
2.975719780E-1	-9.068797827E-1	9.686145782E0	1.252044439E0
3.059749990E-1	-8.470591903E-1	9.675976753E0	1.237687469E0
3.143780200E-1	-6.771687865E-1	9.689137459E0	1.269990563E0
3.227810410E-1	-5.174478889E-1	9.689137459E0	1.348953724E0
3.311840610E-1	-5.222335458E-1	9.678369522E0	1.409372568E0
3.395870820E-1	-6.185446382E-1	9.644869804E0	1.388435364E0
3.479901030E-1	-5.910272002E-1	9.676574707E0	1.261017561E0
3.563931240E-1	-5.365904570E-1	9.728618622E0	1.362114310E0
3.647961450E-1	-6.334998012E-1	9.696315765E0	1.470389485E0
3.731991660E-1	-6.969096065E-1	9.674181938E0	1.384247899E0
3.816021860E-1	-7.399803996E-1	9.702297211E0	1.203589797E0
3.900052070E-1	-7.561319470E-1	9.768698692E0	1.186241865E0
3.984082280E-1	-6.819544435E-1	9.836296082E0	1.129412293E0
4.068112490E-1	-7.495517135E-1	9.742975235E0	1.211964726E0
4.152142700E-1	-7.501499057E-1	9.678369522E0	1.182054400E0
4.236172910E-1	-6.658028960E-1	9.664610863E0	1.332203984E0
4.320203110E-1	-5.467599630E-1	9.784850121E0	1.262213945E0
4.404233320E-1	-6.376872063E-1	9.742975235E0	1.361516118E0
4.488263530E-1	-6.346961856E-1	9.675378799E0	1.417747378E0
4.572293740E-1	-8.428717852E-1	9.524032593E0	1.499103427E0
4.656323950E-1	-8.464609981E-1	9.557532310E0	1.470987678E0
4.740354160E-1	-8.470591903E-1	9.703494072E0	1.288534999E0
4.824384360E-1	-7.411768436E-1	9.608977318E0	1.408176184E0
4.908414570E-1	-7.166503668E-1	9.535398483E0	1.540379524E0
4.992444780E-1	-1.071984529E0	9.581459999E0	1.506880045E0
5.076474990E-1	-1.173081279E0	9.605986595E0	1.314257860E0
5.160505200E-1	-8.913264275E-1	9.606584549E0	1.183848977E0
5.244535410E-1	-6.448656917E-1	9.619147301E0	1.415354609E0
5.328565610E-1	-4.767699242E-1	9.675378799E0	1.427916884E0
5.412595820E-1	-4.803591371E-1	9.659226418E0	1.357328653E0
5.496626030E-1	-5.724828243E-1	9.662816048E0	1.329213023E0
5.580656240E-1	-7.459624410E-1	9.672985077E0	1.312463164E0
5.664686450E-1	-8.596215248E-1	9.665806770E0	1.277767301E0
5.748716660E-1	-8.662018180E-1	9.636494637E0	1.317248821E0
5.832746860E-1	-7.824530005E-1	9.683155060E0	1.394417405E0
5.916777070E-1	-7.495517135E-1	9.749555588E0	1.400399446E0
6.000807280E-1	-7.657032609E-1	9.733404160E0	1.372882009E0
6.084837490E-1	-7.339983582E-1	9.661619186E0	1.366899967E0
6.168867700E-1	-7.040880919E-1	9.592825890E0	1.363908887E0
6.252897910E-1	-6.975077987E-1	9.612566948E0	1.400399446E0
6.336928110E-1	-6.933203340E-1	9.649655342E0	1.388435364E0
6.420958320E-1	-7.393822074E-1	9.691530228E0	1.430309772E0
6.504988530E-1	-7.645068169E-1	9.669994354E0	1.475175142E0
6.589018740E-1	-8.045865893E-1	9.663414001E0	1.449452281E0
6.673048950E-1	-8.404789567E-1	9.663414001E0	1.372882009E0
6.757079160E-1	-8.518448472E-1	9.675976753E0	1.396810174E0
6.841109360E-1	-7.686942816E-1	9.644869804E0	1.391426325E0
6.925139570E-1	-6.765705943E-1	9.621540070E0	1.378864050E0
7.009169780E-1	-6.083751321E-1	9.594620705E0	1.388435364E0
7.093199990E-1	-5.676971674E-1	9.565906525E0	1.450050473E0
7.177230200E-1	-5.437689424E-1	9.505488396E0	1.344766378E0
7.261260410E-1	-4.875376225E-1	9.441479683E0	1.213161111E0
7.345290610E-1	-3.846462369E-1	9.374481201E0	1.415354609E0
7.429320820E-1	-2.931207716E-1	9.290133476E0	1.563709617E0
7.513351030E-1	-2.506481707E-1	9.301499367E0	1.513460279E0
7.597381240E-1	-2.620140910E-1	9.360722542E0	1.626521230E0
7.681411450E-1	-3.008974493E-1	9.492925644E0	1.838286042E0
7.765441660E-1	-5.174478889E-1	9.576076508E0	1.871187329E0
7.849471860E-1	-7.423732281E-1	9.612566948E0	1.703091502E0
7.933502070E-1	-8.045865893E-1	9.697511673E0	1.700698733E0
8.017532280E-1	-6.741777658E-1	9.809974670E0	1.682154298E0
8.101562490E-1	-6.406782866E-1	9.763913155E0	1.445863128E0
8.185592700E-1	-6.388836503E-1	9.547960281E0	1.351346612E0
8.269622910E-1	-4.211367965E-1	9.457033157E0	1.371087432E0
8.353653110E-1	-9.212367237E-2	9.409176826E0	1.200000525E0
8.437683320E-1	1.698904037E-1	9.229715347E0	1.128814101E0
8.521713530E-1	4.510470629E-1	9.044869423E0	1.472184181E0
8.605743740E-1	7.328019142E-1	9.013762474E0	1.771885157E0
8.689773950E-1	6.532405615E-1	9.190832138E0	2.194218397E0
8.773804160E-1	2.093719877E-2	9.516255379E0	2.398804665E0
8.857834360E-1	-9.720842242E-1	9.796216011E0	2.167897224E0
8.941864570E-1	-1.904686809E0	9.807581902E0	1.704886079E0
9.025894780E-1	-2.224726915E0	9.652647018E0	1.115055323E0
9.109924990E-1	-1.669592023E0	9.569496155E0	5.670989752E-1
9.193955200E-1	-5.527420044E-1	9.656833649E0	3.690928817E-1
9.277985410E-1	3.349951804E-1	9.750752449E0	5.575276613E-1
9.362015610E-1	6.370890141E-1	9.720243454E0	7.645068169E-1
9.446045820E-1	3.050848842E-1	9.753743172E0	8.805587292E-1
9.530076030E-1	-4.995017350E-1	9.860223770E0	8.590233326E-1
9.614106240E-1	-1.460818172E0	9.865608215E0	8.727820516E-1
9.698136450E-1	-2.140379906E0	9.878170013E0	8.602197170E-1
9.782166660E-1	-2.230110645E0	9.885947227E0	9.206385016E-1
9.866196860E-1	-1.704287887E0	9.860223770E0	1.058824062E0
9.950227070E-1	-1.037886858E0	9.848857880E0	1.134796143E0
1.003425728E0	-6.735795736E-1	9.954740524E0	6.472585201E-1
1.011828749E0	-8.428717852E-1	1.011805058E1	4.606183469E-1
1.020231770E0	-1.252642632E0	1.008694363E1	4.468596280E-1
1.028634791E0	-1.445863128E0	9.905687332E0	2.829512656E-1
1.037037811E0	-1.347159147E0	9.742377281E0	2.488535494E-1
1.045440832E0	-1.141974568E0	9.831509590E0	3.762713671E-1
1.053843853E0	-1.002592683E0	1.009950638E1	5.455635786E-1
1.062246874E0	-1.075573802E0	1.030588722E1	6.161518097E-1
1.070649895E0	-1.370489120E0	1.027358437E1	5.994020700E-1
1.079052916E0	-1.659422517E0	1.005105114E1	4.791627228E-1
1.087455936E0	-1.661217093E0	9.815957069E0	2.021935135E-1
1.095858957E0	-1.368694544E0	9.717850685E0	4.067798331E-2
1.104261978E0	-9.379864931E-1	9.722636223E0	9.571290575E-3
1.112664999E0	-5.162515044E-1	9.733404160E0	-1.651047617E-1
1.121068020E0	-2.614158690E-1	9.761520386E0	-1.286142170E-1
1.129471041E0	-2.428714931E-1	9.788438797E0	1.196411322E-3
1.137874061E0	-4.636093974E-1	9.803992271E0	-3.828516230E-2
1.146277082E0	-8.703892231E-1	9.767501831E0	-1.794616925E-3
1.154680103E0	-1.365105271E0	9.760323524E0	7.118647546E-2
1.163083124E0	-1.780858278E0	9.796216011E0	1.405783296E-1
1.171486145E0	-1.840678811E0	9.794421196E0	7.716853172E-2
1.179889166E0	-1.452443361E0	9.765109062E0	-1.633101404E-1
1.188292186E0	-8.913264275E-1	9.736993790E0	-3.266202807E-1
1.196695207E0	-3.505485058E-1	9.649655342E0	-3.661018610E-1
1.205098228E0	-8.554340899E-2	9.473783493E0	-7.818548083E-1
1.213501249E0	-3.828516230E-2	9.174081802E0	-1.277767301E0
1.221904270E0	4.187439568E-3	8.940781593E0	-1.628913999E0
1.230307291E0	2.398804724E-1	9.062217712E0	-1.786840320E0
1.238710311E0	3.870390654E-1	9.369096756E0	-1.554138303E0
1.247113332E0	2.781656384E-1	9.564111710E0	-1.264008522E0
1.255516353E0	4.546362907E-2	9.593423843E0	-1.296909928E0
1.263919374E0	-3.517449200E-1	9.405587196E0	-1.514656782E0
1.272322395E0	-7.196413875E-1	9.209974289E0	-1.607976794E0
1.280725416E0	-7.956135273E-1	9.348757744E0	-1.507478237E0
1.289128436E0	-8.841479421E-1	9.325428009E0	-1.034895778E0
1.297531457E0	-1.077368379E0	9.028120041E0	-6.969096065E-1
1.305934478E0	-1.147956610E0	8.744570732E0	-7.615157962E-1
1.314337499E0	-9.876375198E-1	8.737990379E0	-7.896314859E-1
1.322740520E0	-7.585247755E-1	8.858229637E0	-7.106683254E-1
1.331143541E0	-5.670989752E-1	9.061020851E0	-5.892325640E-1
1.339546561E0	-6.101697683E-1	9.130413055E0	-4.289134443E-1
1.347949582E0	-7.896314859E-1	9.050851822E0	-4.342973232E-1
1.356352603E0	-9.643075466E-1	8.991629601E0	-5.485545993E-1
1.364755624E0	-1.118644595E0	8.968298912E0	-4.456632137E-1
1.373158645E0	-1.293320656E0	9.044869423E0	-6.999006122E-2
1.381561666E0	-1.480558991E0	9.049654961E0	4.331009090E-1
1.389964686E0	-1.585245013E0	9.059226990E0	5.557330847E-1
1.398367707E0	-1.575075507E0	9.117850304E0	3.565305769E-1
1.406770728E0	-1.536790371E0	9.198608398E0	1.686939895E-1
1.415173749E0	-1.295713425E0	9.324232101E0	1.986042857E-1
1.423576770E0	-1.022333503E0	9.419346809E0	8.315058798E-2
1.431979791E0	-1.073180914E0	9.553344727E0	1.160518974E-1
1.440382811E0	-1.530210137E0	9.786644936E0	3.541377485E-1
1.448785832E0	-2.274976015E0	9.887143135E0	6.197410822E-1
1.457188853E0	-3.065205812E0	9.894919395E0	8.967102766E-1
1.465591874E0	-3.579064369E0	9.872187614E0	1.109073281E0
1.473994895E0	-3.668197155E0	9.872786522E0	1.209571838E0
1.482397916E0	-3.437887907E0	9.890133858E0	1.075573802E0
1.490800936E0	-3.136990547E0	9.951749802E0	7.232306600E-1
1.499203957E0	-2.958725214E0	1.004447079E1	4.624129832E-1
1.507606978E0	-2.988635540E0	1.010249710E1	1.268195957E-1
1.516009999E0	-3.133401155E0	1.009591675E1	-3.559323549E-1
1.524413020E0	-3.259024382E0	1.012582684E1	-7.597211599E-1
1.532816041E0	-3.253042459E0	1.020479012E1	-1.079162955E0
1.541219061E0	-3.020938635E0	1.025264645E1	-1.351346612E0
1.549622082E0	-2.475374937E0	1.016052341E1	-1.561915040E0
1.558025103E0	-1.960319996E0	9.699904442E0	-1.664806366E0
1.566428124E0	-1.407577872E0	9.376873970E0	-1.753340840E0
1.574831145E0	-7.645068169E-1	9.451051712E0	-2.042274237E0
1.583234166E0	-3.888336942E-2	9.812965393E0	-2.654238462E0
1.591637186E0	6.382854581E-1	1.041416264E1	-3.387040377E0
1.600040207E0	1.130608678E0	1.093280697E1	-4.120440483E0
1.608443228E0	1.377667665E0	1.169910812E1	-4.544568539E0
1.616846249E0	8.697910309E-1	1.183849049E1	-4.238286972E0
1.625249270E0	-5.599204898E-1	1.124028397E1	-3.759722471E0
1.633652291E0	-2.241476536E0	1.062233829E1	-3.232105255E0
1.642055311E0	-3.278167009E0	1.028973579E1	-2.732005358E0
1.650458332E0	-3.283550978E0	1.002233791E1	-1.994417667E0
1.658861353E0	-2.743969440E0	9.784252167E0	-9.260223508E-1
1.667264374E0	-1.998605132E0	9.572486877E0	8.913264424E-2
1.675667395E0	-1.401595831E0	9.272188187E0	7.459624410E-1
1.684070416E0	-1.113260746E0	9.007781029E0	9.858429432E-1
1.692473436E0	-1.075573802E0	8.941978455E0	9.637092948E-1
1.700876457E0	-1.134796143E0	9.225527763E0	8.231309652E-1
1.709279478E0	-1.200000525E0	9.410971642E0	5.892325640E-1
1.717682499E0	-1.028913736E0	9.446864128E0	5.563312769E-1
1.726085520E0	-6.610172391E-1	9.447462082E0	7.698906660E-1
1.734488541E0	-4.648058116E-1	9.553942680E0	8.931210637E-1
1.742891561E0	-5.778666735E-1	9.961918831E0	4.456632137E-1
1.751294582E0	-9.828519225E-1	1.038664532E1	-2.177468538E-1
1.759697603E0	-1.504487276E0	1.041296577E1	-6.227321029E-1
1.768100624E0	-2.175673962E0	1.033460140E1	-1.037886858E0
1.776503645E0	-2.824727058E0	1.048415279E1	-1.166501045E0
1.784906666E0	-2.881556749E0	1.035673428E1	-1.372283816E0
1.793309686E0	-2.042872429E0	9.954740524E0	-6.245267391E-1
1.801712707E0	-6.729813814E-1	9.814162254E0	2.434697002E-1
1.810115728E0	3.625126183E-1	9.793823242E0	5.856433511E-1
1.818518749E0	5.324030519E-1	9.693922997E0	6.095715761E-1
1.826921770E0	-1.483550072E-1	9.638887405E0	6.675975323E-1
1.835324791E0	-1.076770186E0	9.785448074E0	7.872386575E-1
1.843727811E0	-1.902892232E0	9.721440315E0	6.442674994E-1
1.852130832E0	-2.310868502E0	9.576076508E0	4.259224236E-1
1.860533853E0	-1.862812400E0	9.623932838E0	4.504488707E-1
1.868936874E0	-1.259821177E0	9.598209381E0	9.326026440E-1
1.877339895E0	-9.230313301E-1	9.500103951E0	1.342971683E0
1.885742916E0	-9.397810698E-1	9.602396965E0	6.197410822E-1
1.894145936E0	-1.176072359E0	9.810572624E0	-2.572284341E-1
1.902548957E0	-1.309472203E0	9.879964828E0	3.110669367E-2
1.910951978E0	-1.246660590E0	9.720243454E0	1.603191197E-1
1.919354999E0	-1.251446247E0	9.712467194E0	-7.956135273E-2
1.927758020E0	-1.196411371E0	9.845867157E0	2.428714931E-1
1.936161041E0	-1.104885817E0	9.823135376E0	6.939185858E-1
1.944564061E0	-1.235294700E0	9.658030510E0	1.359721422E0
1.952967082E0	-1.134796143E0	9.588638306E0	9.122636318E-1
1.961370103E0	-9.696913958E-1	9.652048111E0	2.685943544E-1
1.969773124E0	-7.674978375E-1	9.735198975E0	4.654040039E-1
1.978176145E0	-4.893322289E-1	9.787840843E0	3.511467278E-1
1.986579166E0	-1.447657645E-1	9.940981865E0	1.495514158E-2
1.994982186E0	3.409772366E-2	9.942776680E0	-4.606183618E-2
2.003385207E0	-5.575276613E-1	1.022273636E1	1.226321608E-1
2.011788228E0	-8.548358679E-1	9.978070259E0	-4.869394004E-1
2.020191249E0	-8.787640929E-1	1.000558758E1	-4.247260094E-1
2.028594270E0	-9.278169870E-1	1.012223816E1	-1.292124242E-1
2.036997291E0	-1.033101201E0	1.007438183E1	1.483550072E-1
2.045400311E0	-8.829515576E-1	9.942177773E0	2.596212626E-1
2.053803332E0	-5.587241054E-1	9.847661972E0	4.217349887E-1
2.062206353E0	-3.684946895E-1	9.777671814E0	4.791627228E-1
2.070609374E0	-1.944168359E-1	9.667601585E0	3.194418252E-1
2.079012395E0	6.580262631E-2	9.599406242E0	5.778666735E-1
2.087415416E0	3.068794906E-1	9.596415520E0	7.214360237E-1
2.095818436E0	2.554338276E-1	9.625128746E0	7.148557901E-1
2.104221457E0	-1.088734269E-1	9.602396965E0	5.706881881E-1
2.112624478E0	-2.650051117E-1	9.572486877E0	3.655036688E-1
2.121027499E0	-6.879365444E-2	9.591031075E0	1.435693651E-1
2.129430520E0	2.093719840E-1	9.635298729E0	2.500499785E-1
2.137833541E0	2.847459018E-1	9.734601021E0	1.914258152E-1
2.146236561E0	1.196411327E-1	9.830313683E0	1.172483116E-1
2.154639582E0	-2.177468538E-1	9.798608780E0	2.494517565E-1
2.163042603E0	-4.660021961E-1	9.714262009E0	1.866401732E-1
2.171445624E0	-5.258227587E-1	9.712467194E0	2.105683982E-1
2.179848645E0	-4.313062727E-1	9.665208817E0	3.726821244E-1
2.188251666E0	-4.570291340E-1	9.552745819E0	6.065805554E-1
2.196654686E0	-4.127618968E-1	9.558728218E0	4.486542344E-1
2.205057707E0	-1.651047617E-1	9.629914284E0	3.619144261E-1
2.213460728E0	2.153540403E-2	9.638887405E0	3.720839322E-1
2.221863749E0	-4.426721856E-2	9.770493507E0	2.787638307E-1
2.230266770E0	-1.992024779E-1	1.001456070E1	1.543370634E-1
2.238669791E0	-3.631108403E-1	1.017667484E1	1.782652885E-1
2.247072811E0	-5.192425251E-1	1.016171932E1	2.225325108E-1
2.255475832E0	-6.131607890E-1	1.001934624E1	3.637090325E-1
2.263878853E0	-5.784648657E-1	9.977472305E0	2.757728100E-1
2.272281874E0	-4.995017350E-1	9.937392235E0	3.936193287E-1
2.280684895E0	-4.588237405E-1	9.837491989E0	6.466603279E-1
2.289087916E0	-4.025924206E-1	9.912267685E0	6.245267391E-1
2.297490936E0	-2.697907388E-1	9.989436150E0	4.067798555E-1
2.305893957E0	-2.213360965E-1	9.969695091E0	4.223332107E-1
2.314296978E0	-1.591227055E-1	9.943972588E0	3.774677813E-1
2.322699999E0	2.991028363E-3	9.946365356E0	2.051845491E-1
2.331103020E0	1.064806059E-1	9.853643417E0	7.776673883E-2
2.339506041E0	6.640082598E-2	9.803394318E0	3.888336942E-2
2.347909061E0	-5.024927482E-2	9.788438797E0	-1.196411345E-2
2.356312082E0	-1.860419661E-1	9.767501831E0	-1.615155339E-1
2.364715103E0	-3.206382394E-1	9.731011391E0	-3.726821244E-1
2.373118124E0	-4.486542344E-1	9.813564301E0	-4.809573591E-1
2.381521145E0	-5.078766346E-1	1.004626560E1	-4.241278172E-1
2.389924166E0	-5.647061467E-1	1.039621639E1	-4.534398913E-1
2.398327186E0	-7.686942816E-1	1.049013424E1	-7.399803996E-1
2.406730207E0	-1.006780148E0	1.040937710E1	-7.112665176E-1
2.415133228E0	-1.143171072E0	1.027119160E1	-6.520441771E-1
2.423536249E0	-1.175474167E0	9.986445427E0	-7.112665176E-1
2.431939270E0	-1.040279627E0	9.607781410E0	-6.376872063E-1
2.440342291E0	-7.758727670E-1	9.389435768E0	-4.863412082E-1
2.448745311E0	-4.049852192E-1	9.479166985E0	-3.828516304E-1
2.457148332E0	-6.101697683E-2	9.611968994E0	-4.336991012E-1
2.465551353E0	4.785645381E-2	9.644869804E0	-4.097708762E-1
2.473954374E0	-6.939185411E-2	9.637691498E0	-4.019941986E-1
2.482357395E0	-2.667997181E-1	9.588638306E0	-3.942175210E-1
2.490760416E0	-4.480560422E-1	9.610174179E0	-3.559323549E-1
2.499163436E0	-5.904290080E-1	9.652048111E0	-2.955136001E-1
2.507566457E0	-6.442674994E-1	9.586843491E0	-1.962114573E-1
2.515969478E0	-6.011967063E-1	9.512067795E0	-1.280160099E-1
2.524372499E0	-5.198407173E-1	9.582057953E0	-1.196411345E-2
2.532775520E0	-4.648058116E-1	9.836894035E0	-4.486542568E-2
2.541178541E0	-4.815555513E-1	9.989436150E0	-1.668993831E-1
2.549581561E0	-5.982056856E-1	9.856635094E0	-2.793620527E-1
2.557984582E0	-6.628118753E-1	9.665208817E0	-2.338984162E-1
2.566387603E0	-6.610172391E-1	9.540184021E0	-1.944168359E-1
2.574790624E0	-5.688936114E-1	9.430113792E0	-2.566302419E-1
2.583193645E0	-4.893322289E-1	9.378668785E0	-2.530409992E-1
2.591596666E0	-4.564309120E-1	9.399007797E0	-2.243271172E-1
2.599999686E0	-4.295116663E-1	9.469595909E0	-1.668993831E-1
2.608402707E0	-6.574280262E-1	9.555138588E0	9.870393574E-2
2.616805728E0	-7.256234884E-1	9.658030510E0	-4.217349887E-1
2.625208749E0	-4.809573591E-1	9.923035622E0	-1.021137118E0
2.633611770E0	-1.585244983E-1	1.017667484E1	-1.060618639E0
2.642014791E0	4.007977992E-2	1.014616585E1	-6.747759581E-1
2.650417811E0	2.021935135E-1	9.893723488E0	-4.761717021E-1
2.658820832E0	2.021935135E-1	9.693324089E0	-6.592226624E-1
2.667223853E0	5.982056726E-3	9.646664619E0	-8.865407705E-1
2.675626874E0	-3.254238665E-1	9.687940598E0	-8.344969153E-1
2.684029895E0	-5.306084156E-1	9.770493507E0	-8.656035662E-1
2.692432916E0	-5.503492355E-1	9.883553505E0	-9.517452121E-1
2.700835936E0	-3.332005441E-1	1.002173901E1	-1.030708313E0
2.709238957E0	-1.322034448E-1	1.008634567E1	-8.829515576E-1
2.717641978E0	1.854437590E-2	1.008574772E1	-6.825526357E-1
2.726044999E0	2.093719877E-2	1.004566765E1	-5.718846321E-1
2.734448020E0	-1.130608693E-1	9.997213364E0	-5.497509837E-1
2.742851041E0	-2.650051117E-1	1.000977516E1	-5.964110494E-1
2.751254061E0	-3.984049559E-1	1.001934624E1	-6.795616150E-1
2.759657082E0	-5.036891699E-1	9.974481583E0	-7.692924738E-1
2.768060103E0	-5.365904570E-1	9.801001549E0	-8.554341197E-1
2.776463124E0	-4.295116663E-1	9.689735413E0	-8.039883971E-1
2.784866145E0	-2.309073806E-1	9.645467758E0	-7.064808607E-1
2.793269166E0	-3.649054468E-2	9.594022751E0	-6.388836503E-1
2.801672186E0	8.614161611E-2	9.513862610E0	-5.294120312E-1
2.810075207E0	1.214357466E-1	9.430113792E0	-4.803591371E-1
2.818478228E0	-8.015955985E-2	9.436694145E0	-2.973082066E-1
2.826881249E0	-2.781656384E-1	9.564710617E0	-2.021935135E-1
2.835284270E0	-2.255235314E-1	9.766305923E0	-5.718846321E-1
2.843687291E0	-5.503492057E-2	1.001456070E1	-8.350951076E-1
2.852090311E0	9.750752151E-2	1.003908730E1	-8.757730722E-1
2.860493332E0	1.878365725E-1	9.864411354E0	-6.729813814E-1
2.868896353E0	2.979064286E-1	9.692726135E0	-5.168496966E-1
2.877299374E0	4.013960063E-1	9.592825890E0	-6.550351977E-1
2.885702395E0	3.535395563E-1	9.525228500E0	-5.575276613E-1
2.894105416E0	2.967100143E-1	9.451051712E0	-5.461617708E-1
2.902508436E0	3.511467278E-1	9.439086914E0	-8.267202377E-1
2.910911457E0	5.186443329E-1	9.623334885E0	-8.500502706E-1
2.919314478E0	7.716853023E-1	9.809974670E0	-7.591229677E-1
2.927717499E0	9.912267923E-1	9.848857880E0	-7.956135273E-1
2.936120520E0	1.060020447E0	9.686145782E0	-8.195417523E-1
2.944523541E0	1.001994491E0	9.464810371E0	-7.627122402E-1
2.952926561E0	9.092726111E-1	9.262616158E0	-6.646065116E-1
2.961329582E0	8.967102766E-1	9.215956688E0	-6.508477330E-1
2.969732603E0	8.608179688E-1	9.361918449E0	-4.163511395E-1
2.978135624E0	9.116654396E-1	9.570692062E0	-6.406782866E-1
2.986538645E0	9.212366939E-1	9.766903877E0	-7.764709592E-1
2.994941666E0	8.482556343E-1	9.908080101E0	-6.723831892E-1
3.003344686E0	9.068797827E-1	9.939187050E0	-8.428717852E-1
3.011747707E0	9.708877802E-1	9.870393753E0	-9.098708034E-1
3.020150728E0	9.290133715E-1	9.741181374E0	-7.908278704E-1
3.028553749E0	8.452646136E-1	9.637093544E0	-6.131607890E-1
3.036956770E0	8.015955687E-1	9.568898201E0	-5.623133183E-1
3.045359791E0	8.500502706E-1	9.566504478E0	-5.934200287E-1
3.053762811E0	9.092726111E-1	9.580862045E0	-5.694918036E-1
3.062165832E0	9.535398483E-1	9.597611427E0	-4.911268353E-1
3.070568853E0	9.613165259E-1	9.607182503E0	-5.288137794E-1
3.078971874E0	8.895317912E-1	9.625128746E0	-5.461617708E-1
3.087374895E0	7.848458290E-1	9.596415520E0	-5.114658475E-1
3.095777916E0	7.334001660E-1	9.589237213E0	-4.935196638E-1
3.104180936E0	6.957131624E-1	9.617352486E0	-5.036891699E-1
3.112583957E0	6.281159520E-1	9.561120987E0	-5.084748268E-1
3.120986978E0	6.610172391E-1	9.506086349E0	-5.629115105E-1
3.129389999E0	7.908278704E-1	9.541379929E0	-6.867401004E-1
3.137793020E0	9.332008362E-1	9.560523033E0	-7.836494446E-1
3.146196041E0	1.016949654E0	9.472586632E0	-7.393822074E-1
3.154599061E0	1.040877819E0	9.300303459E0	-6.610172391E-1
3.163002082E0	1.000798106E0	9.233304024E0	-6.179464459E-1
3.171405103E0	9.266205430E-1	9.347561836E0	-6.101697683E-1
3.179808124E0	8.015955687E-1	9.513264656E0	-6.646065116E-1
3.188211145E0	6.406782866E-1	9.651450157E0	-7.070791125E-1
3.196614166E0	4.432703853E-1	9.685547829E0	-7.130611539E-1
3.205017186E0	2.757728100E-1	9.618548393E0	-7.573283911E-1
3.213420207E0	1.537388563E-1	9.538987160E0	-7.633104324E-1
3.221823228E0	6.460621208E-2	9.497711182E0	-7.555337548E-1
3.230226249E0	1.196411322E-3	9.492327690E0	-7.334001660E-1
3.238629270E0	-1.292124242E-1	9.500701904E0	-6.861419082E-1
3.247032291E0	-2.883351147E-1	9.488140106E0	-7.220342159E-1
3.255435311E0	-4.348955154E-1	9.489336014E0	-7.507480979E-1
3.263838332E0	-5.318048596E-1	9.559326172E0	-8.069794178E-1
3.272241353E0	-5.970092416E-1	9.756135941E0	-8.153542876E-1
3.280644374E0	-9.176474810E-1	9.914062500E0	-7.334001660E-1
3.289047395E0	-1.272981644E0	9.918250084E0	-8.584251404E-1
3.297450416E0	-1.376471281E0	9.889535904E0	-1.433300734E0
3.305853436E0	-1.489532113E0	1.019162941E1	-1.613360643E0
3.314256457E0	-1.453041553E0	1.046261692E1	-2.222334146E0
3.322659478E0	-1.206580877E0	1.057149029E1	-2.353341103E0
3.331062499E0	-5.976074338E-1	1.028435135E1	-2.022533417E0
3.339465520E0	3.050848842E-2	9.890133858E0	-1.529611826E0
3.347868541E0	2.488535494E-1	9.757930756E0	-1.119840980E0
3.356271561E0	-2.691925503E-2	9.741779327E0	-9.511470199E-1
3.364674582E0	-4.420739710E-1	9.744172096E0	-9.541380405E-1
3.373077603E0	-8.027920127E-1	9.847063065E0	-8.362914920E-1
3.381480624E0	-1.049850941E0	1.000199890E1	-8.362914920E-1
3.389883645E0	-1.314257860E0	1.013599682E1	-7.232306600E-1
3.398286666E0	-1.552941918E0	1.014018440E1	-6.478567123E-1
3.406689686E0	-1.680957913E0	1.002592659E1	-6.059823632E-1
3.415092707E0	-1.698305845E0	9.874580383E0	-4.163511395E-1
3.423495728E0	-1.556531072E0	9.798010826E0	-3.972085714E-1
3.431898749E0	-1.266401410E0	9.764511108E0	-5.994020700E-1
3.440301770E0	-8.608179688E-1	9.810572624E0	-7.136593461E-1
3.448704791E0	-4.875376225E-1	9.860223770E0	-7.034898400E-1
3.457107811E0	-2.775674164E-1	9.879964828E0	-6.933203340E-1
3.465510832E0	-3.152543902E-1	9.863813400E0	-6.616154313E-1
3.473913853E0	-4.552344978E-1	9.867402077E0	-6.311069727E-1
3.482316874E0	-5.808576941E-1	9.890732765E0	-7.202396393E-1
3.490719895E0	-6.460621357E-1	9.875777245E0	-8.183453679E-1
3.499122916E0	-6.137589812E-1	9.820143700E0	-8.368897438E-1
3.507525936E0	-4.899304509E-1	9.765707016E0	-9.230313301E-1
3.515928957E0	-3.236292601E-1	9.705288887E0	-9.409775138E-1
3.524331978E0	-1.764706671E-1	9.625128746E0	-9.266205430E-1
3.532734999E0	-4.247260094E-2	9.556933403E0	-8.434699774E-1
3.541138020E0	3.888336942E-2	9.559925079E0	-7.710871100E-1
3.549541041E0	3.469592705E-2	9.585647583E0	-7.076773047E-1
3.557944061E0	-2.871387079E-2	9.619745255E0	-6.717849374E-1
3.566347082E0	-1.250249892E-1	9.645467758E0	-6.999006271E-1
3.574750103E0	-2.081755698E-1	9.660423279E0	-6.269195080E-1
3.583153124E0	-2.817548811E-1	9.667003632E0	-5.838487148E-1
3.591556145E0	-3.074777126E-1	9.648459435E0	-4.923232496E-1
3.599959166E0	-3.643072546E-1	9.587442398E0	-4.893322289E-1
3.608362186E0	-6.203392744E-1	9.585647583E0	-3.032902777E-1
3.616765207E0	-6.957131624E-1	9.704689980E0	-6.837490797E-1
3.625168228E0	-6.275177598E-1	9.962516785E0	-1.057029366E0
3.633571249E0	-4.265206456E-1	1.015454102E1	-1.039681435E0
3.641974270E0	-1.842473447E-1	1.028734303E1	-8.937192559E-1
3.650377291E0	-9.810572863E-2	1.024726295E1	-1.014556766E0
3.658780311E0	-2.614158690E-1	9.944570541E0	-1.392622828E0
3.667183332E0	-3.445664644E-1	9.772886276E0	-1.234098315E0
3.675586353E0	-2.632105052E-1	9.761520386E0	-1.117448211E0
3.683989374E0	-1.561316848E-1	9.906884193E0	-1.151545882E0
3.692392395E0	-1.896311939E-1	1.002951622E1	-1.164108157E0
3.700795416E0	-3.427718580E-1	1.006421185E1	-1.197607756E0
3.709198436E0	-5.359922647E-1	1.003549862E1	-1.183250785E0
3.717601457E0	-6.137589812E-1	1.017129040E1	-1.228714466E0
3.726004478E0	-6.879364848E-1	1.028435135E1	-1.311864972E0
3.734407499E0	-7.477570772E-1	1.014975548E1	-1.241874933E0
3.742810520E0	-7.339983582E-1	1.009830952E1	-1.042672515E0
3.751213541E0	-7.357929349E-1	1.017727280E1	-9.122636318E-1
3.759616561E0	-8.739784956E-1	1.021615601E1	-1.020538807E0
3.768019582E0	-1.051645517E0	1.018804073E1	-9.290133715E-1
3.776422603E0	-1.140778184E0	1.022991467E1	-7.292127013E-1
3.784825624E0	-1.186241865E0	1.027358437E1	-6.454638839E-1
3.793228645E0	-1.112064362E0	1.032203865E1	-5.587241054E-1
3.801631666E0	-9.876375198E-1	1.028913784E1	-5.635097623E-1
3.810034686E0	-9.116654396E-1	1.027178955E1	-5.365904570E-1
3.818437707E0	-9.164510965E-1	1.035733318E1	-5.659025311E-1
3.826840728E0	-9.062815905E-1	1.046800041E1	-6.041877270E-1
3.835243749E0	-8.775677085E-1	1.048534870E1	-5.724828243E-1
3.843646770E0	-8.751748800E-1	1.053081226E1	-5.952146053E-1
3.852049791E0	-8.267202377E-1	1.059063339E1	-7.172485590E-1
3.860452811E0	-6.406782866E-1	1.061515903E1	-6.735795736E-1
3.868855832E0	-5.443671346E-1	1.037587738E1	-4.905286431E-1
3.877258853E0	-4.923232496E-1	1.032622623E1	-5.563312769E-1
3.885661874E0	-9.942178130E-1	1.037168980E1	-1.100100160E0
3.894064895E0	-1.791027784E0	1.015872860E1	-1.524826288E0
3.902467916E0	-2.548954248E0	9.628718376E0	-1.524227977E0
3.910870936E0	-3.166302681E0	9.049057007E0	-1.529611826E0
3.919273957E0	-3.466003656E0	8.687741280E0	-1.405185103E0
3.927676978E0	-3.225524902E0	8.599205971E0	-1.143171072E0
3.936079999E0	-2.752344131E0	8.553144455E0	-1.438086390E0
3.944483020E0	-2.447259426E0	8.663214684E0	-1.188036442E0
3.952886041E0	-2.363510609E0	8.675776482E0	-1.044467092E0
3.961289061E0	-2.404188633E0	8.653642654E0	-1.095314622E0
3.969692082E0	-2.548356056E0	8.642875671E0	-1.182652593E0
3.978095103E0	-2.591426849E0	8.699705124E0	-1.237089276E0
3.986498124E0	-2.435893536E0	8.880961418E0	-1.213161111E0
3.994901145E0	-2.141576290E0	9.141180992E0	-1.226919770E0
4.003304166E0	-1.906481385E0	9.229715347E0	-1.241276741E0
4.011707186E0	-1.774876237E0	9.175876617E0	-1.116850019E0
4.020110207E0	-1.616949916E0	9.206384659E0	-1.120439172E0
4.028513228E0	-1.475773335E0	9.302098274E0	-1.052243710E0
4.036916249E0	-1.309472203E0	9.431908607E0	-9.720842242E-1
4.045319270E0	-1.074377418E0	9.554540634E0	-9.068797827E-1
4.053722291E0	-8.141579032E-1	9.668199539E0	-8.997012973E-1
4.062125311E0	-6.107679605E-1	9.802796364E0	-7.950153351E-1
4.070528332E0	-5.180460811E-1	9.876375198E0	-7.262216806E-1
4.078931353E0	-5.036891699E-1	9.849455833E0	-5.946164131E-1
4.087334374E0	-4.965106845E-1	9.795618057E0	-4.426721931E-1
4.095737395E0	-4.630111754E-1	9.766305923E0	-3.326023519E-1
4.104140416E0	-3.834498227E-1	9.815358162E0	-2.805584669E-1
4.112543436E0	-3.511467278E-1	9.860223770E0	-2.775674164E-1
4.120946457E0	-3.936193287E-1	9.882357597E0	-3.260220885E-1
4.129349478E0	-4.935196638E-1	9.899106979E0	-4.247260094E-1
4.137752499E0	-5.419743061E-1	9.866206169E0	-4.600201547E-1
4.146155520E0	-4.151547253E-1	9.832108498E0	-4.546363056E-1
4.154558541E0	-1.345962733E-1	9.854242325E0	-4.175475538E-1
4.162961561E0	2.602194548E-1	9.865009308E0	-3.595215976E-1
4.171364582E0	7.076773047E-1	9.797411919E0	-3.260220885E-1
4.179767603E0	1.070189953E0	9.756733894E0	-2.338984162E-1
4.188170624E0	1.275374413E0	9.647860527E0	-2.189432681E-1
4.196573645E0	1.430309772E0	9.436694145E0	-2.398804724E-1
4.204976666E0	1.762313843E0	9.296115875E0	-3.439682424E-1
4.213379686E0	2.300100803E0	9.389435768E0	-5.240281820E-1
4.221782707E0	2.860619545E0	9.448060036E0	-5.988038778E-1
4.230185728E0	3.240479946E0	9.535398483E0	-5.647061467E-1
4.238588749E0	3.323630571E0	9.709476471E0	-6.520441771E-1
4.246991770E0	3.036491871E0	9.739984512E0	-7.579265833E-1
4.255394791E0	2.492722988E0	9.501300812E0	-7.058826685E-1
4.263797811E0	2.228914261E0	9.332606316E0	-6.532405615E-1
4.272200832E0	2.384447813E0	9.382855415E0	-7.764709592E-1
4.280603853E0	2.779861689E0	9.445667267E0	-6.628118753E-1
4.289006874E0	3.477369547E0	9.506086349E0	-3.050848842E-2
4.297409895E0	4.604389191E0	1.043928719E1	7.758727670E-1
4.305812916E0	5.573482037E0	1.194257736E1	4.725824594E-1
4.314215936E0	4.472783566E0	1.231107235E1	-5.048855543E-1
4.322618957E0	1.345364571E0	1.148794174E1	-9.613165259E-1
4.331021978E0	-2.467000246E0	1.040877819E1	-1.112064362E0
4.339424999E0	-5.815157413E0	9.936196327E0	-6.185446382E-1
4.347828020E0	-7.634898663E0	1.024247742E1	-4.839483798E-1
4.356231041E0	-6.594619274E0	1.098245811E1	-2.011765718E0
4.364634061E0	-2.880958557E0	1.182293701E1	-3.658625841E0
4.373037082E0	9.882357717E-1	1.191326618E1	-2.632104874E0
4.381440103E0	4.018147469E0	1.099382401E1	-3.499503136E-1
4.389843124E0	5.300700188E0	9.905089378E0	4.989035130E-1
4.398246145E0	4.271188259E0	9.385847092E0	3.589233849E-3
4.406649166E0	1.992024899E0	9.379266739E0	-3.349951804E-1
4.415052186E0	-8.494520187E-2	9.544969559E0	2.871387079E-2
4.423455207E0	-1.024128079E0	9.614959717E0	3.308077157E-1
4.431858228E0	-1.296909928E0	9.644271851E0	1.357926875E-1
4.440261249E0	-1.558325768E0	9.778867722E0	4.223332107E-1
4.448664270E0	-1.883749604E0	9.893723488E0	3.684946895E-1
4.457067291E0	-1.908276081E0	1.011685371E1	-7.968099117E-1
4.465470311E0	-1.694716692E0	1.050748253E1	-1.451845169E0
4.473873332E0	-1.239482164E0	1.060798073E1	-2.015953064E-1
4.482276353E0	-8.560323119E-1	1.034656525E1	8.865407705E-1
4.490679374E0	-9.409775138E-1	1.000977516E1	1.358525038E0
4.499082395E0	-1.378265858E0	9.590433121E0	1.943570137E0
4.507485416E0	-1.771286964E0	9.147162437E0	2.173879385E0
4.515888436E0	-1.806581140E0	9.159127235E0	1.871187329E0
4.524291457E0	-1.842473388E0	9.409774780E0	1.319641709E0
4.532694478E0	-1.855633974E0	9.495318413E0	5.347958803E-1
4.541097499E0	-1.280758262E0	9.596415520E0	-1.238285750E-1
4.549500520E0	-3.972085714E-1	1.001456070E1	-6.610172391E-1
4.557903541E0	3.421736360E-1	1.002652550E1	-1.292124271E0
4.566306561E0	-2.883351147E-1	1.070847988E1	-1.027717352E0
4.574709582E0	-6.975077987E-1	1.002054310E1	-5.144568682E-1
4.583112603E0	-9.762716293E-1	9.824930191E0	-6.442674994E-1
4.591515624E0	-1.532004714E0	9.732806206E0	2.033899166E-2
4.599918645E0	-1.790429592E0	9.460023880E0	6.071787477E-1
4.608321666E0	-1.945364833E0	9.516854286E0	5.730810165E-1
4.616724686E0	-1.982453585E0	9.615557671E0	3.062812984E-1
4.625127707E0	-1.701296926E0	9.579665184E0	2.530409992E-1
4.633530728E0	-9.708877802E-1	9.667601585E0	-1.076770201E-2
4.641933749E0	-6.269195080E-1	9.772886276E0	4.067798331E-2
4.650336770E0	-8.602197170E-1	9.736993790E0	7.178468257E-2
4.658739791E0	-1.288534999E0	9.664012909E0	-2.416750938E-1
4.667142811E0	-1.558923960E0	9.686145782E0	-1.651047617E-1
4.675545832E0	-1.664208174E0	9.598808289E0	1.453639716E-1
4.683948853E0	-1.749751568E0	9.585647583E0	1.722832322E-1
4.692351874E0	-1.841277003E0	9.627521515E0	1.076770201E-2
4.700754895E0	-2.067996979E0	9.518050194E0	1.615155302E-2
4.709157916E0	-2.288734913E0	9.470791817E0	6.281159073E-2
4.717560936E0	-2.224726915E0	9.551549911E0	-2.321037948E-1
4.725963957E0	-1.930409670E0	9.731609344E0	-3.726821244E-1
4.734366978E0	-1.735992789E0	9.832706451E0	-3.786641955E-1
4.742769999E0	-1.684547186E0	9.765109062E0	-2.392822653E-1
4.751173020E0	-1.703689694E0	9.561718941E0	-1.794617027E-1
4.759576041E0	-1.717448473E0	9.549157143E0	-1.932204217E-1
4.767979061E0	-1.748555183E0	9.832108498E0	-2.536391914E-1
4.776382082E0	-1.531406522E0	1.018505001E1	-5.670989752E-1
4.784785103E0	-1.298704505E0	1.019641590E1	-5.988038778E-1
4.793188124E0	-1.046859860E0	1.020837975E1	-2.362912297E-1
4.801591145E0	-7.627122402E-1	1.049312592E1	-1.316052489E-2
4.809994166E0	-6.831508875E-1	1.102971554E1	2.506481707E-1
4.818397186E0	-8.907282352E-1	1.186002541E1	4.265206456E-1
4.826800207E0	-1.241276741E0	1.286142159E1	4.546363056E-1
4.835203228E0	-1.555334687E0	1.369412422E1	3.200400174E-1
4.843606249E0	-1.717448473E0	1.351585865E1	-3.828516304E-1
4.852009270E0	-1.546959877E0	1.242891884E1	-1.045065284E0
4.860412291E0	-1.505085468E0	1.228834057E1	-6.831508875E-1
4.868815311E0	-1.482353687E0	1.337169075E1	-7.351947427E-1
4.877218332E0	-1.542772412E0	1.433599854E1	-9.343972206E-1
4.885621353E0	-1.575673699E0	1.444726467E1	-1.125224829E0
4.894024374E0	-2.309073925E0	1.437607861E1	-1.313659668E0
4.902427395E0	-3.210569859E0	1.381914902E1	-1.548156261E0
4.910830416E0	-3.061018467E0	1.322273827E1	-1.165304661E0
4.919233436E0	-1.992623091E0	1.270828152E1	-9.948160052E-1
4.927636457E0	-7.710871100E-1	1.208495045E1	-7.274180651E-1
4.936039478E0	4.109672904E-1	1.127557850E1	-8.554340899E-2
4.944442499E0	1.533799291E0	1.037348461E1	7.244270444E-1
4.952845520E0	2.485544443E0	9.593423843E0	1.352542996E0
4.961248541E0	3.512663603E0	9.592825890E0	1.768295884E0
4.969651561E0	3.999603033E0	9.403194427E0	2.812762976E0
4.978054582E0	3.671786308E0	9.608379364E0	3.339184046E0
4.986457603E0	1.876571178E0	9.876974106E0	2.028515339E0
4.994860624E0	-1.096511006E0	9.661619186E0	1.441675574E-1
5.003263645E0	-3.910470486E0	8.945567131E0	-4.947160780E-1
5.011666666E0	-5.776872158E0	7.834101200E0	-6.610172391E-1
5.020069686E0	-5.861218929E0	7.042675018E0	-7.423732281E-1
5.028472707E0	-4.676771641E0	6.873383045E0	-8.937192559E-1
5.036875728E0	-3.187838078E0	7.141977310E0	-6.963114142E-1
5.045278749E0	-2.049452543E0	7.384250641E0	-3.236292601E-1
5.053681770E0	-1.838286042E0	7.142575741E0	-2.428714931E-1
5.062084791E0	-2.163709879E0	7.001997471E0	-2.536391914E-1
5.070487811E0	-2.736790895E0	6.967899323E0	-5.641079545E-1
5.078890832E0	-3.256033421E0	7.025925636E0	-8.973084688E-1
5.087293853E0	-3.283550978E0	7.052844524E0	-9.290133715E-1
5.095696874E0	-2.748754978E0	7.129415035E0	-9.391828775E-1
5.104099895E0	-1.831107497E0	7.395616531E0	-9.415757060E-1
5.112502916E0	-9.218349457E-1	7.800601959E0	-1.102493048E0
5.120905936E0	-2.291127741E-1	8.174480438E0	-1.240080357E0
5.129308957E0	2.045863420E-1	8.390432358E0	-1.226321578E0
5.137711978E0	5.150550604E-1	8.589634895E0	-1.158724308E0
5.146114999E0	6.418746710E-1	8.817551613E0	-1.137787223E0
5.154518020E0	6.987041831E-1	9.026923180E0	-1.067797065E0
5.162921041E0	8.303094506E-1	9.174081802E0	-9.529415965E-1
5.171324061E0	1.013958573E0	9.345767021E0	-8.853443861E-1
5.179727082E0	1.372882009E0	9.658030510E0	-9.206385016E-1
5.188130103E0	1.767099500E0	9.960124016E0	-1.108475089E0
5.196533124E0	2.050050735E0	1.021077251E1	-1.112064362E0
5.204936145E0	2.134397745E0	1.035733318E1	-1.179661512E0
5.213339166E0	2.038086653E0	1.048056316E1	-9.056833982E-1
5.221742186E0	1.872981906E0	1.053440189E1	-8.650053740E-1
5.230145207E0	1.905883193E0	1.057328510E1	-6.867401004E-1
5.238548228E0	2.715255499E0	1.050808048E1	-4.618147612E-1
5.246951249E0	3.823730469E0	1.071685410E1	1.316052489E-2
5.255354270E0	4.606183529E0	1.122712421E1	5.174478889E-1
5.263757291E0	4.577469826E0	1.118225861E1	7.381857634E-1
5.272160311E0	4.010969162E0	1.092622662E1	8.626125455E-1
5.280563332E0	3.555136204E0	1.088853931E1	7.980063558E-1
5.288966353E0	3.535395384E0	1.099322510E1	3.403790295E-1
5.297369374E0	3.796213150E0	1.073420238E1	-1.866401732E-1
5.305772395E0	4.218546391E0	1.024606609E1	-1.010967568E-1
5.314175416E0	4.801796913E0	9.821340561E0	3.224328458E-1
5.322578436E0	5.372485161E0	9.320044518E0	5.688936114E-1
5.330981457E0	5.930012703E0	8.892925262E0	4.761717021E-1
5.339384478E0	6.277570248E0	9.288937569E0	4.815555513E-1
5.347787499E0	6.203990936E0	1.015573788E1	5.288137794E-1
5.356190520E0	5.749354839E0	9.922437668E0	6.699903309E-2
5.364593541E0	5.194219589E0	8.562715530E0	-6.675975323E-1
5.372996561E0	4.570889473E0	7.720442295E0	-7.914260626E-1
5.381399582E0	4.063013077E0	7.422535896E0	-5.988038778E-1
5.389802603E0	3.990031719E0	7.439285755E0	-2.883351147E-1
5.398205624E0	4.052245140E0	7.669594765E0	-5.084748268E-1
5.406608645E0	3.871587038E0	8.124829292E0	-1.062413216E0
5.415011666E0	3.105285645E0	8.263612747E0	-1.456032634E0
5.423414686E0	1.829911113E0	1.182891846E1	-1.716850281E0
5.431817707E0	-1.072582722E0	1.931247139E1	-2.274377823E0
5.440220728E0	-7.031309128E0	2.384029007E1	-6.209374666E-1
5.448623749E0	-1.752084541E1	2.442354012E1	3.492324591E0
5.457026770E0	-1.972583199E1	1.785284996E1	1.386640668E0
5.465429791E0	-9.802796364E0	4.793421745E0	-4.236492634E0
5.473832811E0	-4.331009090E-1	1.088734269E-1	-7.115656376E0
5.482235832E0	6.538986206E0	5.229514122E0	-5.597410202E0
5.490638853E0	9.278169632E0	1.144965649E1	-1.625923038E0
5.499041874E0	7.634898663E0	1.318026543E1	2.202593327E0
5.507444895E0	4.924428940E0	1.206042480E1	3.747758389E0
5.515847916E0	2.509472847E0	1.026102161E1	2.919841766E0
5.524250936E0	-3.062812984E-1	8.971290588E0	1.244866014E0
5.532653957E0	-3.736392498E0	8.460422516E0	4.809573591E-1
5.541056978E0	-5.799005508E0	8.691927910E0	2.195414752E-1
5.549459999E0	-4.905884743E0	9.290732384E0	-7.076773047E-1
5.557863020E0	-1.804786444E0	1.010488987E1	-1.277767301E0
5.566266041E0	6.568298340E-1	1.029990482E1	-8.440681696E-1
5.574669061E0	1.583450437E0	1.037946606E1	2.327020019E-1
5.583072082E0	1.277767301E0	1.054516983E1	3.314059377E-1
5.591475103E0	1.615155339E-1	1.071206856E1	-2.315055877E-1
5.599878124E0	-1.402194023E0	1.037886810E1	-7.178467698E-3
5.608281145E0	-2.538186550E0	9.636494637E0	3.768695593E-1
5.616684166E0	-2.716451883E0	9.232706070E0	6.819544435E-1
5.625087186E0	-1.844866276E0	9.377471924E0	7.489534616E-1
5.633490207E0	-6.245267391E-1	9.576076508E0	8.913264275E-1
5.641893228E0	4.498506486E-1	9.759127617E0	1.302293777E0
5.650296249E0	1.119840980E0	9.988838196E0	9.158528447E-1
5.658699270E0	8.267202377E-1	1.019222832E1	3.206382394E-1
5.667102291E0	-1.423729509E-1	9.965508461E0	4.307080805E-1
5.675505311E0	-1.043868899E0	9.682557106E0	4.761717021E-1
5.683908332E0	-1.380658627E0	9.674181938E0	1.064806059E-1
5.692311353E0	-1.405783296E0	9.713065147E0	-1.471585929E-1
5.700714374E0	-1.340578914E0	9.643074989E0	9.511470050E-2
5.709117395E0	-1.158126116E0	9.661619186E0	3.810569942E-1
5.717520416E0	-8.799605370E-1	9.790233612E0	1.004985496E-1
5.725923436E0	-7.082754970E-1	9.911669731E0	2.333002165E-2
5.734326457E0	-5.748756528E-1	9.902696609E0	3.044866920E-1
5.742729478E0	-3.619144261E-1	9.845269203E0	4.773681164E-1
5.751132499E0	-2.763710022E-1	9.723833084E0	8.039883971E-1
5.759535520E0	-2.638086975E-1	9.587442398E0	1.077966571E0
5.767938541E0	-3.314059377E-1	9.578469276E0	8.530412912E-1
5.776341561E0	-3.505485058E-1	9.613164902E0	6.472585201E-1
5.784744582E0	-3.451646566E-1	9.652647018E0	7.160521746E-1
5.793147603E0	-2.261217386E-1	9.658030510E0	6.089733839E-1
5.801550624E0	-6.699903309E-2	9.678967476E0	5.497509837E-1
5.809953645E0	-3.349951655E-2	9.813564301E0	4.163511395E-1
5.818356666E0	-3.194418252E-1	1.001456070E1	4.037888348E-1
5.826759686E0	-6.783652306E-1	1.006600666E1	2.847459018E-1
5.835162707E0	-8.632107973E-1	1.002353382E1	2.273181453E-2
5.843565728E0	-8.117650747E-1	9.995418549E0	-1.178465188E-1
5.851968749E0	-6.753742099E-1	9.957133293E0	2.632104978E-2
5.860371770E0	-5.180460811E-1	9.921838760E0	2.865405083E-1
5.868774791E0	-4.360919297E-1	9.878767967E0	4.731806815E-1
5.877177811E0	-3.846462369E-1	9.814162254E0	4.905286431E-1
5.885580832E0	-4.031906128E-1	9.809376717E0	5.880361795E-1
5.893983853E0	-4.851447940E-1	9.856036186E0	5.718846321E-1
5.902386874E0	-6.317051649E-1	9.934999466E0	3.738785386E-1
5.910789895E0	-7.692924738E-1	1.009830952E1	1.363908947E-1
5.919192916E0	-8.536394835E-1	1.018624592E1	-2.225325108E-1
5.927595936E0	-9.332008362E-1	1.037348461E1	-3.684946895E-1
5.935998957E0	-9.876375198E-1	1.058285618E1	-6.729813814E-1
5.944401978E0	-8.662018180E-1	1.076471043E1	-1.014556766E0
5.952804999E0	-6.819544435E-1	1.094477081E1	-1.160519004E0
5.961208020E0	-7.363911867E-1	1.066540909E1	-1.326221943E0
5.969611041E0	-9.451649189E-1	1.062173939E1	-1.264008522E0
5.978014061E0	-1.062413216E0	1.115593719E1	-1.116251707E0
5.986417082E0	-1.487737536E0	1.367558002E1	-2.183450609E-1
5.994820103E0	-2.417947292E0	1.803590012E1	2.309073806E-1
6.003223124E0	-3.413361549E0	2.116511536E1	-6.783652306E-1
6.011626145E0	-4.067798615E0	2.035155487E1	-2.371287346E0
6.020029166E0	-5.362315655E0	1.643749428E1	-2.515454769E0
6.028432186E0	-6.757929325E0	1.373540020E1	-1.922633052E0
6.036835207E0	-6.220142365E0	1.296909904E1	-1.307677627E0
6.045238228E0	-3.754936934E0	1.286441231E1	-1.059422255E0
6.053641249E0	-7.842476368E-1	1.228235817E1	-5.898307562E-1
6.062044270E0	1.554138303E0	1.126959610E1	4.588237405E-1
6.070447291E0	3.221337557E0	9.765109062E0	1.782652855E0
6.078850311E0	4.936991215E0	9.058628082E0	3.777668715E0
6.087253332E0	6.595217228E0	9.428917885E0	5.105087280E0
6.095656353E0	6.296712875E0	1.029093170E1	4.975874901E0
6.104059374E0	2.383251429E0	1.036690426E1	2.658426046E0
6.112462395E0	-3.384049416E0	9.391230583E0	2.213360965E-1
6.120865416E0	-8.003393173E0	8.027919769E0	-6.628118753E-1
6.129268436E0	-8.931210518E0	6.495316982E0	-9.649057388E-1
6.137671457E0	-5.233701229E0	5.876173973E0	-1.194018483E0
6.146074478E0	-8.213363886E-1	6.403791428E0	-1.087537885E0
6.154477499E0	2.229512453E0	6.991827965E0	-6.281159520E-1
6.162880520E0	3.598805189E0	7.024729252E0	1.812563092E-1
6.171283541E0	3.151347399E0	6.295516491E0	7.531409264E-1
6.179686561E0	1.612164259E0	5.515456200E0	7.752745152E-1
6.188089582E0	-2.195414752E-1	5.155934811E0	6.400800347E-1
6.196492603E0	-1.628913999E0	5.144568920E0	5.377869010E-1
6.204895624E0	-2.245065928E0	5.256433010E0	5.389832854E-1
6.213298645E0	-2.056032896E0	5.431109428E0	6.610172391E-1
6.221701666E0	-1.341775298E0	5.749354839E0	7.800601721E-1
6.230104686E0	-4.677968323E-1	6.257829189E0	6.436693072E-1
6.238507707E0	1.310070455E-1	6.753741741E0	3.834498227E-1
6.246910728E0	4.193421602E-1	7.131209850E0	1.758724600E-1
6.255313749E0	5.222335458E-1	7.390232563E0	6.281159073E-2
6.263716770E0	5.808576941E-1	7.599006653E0	6.400800496E-2
6.272119791E0	8.081758618E-1	7.879564762E0	6.640082598E-2
6.280522811E0	1.292722464E0	8.348558426E0	4.307080805E-2
6.288925832E0	1.875972986E0	8.920442581E0	-4.127619043E-2
6.297328853E0	2.344966173E0	9.453444481E0	-9.870393574E-2
6.305731874E0	2.669193745E0	9.926026344E0	-1.603191197E-1
6.314134895E0	2.898904562E0	1.032443142E1	-3.900300860E-1
6.322537916E0	3.053241730E0	1.070907784E1	-7.549355626E-1
6.330940936E0	3.126222849E0	1.097109222E1	-8.907282352E-1
6.339343957E0	3.174079180E0	1.116072273E1	-7.866404653E-1
6.347746978E0	3.152543783E0	1.126600742E1	-4.851447940E-1
6.356149999E0	2.993421078E0	1.124267673E1	-1.752742529E-1
6.364553020E0	2.700300455E0	1.117986584E1	-7.776673418E-3
6.372956041E0	2.224128723E0	1.109731293E1	1.615155302E-2
6.381359061E0	1.685743570E0	1.107398319E1	-1.375873014E-2
6.389762082E0	1.201795220E0	1.103210926E1	-1.220339537E-1
6.398165103E0	8.416753411E-1	1.103390312E1	-3.188436031E-1
6.406568124E0	7.010970116E-1	1.124267673E1	-3.565305769E-1
6.414971145E0	1.060618639E0	1.162672520E1	-3.571287692E-1
6.423374166E0	1.944766641E0	1.191685486E1	-5.461617708E-1
6.431777186E0	3.104687452E0	1.202752304E1	-7.016952634E-1
6.440180207E0	4.451248169E0	1.214895916E1	-6.993024349E-1
6.448583228E0	5.367699623E0	1.208674526E1	-6.658028960E-1
6.456986249E0	5.115854740E0	1.155194950E1	-4.737788737E-1
6.465389270E0	3.887738705E0	1.084427261E1	-3.092723191E-1
6.473792291E0	2.754737139E0	1.037168980E1	-4.139583111E-1
6.482195311E0	2.574079037E0	9.772886276E0	-5.096712112E-1
6.490598332E0	3.364308596E0	9.517452240E0	-7.250252366E-1
6.499001353E0	4.299304008E0	9.531210899E0	-5.012963414E-1
6.507404374E0	5.211567879E0	9.906285286E0	-3.188436031E-1
6.515807395E0	6.125027657E0	1.056490993E1	-8.159525394E-1
6.524210416E0	6.750751019E0	1.047458076E1	-1.063011408E0
6.532613436E0	7.238886833E0	9.753145218E0	-3.625126183E-1
6.541016457E0	7.623532772E0	9.195018768E0	1.806581169E-1
6.549419478E0	8.006982803E0	9.652647018E0	-3.290131316E-2
6.557822499E0	7.552944660E0	1.146042442E1	-1.398006678E0
6.566225520E0	4.482355118E0	1.603789330E1	-3.613760471E0
6.574628541E0	-2.048256159E0	1.859761620E1	-4.908277512E0
6.583031561E0	-1.672523117E1	1.538226032E1	-2.599203587E0
6.591434582E0	-3.122813034E1	9.633503914E0	-9.014959335E-1
6.599837603E0	-2.272882462E1	7.188039303E0	9.990034252E-2
6.608240624E0	-6.282954216E0	6.735197544E0	2.257628202E0
6.616643645E0	7.064210415E0	9.140582085E0	4.319044948E-1
6.625046666E0	1.608515167E1	1.075872898E1	-2.103889227E0
6.633449686E0	1.732164383E1	1.109970570E1	2.572284341E-1
6.641852707E0	1.101834965E1	1.068574810E1	4.710869789E0
6.650255728E0	4.418945312E0	1.039801121E1	5.143970490E0
6.658658749E0	-6.340979934E-1	1.023649502E1	3.043670416E0
6.667061770E0	-5.204389095E0	9.803992271E0	1.938186288E-1
6.675464791E0	-9.166903496E0	9.165707588E0	-2.472383976E0
6.683867811E0	-9.564710617E0	8.801400185E0	-4.538586140E0
6.692270832E0	-5.534000397E0	9.414560318E0	-4.837689400E0
6.700673853E0	-3.649054468E-1	1.056730270E1	-2.986242771E0
6.709076874E0	3.642474174E0	1.117926693E1	-4.564309120E-1
6.717479895E0	5.612365723E0	1.118584728E1	2.654836655E0
6.725882916E0	4.800002098E0	1.021316528E1	3.893122435E0
6.734285936E0	1.728216171E0	9.354142189E0	3.937389612E0
6.742688957E0	-1.683948994E0	8.968897820E0	3.125026464E0
6.751091978E0	-4.088735580E0	8.825926781E0	1.939980984E0
6.759494999E0	-4.917250633E0	8.919844627E0	6.897311211E-1
6.767898020E0	-3.964308977E0	9.324232101E0	5.623133108E-2
6.776301041E0	-1.905883193E0	9.695717812E0	-5.096712112E-1
6.784704061E0	2.213360965E-1	1.010907745E1	-7.004988194E-1
6.793107082E0	1.585245013E0	1.062413216E1	-6.334998012E-1
6.801510103E0	1.545763373E0	1.063848972E1	-8.572286963E-1
6.809913124E0	6.233302951E-1	1.030887794E1	-8.745766878E-1
6.818316145E0	-3.720839322E-1	1.003071213E1	-3.140579760E-1
6.826719166E0	-1.116850019E0	9.845269203E0	2.781656384E-1
6.835122186E0	-1.501496196E0	9.543174744E0	3.074777126E-1
6.843525207E0	-1.614557028E0	9.239884377E0	4.061816335E-1
6.851928228E0	-1.455434322E0	9.227920532E0	6.263213158E-1
6.860331249E0	-9.810572863E-1	9.332008362E0	7.268198729E-1
6.868734270E0	-4.295116663E-1	9.535996437E0	6.831508875E-1
6.877137291E0	-2.428714931E-1	9.606584549E0	7.142575383E-1
6.885540311E0	-3.589234054E-1	9.536594391E0	6.400800347E-1
6.893943332E0	-5.533402562E-1	9.567701340E0	5.581258535E-1
6.902346353E0	-8.350951076E-1	9.677771568E0	4.486542344E-1
6.910749374E0	-1.106082320E0	9.815957069E0	2.871387079E-2
6.919152395E0	-1.349551916E0	9.936196327E0	1.316052489E-2
6.927555416E0	-1.296909928E0	9.965508461E0	-1.896311939E-1
6.935958436E0	-1.036092162E0	9.984052658E0	-3.702892959E-1
6.944361457E0	-6.658028960E-1	9.953543663E0	-1.603191197E-1
6.952764478E0	-4.522434771E-1	9.982855797E0	3.649054468E-2
6.961167499E0	-4.414757788E-1	9.910472870E0	3.463610709E-1
6.969570520E0	-3.655036688E-1	9.790233612E0	6.107679605E-1
6.977973541E0	-6.221338734E-2	9.731609344E0	7.154539824E-1
6.986376561E0	2.715853751E-1	9.862616539E0	8.608179688E-1
6.994779582E0	3.535395563E-1	9.961320877E0	6.675975323E-1
7.003182603E0	1.316052526E-1	1.015513897E1	5.198407173E-1
7.011585624E0	-3.170489967E-1	1.044287586E1	2.410768867E-1
7.019988645E0	-7.722834945E-1	1.081017494E1	-7.477571070E-2
7.028391666E0	-4.480560422E-1	1.027956581E1	-1.001396298E0
7.036794686E0	4.809573591E-1	1.081615639E1	-7.034898400E-1
7.045197707E0	-2.003988922E-1	1.166142082E1	-3.547359705E-1
7.053600728E0	-9.846464992E-1	1.319282722E1	-7.369893789E-1
7.062003749E0	-1.484148264E0	1.526202106E1	2.045863420E-1
7.070406770E0	-1.787438512E0	1.606720543E1	-3.523431420E-1
7.078809791E0	-2.459223509E0	1.509871101E1	-1.581057549E0
7.087212811E0	-3.761517286E0	1.382213974E1	-1.909472466E0
7.095615832E0	-4.826921463E0	1.347817135E1	-1.760519266E0
7.104018853E0	-4.462016106E0	1.379881001E1	-1.848455548E0
7.112421874E0	-3.273381472E0	1.426840115E1	-1.563709617E0
7.120824895E0	-2.219342947E0	1.417627811E1	-1.108475089E0
7.129227916E0	-1.398006678E0	1.384606838E1	-7.268198729E-1
7.137630936E0	-7.896314859E-1	1.297627735E1	7.776673418E-3
7.146033957E0	-1.417747438E-1	1.160279655E1	4.887340367E-1
7.154436978E0	9.038887620E-1	1.032443142E1	6.927221417E-1
7.162839999E0	2.428116798E0	9.387042999E0	1.536790371E0
7.171243020E0	4.317848682E0	9.382855415E0	2.751147747E0
7.179652227E0	6.067001820E0	1.024666500E1	3.311068296E0
7.188055247E0	5.549553871E0	1.098245811E1	2.737389088E0
7.196458268E0	1.285543919E0	1.037886810E1	1.199402332E0
7.204861289E0	-3.032304525E0	9.327222824E0	2.925225794E-1
7.213264310E0	-4.889732838E0	8.298309326E0	-4.935196638E-1
7.221667331E0	-3.452843189E0	7.767700672E0	-9.571290612E-1
7.230070352E0	-6.999006271E-1	7.924430370E0	-1.033101201E0
7.238473372E0	1.622333765E0	8.126624107E0	-7.310073376E-1
7.246876393E0	2.943770170E0	7.956733704E0	-3.451646566E-1
7.255279414E0	2.873181820E0	7.381259441E0	-1.513460279E-1
7.263682435E0	1.805982947E0	6.879963398E0	-1.256231815E-1
7.272085456E0	2.584248483E-1	6.454041004E0	-2.410768867E-1
7.280488477E0	-1.031904817E0	6.050850391E0	-3.164508045E-1
7.288891497E0	-1.588235974E0	5.781059742E0	-2.751746178E-1
7.297294518E0	-1.488933921E0	5.647061348E0	-2.392822653E-1
7.305697539E0	-1.013958573E0	5.744568825E0	-1.573280841E-1
7.314100560E0	-4.456632137E-1	5.985645771E0	-1.184447184E-1
7.322503581E0	4.067798331E-2	6.195616245E0	-1.447657645E-1
7.330906602E0	4.295116663E-1	6.435496330E0	-2.416750938E-1
7.339309622E0	6.179464459E-1	6.686144829E0	-4.642075896E-1
7.347712643E0	6.669993401E-1	6.917650223E0	-6.364908218E-1
7.356115664E0	7.489534616E-1	7.199405193E0	-7.292127013E-1
7.364518685E0	9.864411354E-1	7.490133286E0	-8.087740541E-1
7.372921706E0	1.373480201E0	7.762316704E0	-8.446664214E-1
7.381324727E0	1.754537225E0	7.958528042E0	-8.745766878E-1
7.389727747E0	2.096112728E0	8.201399803E0	-9.326026440E-1
7.398130768E0	2.335394859E0	8.414958954E0	-9.996016622E-1
7.406533789E0	2.470589399E0	8.584849358E0	-1.090528965E0
7.414936810E0	2.550748825E0	8.754739761E0	-1.191625714E0
7.423339831E0	2.490330219E0	8.907281876E0	-1.384247899E0
7.431742852E0	2.273779631E0	9.078369141E0	-1.554138303E0
7.440145872E0	1.984846354E0	9.234500885E0	-1.569691658E0
7.448548893E0	1.710868239E0	9.388837814E0	-1.326820135E0
7.456951914E0	1.587039590E0	9.653244972E0	-1.077368379E0
7.465354935E0	1.518245935E0	1.008096218E1	-7.668996453E-1
7.473757956E0	1.284347534E0	1.052542877E1	-5.419743061E-1
7.482160977E0	7.944171429E-1	1.095852947E1	-3.248256743E-1
7.490563997E0	1.609173268E-1	1.141914749E1	-1.064806059E-1
7.498967018E0	-2.781656384E-1	1.189232826E1	7.896314561E-2
7.507370039E0	-2.548356056E-1	1.223151112E1	1.950150430E-1
7.515773060E0	3.092723191E-1	1.249232864E1	2.937189937E-1
7.524176081E0	1.147956610E0	1.245643616E1	5.252245665E-1
7.532579102E0	2.021337032E0	1.272323608E1	5.371887088E-1
7.540982122E0	2.486740828E0	1.269093323E1	8.135596663E-2
7.549385143E0	2.617748022E0	1.227757263E1	-1.280160099E-1
7.557788164E0	2.431705952E0	1.177508068E1	-1.100698411E-1
7.566191185E0	1.979462504E0	1.129950714E1	2.871387079E-2
7.574594206E0	1.865803480E0	1.115234852E1	1.663011760E-1
7.582997227E0	2.400599241E0	1.120738316E1	1.250249892E-1
7.591400247E0	3.104089260E0	1.104168034E1	8.913264424E-2
7.599803268E0	3.507878065E0	1.067139053E1	4.642075896E-1
7.608206289E0	3.468396425E0	1.023589706E1	8.201399446E-1
7.616609310E0	3.120240688E0	9.910472870E0	8.195417523E-1
7.625012331E0	2.691327333E0	9.622735977E0	3.804588020E-1
7.633415352E0	2.572284460E0	9.244669914E0	5.982056609E-4
7.641818372E0	2.908475876E0	8.909076691E0	-1.172483116E-1
7.650221393E0	3.519243956E0	9.075378418E0	-7.298108935E-2
7.658624414E0	4.054039955E0	9.121439934E0	-1.082752272E-1
7.667027435E0	4.451846600E0	8.597412109E0	-2.267199457E-1
7.675430456E0	5.003990173E0	7.359126091E0	-4.755735099E-1
7.683833477E0	5.988038540E0	7.997411251E0	-1.833500385E0
7.692236497E0	6.564708710E0	1.161835003E1	-4.438685894E0
7.700639518E0	4.988437176E0	1.626760483E1	-7.420143127E0
7.709042539E0	9.972088337E-1	1.805324936E1	-8.715856552E0
7.717445560E0	-5.384449005E0	1.589193153E1	-6.355935097E0
7.725848581E0	-1.395613766E1	1.114875889E1	-1.405783296E-1
7.734251602E0	-1.657926941E1	8.115856171E0	5.283950806E0
7.742654622E0	-9.908679008E0	7.655836105E0	6.320641041E0
7.751057643E0	-1.354337573E0	9.059226990E0	3.500699520E0
7.759460664E0	6.099903107E0	1.072463131E1	-1.204187989E0
7.767863685E0	8.889336586E0	1.060499001E1	-3.537189960E0
7.776266706E0	5.663811207E0	9.733404160E0	-5.982056633E-2
7.784669727E0	5.617151260E-1	9.488140106E0	4.223331928E0
7.793072747E0	-2.524427891E0	9.462417603E0	3.961916208E0
7.801475768E0	-3.479762316E0	9.479764938E0	7.393822074E-1
7.809878789E0	-4.024727821E0	9.811769485E0	-2.790031195E0
7.818281810E0	-3.845266104E0	1.019940662E1	-3.854837179E0
7.826684831E0	-1.615753531E0	1.048953629E1	-1.813759565E0
7.835087852E0	1.399203062E0	1.089870930E1	-5.341976285E-1
7.843490872E0	3.310470104E0	1.103928757E1	-5.335994363E-1
7.851893893E0	2.904288530E0	1.061934662E1	9.332008660E-2
7.860296914E0	1.049252748E0	1.000020409E1	1.170688510E0
7.868699935E0	-3.146561682E-1	9.629914284E0	8.943174481E-1
7.877102956E0	-7.118647099E-1	9.566504478E0	5.557330847E-1
7.885505977E0	-4.139583111E-1	9.753145218E0	1.124028444E0
7.893908997E0	7.238288224E-2	9.836894035E0	1.083948612E0
7.902312018E0	2.518445849E-1	9.885348320E0	6.191428304E-1
7.910715039E0	1.094716340E-1	1.000319481E1	1.244267747E-1
7.919118060E0	-2.237289101E-1	1.008574772E1	-2.261217386E-1
7.927521081E0	-6.215356588E-1	9.987043381E0	-6.017948985E-1
7.935924102E0	-6.921239495E-1	9.828518867E0	-4.803591371E-1
7.944327122E0	-3.577269912E-1	9.737591743E0	1.477568001E-1
7.952730143E0	-1.369891018E-1	9.683753014E0	4.683950245E-1
7.961133164E0	-1.202393398E-1	9.607781410E0	5.132604837E-1
7.969536185E0	-5.623133108E-2	9.605388641E0	5.994020700E-1
7.977939206E0	-1.256231871E-2	9.671789169E0	6.340979934E-1
7.986342227E0	-1.950150430E-1	9.568898201E0	6.323033571E-1
7.994745247E0	-5.024927258E-1	9.458230019E0	4.588237405E-1
8.003148268E0	-6.969096065E-1	9.566504478E0	2.315055877E-1
8.011551289E0	-7.232306600E-1	9.801599503E0	1.196411327E-1
8.019954310E0	-7.274180651E-1	9.794421196E0	1.082752272E-1
8.028357331E0	-6.711867452E-1	9.664012909E0	2.069791555E-1
8.036760352E0	-3.762713671E-1	9.866206169E0	-5.563312769E-2
8.045163372E0	-2.871387079E-2	1.009890842E1	-8.793623000E-2
8.053566393E0	1.280160099E-1	9.988838196E0	3.768695518E-2
8.061969414E0	1.016949583E-2	9.881759644E0	-7.956135273E-2
8.070372435E0	-4.965106845E-1	1.001515961E1	-9.032905847E-2
8.078775456E0	-9.332008362E-1	9.997811317E0	-8.973085321E-3
8.087178477E0	-1.025324464E0	9.817750931E0	9.332008660E-2
8.095581497E0	-7.740781307E-1	9.793225288E0	2.506481707E-1
8.103984518E0	-4.731806815E-1	9.933204651E0	1.680957973E-1
8.112387539E0	-3.403790295E-1	1.005523872E1	1.459621787E-1
8.120790560E0	-3.337987661E-1	1.005823040E1	5.982056726E-3
8.129193581E0	-4.163511395E-1	1.031964588E1	-3.266202807E-1
8.137596602E0	-5.623133183E-1	1.073838997E1	-5.078766346E-1
8.145999622E0	-9.308080077E-1	1.109671497E1	-7.668996453E-1
8.154402643E0	-1.185045362E0	1.077248764E1	-1.074377418E0
8.162805664E0	-1.603191137E0	1.096331501E1	-7.298108935E-1
8.171208685E0	-2.210968018E0	1.118405342E1	-1.213759303E0
8.179611706E0	-2.613560438E0	1.181216908E1	-1.220339537E0
8.188014727E0	-3.000001431E0	1.246241856E1	-3.050848842E-1
8.196417747E0	-2.990430117E0	1.373240948E1	5.970092416E-1
8.204820768E0	-3.001197815E0	1.641057587E1	6.855437160E-1
8.213223789E0	-3.461816072E0	1.949253082E1	-3.786641955E-1
8.221626810E0	-3.802195072E0	2.007877350E1	-1.839482427E0
8.230029831E0	-4.436891556E0	1.715414619E1	-2.334796667E0
8.238432852E0	-5.365904808E0	1.389452267E1	-1.719243050E0
8.246835872E0	-5.299503803E0	1.314018536E1	-8.446664214E-1
8.255238893E0	-3.685544968E0	1.330887985E1	-4.043870270E-1
8.263641914E0	-1.407577872E0	1.278305721E1	9.451649338E-2
8.272044935E0	9.649057388E-1	1.126241779E1	8.506484628E-1
8.280447956E0	3.592225075E0	9.891928673E0	2.178066730E0
8.288850977E0	5.968297958E0	8.595617294E0	3.575475216E0
8.297253997E0	8.079963684E0	8.053044319E0	4.335794449E0
8.305657018E0	9.723235130E0	9.249456406E0	3.872185230E0
8.314060039E0	8.681758881E0	1.035553837E1	2.390429735E0
8.322463060E0	4.377668858E0	9.897313118E0	1.467996716E0
8.330866081E0	-5.994020700E-1	8.711668968E0	1.011565804E0
8.339269102E0	-4.550550461E0	7.611568928E0	1.585244983E-1
8.347672122E0	-6.550352097E0	6.747161865E0	-1.389033556E0
8.356075143E0	-5.347958565E0	6.383452415E0	-2.464009047E0
8.364478164E0	-1.582253933E0	6.598208427E0	-1.714457393E0
8.372881185E0	2.039283037E0	6.978667259E0	-5.982056856E-1
8.381284206E0	4.202992916E0	6.926623344E0	-1.573280841E-1
8.389687227E0	4.660620213E0	6.533003807E0	-1.974078715E-1
8.398090247E0	3.954737663E0	6.279364586E0	-2.153540403E-1
8.406493268E0	2.170888424E0	6.065207005E0	-2.985046208E-1
8.414896289E0	-6.759724021E-2	5.585446358E0	-4.618147612E-1
8.423299310E0	-1.416550994E0	5.389832973E0	-2.422732860E-1
8.431702331E0	-1.448854089E0	5.443073273E0	-1.435693651E-1
8.440105352E0	-6.717849374E-1	5.830112457E0	5.563312769E-2
8.448508372E0	2.153540403E-2	6.309275150E0	3.014956415E-1
8.456911393E0	3.242274821E-1	6.719046116E0	2.261217386E-1
8.465314414E0	2.189432681E-1	6.937989235E0	-1.734796353E-2
8.473717435E0	3.589233849E-3	7.042675018E0	-3.224328458E-1
8.482120456E0	-2.632104978E-2	7.239484787E0	-6.287141442E-1
8.490523477E0	3.140579760E-1	7.491927624E0	-9.122636318E-1
8.498926497E0	8.303094506E-1	7.795217991E0	-1.053440213E0
8.507329518E0	1.377667665E0	7.999804497E0	-1.234098315E0
8.515732539E0	1.972284079E0	8.327022552E0	-1.408774376E0
8.524135560E0	2.373081923E0	8.627920151E0	-1.541576028E0
8.532538581E0	2.700300455E0	8.912068367E0	-1.570888042E0
8.540941602E0	2.964707375E0	9.117252350E0	-1.485942841E0
8.549344622E0	3.152543783E0	9.218947411E0	-1.409372568E0
8.557747643E0	3.166302681E0	9.337391853E0	-1.297508121E0
8.566150664E0	2.893520832E0	9.445069313E0	-1.225723386E0
8.574553685E0	2.420938253E0	9.617352486E0	-1.256830096E0
8.582956706E0	1.813161373E0	9.823135376E0	-1.201196909E0
8.591359727E0	1.212562919E0	1.008096218E1	-1.128215909E0
8.599762747E0	8.135597110E-1	1.049312592E1	-9.343972206E-1
8.608165768E0	6.765705943E-1	1.086879826E1	-6.963114142E-1
8.616568789E0	6.795616150E-1	1.123968601E1	-3.762713671E-1
8.624971810E0	6.293123364E-1	1.153759289E1	-2.063809484E-1
8.633374831E0	4.498506486E-1	1.169611740E1	-1.286142170E-1
8.641777852E0	3.553341627E-1	1.182532978E1	-1.920240223E-1
8.650180872E0	3.487538993E-1	1.177926731E1	-1.812563092E-1
8.658583893E0	4.420739710E-1	1.178225899E1	-1.136590764E-1
8.666986914E0	6.825526357E-1	1.198804188E1	-3.571287692E-1
8.675389935E0	1.113260746E0	1.190309620E1	-5.838487148E-1
8.683792956E0	1.816152334E0	1.168654537E1	-5.814558864E-1
8.692195977E0	2.699103832E0	1.177328587E1	-6.334998012E-1
8.700598997E0	3.699303865E0	1.186361504E1	-7.710871100E-1
8.709002018E0	4.756931305E0	1.175773239E1	-7.429714203E-1
8.717405039E0	5.459224701E0	1.129831028E1	-7.232306600E-1
8.725808060E0	5.630311489E0	1.092084217E1	-4.456632137E-1
8.734211081E0	5.612365723E0	1.056490993E1	3.409772366E-2
8.742614102E0	6.023332596E0	1.034058285E1	4.295116663E-1
8.751017122E0	6.798607349E0	1.014616585E1	5.509474277E-1
8.759420143E0	7.386643410E0	1.016171932E1	4.307080805E-1
8.767823164E0	7.536793232E0	9.839286804E0	5.096712112E-1
8.776226185E0	8.040482521E0	1.022154045E1	5.282155871E-1
8.784629206E0	9.824930191E0	1.359960747E1	-8.201399446E-1
8.793032227E0	1.061755180E1	1.754238129E1	-3.153141975E0
8.801435247E0	7.350750923E0	1.903789520E1	-4.913063049E0
8.809838268E0	1.474576950E0	1.774936104E1	-4.723432064E0
8.818241289E0	-8.414958954E0	1.306182098E1	-6.293123364E-1
8.826644310E0	-1.812862206E1	7.598408222E0	3.141776085E0
8.835047331E0	-1.669532204E1	4.465006828E0	1.899901152E0
8.843450352E0	-8.312665939E0	4.869992256E0	-3.954139352E-1
8.851853372E0	-5.407779217E-1	7.788637638E0	-2.718246460E0
8.860256393E0	4.683950424E0	1.003489971E1	-2.239083767E0
8.868659414E0	7.271189690E0	1.059601688E1	2.539981127E0
8.877062435E0	7.670193195E0	1.030768204E1	5.402993679E0
8.885465456E0	6.398407936E0	1.060140038E1	3.151945591E0
8.893868477E0	3.768695593E0	1.103210926E1	2.081755698E-1
8.902271497E0	-1.561316848E-1	1.024128056E1	-7.657032609E-1
8.910674518E0	-3.634697676E0	9.250652313E0	-5.635097623E-1
8.919077539E0	-4.295116425E0	9.403194427E0	-1.794018745E0
8.927480560E0	-2.989233732E0	1.023170948E1	-2.353939295E0
8.935883581E0	-1.484148264E0	1.065822983E1	-1.806581140E0
8.944286602E0	-2.937189937E-1	1.074975586E1	-1.483550072E-1
8.952689622E0	1.459621787E-1	1.029212856E1	5.383850932E-1
8.961092643E0	-1.405783296E-1	9.662218094E0	8.147560954E-1
8.969495664E0	-5.204389095E-1	9.354740143E0	1.330409408E0
8.977898685E0	2.213360928E-2	9.859625816E0	1.598405480E0
8.986301706E0	-1.136590764E-1	9.836894035E0	1.464407444E0
8.994704727E0	-9.499505758E-1	9.408578873E0	1.277169108E0
9.003107747E0	-1.475773335E0	9.383454323E0	7.860422134E-1
9.011510768E0	-1.562513232E0	9.608379364E0	1.387837082E-1
9.019913789E0	-1.492523074E0	9.868000984E0	-3.409772217E-1
9.028316810E0	-1.159322619E0	1.009651470E1	-9.415757060E-1
9.036719831E0	-6.340979934E-1	1.020060253E1	-9.559326172E-1
9.045122852E0	-3.888336942E-2	1.019880867E1	-4.564309120E-1
9.053525872E0	4.522434771E-1	1.009053326E1	-1.776670814E-1
9.061928893E0	2.955136001E-1	9.790233612E0	4.989035130E-1
9.070331914E0	-1.998006850E-1	9.658030510E0	7.752745152E-1
9.078734935E0	-6.125625968E-1	9.722636223E0	8.644071817E-1
9.087137956E0	-8.685946465E-1	9.579067230E0	9.421738982E-1
9.095540977E0	-8.368897438E-1	9.370293617E0	9.547362328E-1
9.103943997E0	-6.251249313E-1	9.398408890E0	8.428717852E-1
9.112347018E0	-3.846462369E-1	9.525228500E0	7.603194118E-1
9.120750039E0	-2.895315289E-1	9.641879082E0	4.935196638E-1
9.129153060E0	-3.649054468E-1	9.714262009E0	2.685943544E-1
9.137556081E0	-4.295116663E-1	9.669994354E0	2.536391914E-1
9.145959102E0	-4.528416991E-1	9.521040916E0	4.187439680E-1
9.154362122E0	-3.918247223E-1	9.513264656E0	5.545366406E-1
9.162765143E0	-3.708875179E-1	9.634700775E0	6.245267391E-1
9.171168164E0	-5.706881881E-1	9.698110580E0	6.819544435E-1
9.179571185E0	-1.030708313E0	9.669396400E0	7.076773047E-1
9.187974206E0	-1.442273855E0	9.682557106E0	4.911268353E-1
9.196377227E0	-1.520040631E0	9.911071777E0	-1.477568001E-1
9.204780247E0	-1.289133191E0	1.011685371E1	-4.731806815E-1
9.213183268E0	-7.932206988E-1	1.005105114E1	-3.744767308E-1
9.221586289E0	-3.637090325E-1	1.006002426E1	-1.184447184E-1
9.229989310E0	-4.426721856E-2	1.008335495E1	-7.178468257E-2
9.238392331E0	5.922235921E-2	1.011087227E1	-6.340979785E-2
9.246795352E0	-1.609173268E-1	1.023170948E1	-1.513460279E-1
9.255198372E0	-5.401797295E-1	1.014855862E1	-2.362912297E-1
9.263601393E0	-7.453642488E-1	1.023888779E1	-3.349951804E-1
9.272004414E0	-8.057830334E-1	1.038365364E1	-5.760720372E-1
9.280407435E0	-8.057830334E-1	1.060798073E1	-3.613162339E-1
9.288810456E0	-7.974081635E-1	1.094237804E1	-4.809573591E-1
9.297213477E0	-8.997012973E-1	1.148674488E1	-5.886343718E-1
9.305616497E0	-1.214357495E0	1.175354481E1	-7.124629617E-1
9.314019518E0	-1.554138303E0	1.246361542E1	-8.620143533E-1
9.322422539E0	-2.352144718E0	1.400997639E1	-1.752742529E-1
9.330825560E0	-3.123830080E0	1.674617004E1	3.224328458E-1
9.339228581E0	-3.390629768E0	1.873161316E1	-1.842473447E-1
9.347631602E0	-3.361317635E0	1.786062622E1	-1.243071318E0
9.356034622E0	-4.209573269E0	1.546421432E1	-1.643270969E0
9.364437643E0	-4.911268711E0	1.424327660E1	-1.705484390E0
9.372840664E0	-4.267001152E0	1.440239906E1	-1.886740685E0
9.381243685E0	-2.946761131E0	1.440778351E1	-1.896910191E0
9.389646706E0	-1.563709617E0	1.373360538E1	-1.265205026E0
9.398049727E0	-2.781656384E-1	1.247438240E1	-3.523431420E-1
9.406452747E0	1.131206870E0	1.071805096E1	7.387840152E-1
9.414855768E0	3.055036306E0	9.141778946E0	2.082353830E0
9.423258789E0	5.429912567E0	8.349754333E0	3.292523861E0
9.431661810E0	8.016553879E0	9.365508080E0	3.832703590E0
9.440064831E0	8.410771370E0	1.084786129E1	3.294916868E0
9.448467852E0	4.309473515E0	1.059123135E1	2.334796667E0
9.456870872E0	-1.616949916E0	9.357132912E0	9.565308690E-1
9.465273893E0	-6.244668961E0	8.135597229E0	-3.864408433E-1
9.473676914E0	-7.807182312E0	7.292127132E0	-1.447657704E0
9.482079935E0	-5.496313572E0	7.110870838E0	-1.719243050E0
9.490482956E0	-1.726421595E0	7.354340553E0	-9.852447510E-1
9.498885977E0	1.570888042E0	7.701898098E0	-1.920240223E-1
9.507288997E0	2.996412039E0	7.579864025E0	2.093719840E-1
9.515692018E0	2.247458696E0	6.886543751E0	4.348955154E-1
9.524095039E0	7.483552694E-1	6.195017815E0	4.229314029E-1
9.532498060E0	-5.700899959E-1	5.876173973E0	2.225325108E-1
9.540901081E0	-1.621137381E0	5.787639618E0	6.281159073E-2
9.549304102E0	-1.780858278E0	6.169294834E0	7.118647546E-2
9.557707122E0	-1.349551916E0	6.576673031E0	2.572284341E-1
9.566110143E0	-8.279166222E-1	6.752545357E0	3.984049559E-1
9.574513164E0	-4.977070987E-1	6.871588230E0	3.164508045E-1
9.582916185E0	-3.349951804E-1	7.012764931E0	9.092725813E-2
9.591319206E0	-3.104687333E-1	7.166503906E0	-4.486542568E-2
9.599722227E0	-2.596212626E-1	7.217949390E0	-1.411765367E-1
9.608125247E0	5.682953820E-2	7.389036179E0	-2.021935135E-1
9.616528268E0	5.605186820E-1	7.666603565E0	-3.020938635E-1
9.624931289E0	1.079162955E0	7.941778183E0	-2.883351147E-1
9.633334310E0	1.616949916E0	8.231309891E0	-1.824527234E-1
9.641737331E0	2.075773716E0	8.533403397E0	-1.680957973E-1
9.650140352E0	2.314457655E0	8.820542336E0	-2.656033039E-1
9.658543372E0	2.309073925E0	9.014959335E0	-3.996013701E-1
9.666946393E0	2.148754835E0	9.150752068E0	-4.564309120E-1
9.675349414E0	2.024327993E0	9.337990761E0	-6.215356588E-1
9.683752435E0	1.988435626E0	9.573683739E0	-7.764709592E-1
9.692155456E0	1.990828395E0	9.792028427E0	-8.614161611E-1
9.700558477E0	1.994417667E0	1.004626560E1	-8.404789567E-1
9.708961497E0	1.901097536E0	1.028734303E1	-7.375875711E-1
9.717364518E0	1.694118381E0	1.052961636E1	-5.455635786E-1
9.725767539E0	1.548156261E0	1.073838997E1	-2.051845491E-1
9.734170560E0	1.656431437E0	1.093519974E1	1.351944804E-1
9.742573581E0	1.847857237E0	1.117926693E1	3.834498227E-1
9.750976602E0	1.899302959E0	1.151844978E1	5.186443329E-1
9.759379622E0	1.850848317E0	1.182532978E1	4.869394004E-1
9.767782643E0	1.802393675E0	1.208554935E1	3.326023519E-1
9.776185664E0	1.671386600E0	1.168116188E1	2.392822644E-3
9.784588685E0	1.465005636E0	1.169791126E1	-3.349951804E-1
9.792991706E0	1.889133453E0	1.160100269E1	-7.621139884E-1
9.801394727E0	2.810370207E0	1.099322510E1	-1.115055323E0
9.809797747E0	3.842873096E0	1.038365364E1	-8.039883971E-1
9.818200768E0	5.195415974E0	1.022931671E1	-2.518445849E-1
9.826603789E0	6.899106026E0	1.033998489E1	-2.859423161E-1
9.835006810E0	8.392227173E0	1.068335533E1	-8.883354068E-1
9.843409831E0	8.674580574E0	1.065703392E1	-1.293320656E0
9.851812852E0	7.894520283E0	1.005105114E1	-6.053841114E-1
9.860215872E0	7.280761242E0	9.373284340E0	-2.003988922E-1
9.868618893E0	7.217949390E0	9.144171715E0	-5.449653864E-1
9.877021914E0	7.317849636E0	9.109476089E0	-5.042873621E-1
9.885424935E0	7.650452137E0	9.436096191E0	-2.321037948E-1
9.893827956E0	8.456833839E0	1.135394382E1	-3.936193287E-1
9.902230977E0	9.035896301E0	1.535534096E1	-1.722832322E0
9.910633997E0	5.654240131E0	1.868914032E1	-3.641277790E0
9.919037018E0	-7.399803996E-1	1.941835403E1	-4.275974274E0
9.927440039E0	-1.177866936E1	1.627538109E1	-1.162911773E0
9.935843060E0	-2.319422722E1	1.013300610E1	2.446063042E0
9.944246081E0	-1.874178314E1	4.951348305E0	2.017747641E0
9.952649102E0	-7.355536938E0	4.164109707E0	1.137787223E0
9.961052122E0	2.438884497E0	7.287341595E0	2.560320199E-1
9.969455143E0	9.746564865E0	9.997213364E0	-3.924229145E-1
9.977858164E0	1.225005531E1	1.070249748E1	1.266999602E0
9.986261185E0	9.988240242E0	1.122233772E1	4.466203690E0
9.994664206E0	5.663811207E0	1.154357433E1	4.031906128E0
1.000306723E1	1.644467354E0	1.131625652E1	1.059422255E0
1.001147025E1	-2.499901533E0	1.052602673E1	-1.234098315E0
1.001987327E1	-6.346961975E0	9.742377281E0	-2.924627542E0
1.002827629E1	-7.589435101E0	9.587442398E0	-3.467200041E0
1.003667931E1	-5.188836098E0	1.000618649E1	-3.598206997E0
1.004508233E1	-1.313659668E0	1.067318535E1	-2.747558594E0
1.005348535E1	1.819741607E0	1.098903847E1	-9.002995491E-1
1.006188837E1	3.437887907E0	1.076112175E1	1.480558991E0
1.007029139E1	3.175275564E0	1.015035343E1	2.286342144E0
1.007869441E1	1.083350420E0	9.605388641E0	1.692921996E0
1.008709744E1	-1.479960799E0	9.256035805E0	1.140778184E0
1.009550046E1	-3.257229805E0	8.962915421E0	8.596215248E-1
1.010390348E1	-3.552145243E0	8.980263710E0	5.240281820E-1
1.011230650E1	-2.411965132E0	9.414560318E0	1.531406492E-1
1.012070952E1	-7.483552694E-1	1.005942631E1	-1.016949583E-2
1.012911254E1	5.431707501E-1	1.039741230E1	-4.564309120E-1
1.013751556E1	1.298106313E0	1.043749237E1	-2.213360965E-1
1.014591858E1	1.588834286E0	1.032861900E1	9.870393574E-2
1.015432160E1	1.156331539E0	1.016710377E1	-3.050848842E-2
1.016272462E1	3.708875179E-1	1.016530895E1	-2.021935135E-1
1.017112764E1	-5.682953596E-1	9.734002113E0	1.513460279E-1
1.017953066E1	-1.261017561E0	9.254241943E0	3.966103494E-1
1.018793368E1	-1.243071318E0	9.296713829E0	3.308077157E-1
1.019633671E1	-6.496513486E-1	9.485149384E0	4.869394004E-1
1.020473973E1	-7.178468257E-2	9.547362328E0	7.716853023E-1
1.021314275E1	2.237289101E-1	9.705886841E0	7.513462901E-1
1.022154577E1	3.577269912E-1	9.890732765E0	8.297112584E-1
1.022994879E1	2.967100143E-1	9.886545181E0	8.739784956E-1
1.023835181E1	9.272187948E-2	9.595218658E0	8.709874153E-1
1.024675483E1	-2.452643216E-2	9.416953087E0	9.565308690E-1
1.025515785E1	-7.417750359E-2	9.483952522E0	8.279166222E-1
1.026356087E1	-1.579262912E-1	9.616155624E0	5.742774606E-1
1.027196389E1	-3.367897868E-1	9.699904442E0	4.977070987E-1
1.028036691E1	-3.948157430E-1	9.701101303E0	4.025924206E-1
1.028876994E1	-2.380858511E-1	9.826724052E0	2.021935135E-1
1.029717296E1	4.845465720E-2	9.973882675E0	1.950150430E-1
1.030557598E1	1.525424421E-1	1.004506969E1	2.327020019E-1
1.031397900E1	4.486542568E-2	9.961918831E0	3.206382394E-1
1.032238202E1	-1.016949639E-1	9.765109062E0	2.153540403E-1
1.033078504E1	-1.603191197E-1	9.799804688E0	1.292124242E-1
1.033918806E1	-1.651047617E-1	9.927223206E0	1.435693651E-1
1.034759108E1	-1.429711580E-1	9.986445427E0	1.256231815E-1
1.035599410E1	-1.603191197E-1	1.014377308E1	1.375873014E-2
1.036439712E1	-1.854437590E-1	1.035972595E1	-1.226321608E-1
1.037280014E1	-2.219343036E-1	1.058824062E1	-3.146561682E-1
1.038120316E1	-3.302095234E-1	1.074736309E1	-4.588237405E-1
1.038960618E1	-4.618147612E-1	1.084666538E1	-6.358926296E-1
1.039800921E1	-5.180460811E-1	1.097886848E1	-8.530412912E-1
1.040641223E1	-4.205385745E-1	1.138624668E1	-1.080359459E0
1.041481525E1	-7.932206988E-1	1.158784199E1	-1.210170031E0
1.042321827E1	-1.627717614E0	1.141196918E1	-1.292124271E0
1.043162129E1	-2.471785784E0	1.236850071E1	-1.013360381E0
1.044002431E1	-3.398406267E0	1.600020599E1	-4.827519655E-1
1.044842733E1	-4.115056515E0	2.168734741E1	1.734796353E-2
1.045683035E1	-3.419941664E0	2.266182518E1	-1.529611826E0
1.046523337E1	-2.622533560E0	1.734198189E1	-2.776870728E0
1.047363639E1	-3.491128206E0	1.189531994E1	-1.165304661E0
1.048203941E1	-4.013959885E0	1.151186943E1	-3.924229145E-1
1.049044244E1	-2.770290375E0	1.273041439E1	-4.408775866E-1
1.049884546E1	-7.896314859E-1	1.246959686E1	2.434697002E-1
1.050724848E1	1.173081279E0	1.091306591E1	1.406979680E0
1.051565150E1	3.165704250E0	9.582057953E0	2.857628345E0
1.052405452E1	5.600401402E0	9.099904060E0	3.902095556E0
1.053245754E1	7.912466049E0	1.031964588E1	4.460819721E0
1.054086056E1	7.565506935E0	1.178764248E1	3.126222849E0
1.054926358E1	3.718446493E0	1.148375416E1	2.309672117E0
1.055766660E1	-1.088136077E0	9.878767967E0	1.570289850E0
1.056606962E1	-4.940580368E0	8.232506752E0	3.541377485E-1
1.057447264E1	-6.215356827E0	7.354340553E0	-6.424728632E-1
1.058287566E1	-4.679164886E0	7.232904434E0	-8.309076428E-1
1.059127868E1	-1.697707653E0	7.293921471E0	-3.212364316E-1
1.059968171E1	1.202393413E0	7.241279602E0	2.368894368E-1
1.060808473E1	2.420340061E0	6.952944279E0	3.433700502E-1
1.061648775E1	1.945963025E0	6.404987812E0	4.307080805E-1
1.062489077E1	5.252245665E-1	5.929414749E0	3.367897868E-1
1.063329379E1	-1.159322619E0	5.496912003E0	-1.974078640E-2
1.064169681E1	-2.410768747E0	5.210371494E0	-6.161518395E-2
1.065009983E1	-2.792423964E0	5.215157032E0	-1.674975827E-2
1.065850285E1	-2.130808592E0	5.657829285E0	5.383851007E-3
1.066690587E1	-1.039681435E0	6.276373863E0	-9.690931439E-2
1.067530889E1	-1.627119333E-1	6.735795975E0	-1.944168359E-1
1.068371191E1	3.541377485E-1	7.017550468E0	-2.793620527E-1
1.069211494E1	4.863412082E-1	7.231110096E0	-3.625126183E-1
1.070051796E1	4.504488707E-1	7.342376232E0	-4.336991012E-1
1.070892098E1	5.078766346E-1	7.491329670E0	-5.318048596E-1
1.071732400E1	7.100701332E-1	7.695915699E0	-6.269195080E-1
1.072572702E1	1.054636598E0	7.935198307E0	-7.046862841E-1
1.073413004E1	1.502094388E0	8.186444283E0	-7.274180651E-1
1.074253306E1	1.973480463E0	8.436494827E0	-7.860422134E-1
1.075093608E1	2.325823545E0	8.702097893E0	-8.691928387E-1
1.075933910E1	2.557329178E0	9.043074608E0	-1.095314622E0
1.076774212E1	2.725425005E0	9.467203140E0	-1.450648785E0
1.077614514E1	2.856431961E0	9.825528145E0	-1.796411633E0
1.078454816E1	2.968296528E0	1.007677460E1	-1.925025821E0
1.079295119E1	3.025125980E0	1.022273636E1	-1.880160451E0
1.080135421E1	3.285345554E0	1.045962620E1	-1.580459356E0
1.080975723E1	3.564707518E0	1.068933678E1	-1.164706469E0
1.081816025E1	3.352942705E0	1.073420238E1	-8.147560954E-1
1.082656327E1	2.796611547E0	1.078624630E1	-5.048855543E-1
1.083496629E1	2.099701881E0	1.082991505E1	-3.816552162E-1
1.084336931E1	1.341177106E0	1.077727318E1	-4.540380836E-1
1.085177233E1	8.895317912E-1	1.083709335E1	-3.481557071E-1
1.086017535E1	1.027717352E0	1.102971554E1	-3.152543902E-1
1.086857837E1	1.560718536E0	1.127856922E1	-3.696911037E-1
1.087698139E1	1.923829436E0	1.143649578E1	-4.055834413E-1
1.088538441E1	2.041077614E0	1.144845963E1	-5.114658475E-1
1.089378744E1	2.152942181E0	1.122413254E1	-4.887340367E-1
1.090219046E1	2.322832584E0	1.137129116E1	-6.699903607E-1
1.091059348E1	2.475973129E0	1.141795158E1	-1.073779106E0
1.091899650E1	2.921038151E0	1.132104206E1	-9.050851464E-1
1.092739952E1	3.311666489E0	1.121216869E1	-8.201399446E-1
1.093580254E1	3.626920938E0	1.095673466E1	-6.574280262E-1
1.094420556E1	3.929014683E0	1.070010471E1	-7.740781307E-1
1.095260858E1	4.222135544E0	1.044287586E1	-5.946164131E-1
1.096101160E1	4.214957237E0	1.008335495E1	-4.396811724E-1
1.096941462E1	4.235894203E0	9.846465111E0	-1.830509305E-1
1.097781764E1	4.115654945E0	9.840482712E0	-3.529413417E-2
1.098622066E1	3.592823267E0	9.826724052E0	-1.986042857E-1
1.099462368E1	2.863610506E0	9.653244972E0	-2.087737769E-1
1.100302671E1	2.551945448E0	9.537791252E0	-3.260220885E-1
1.101142973E1	2.721835852E0	9.143573761E0	-2.303091735E-1
1.101983275E1	3.504886866E0	8.835497856E0	8.374879137E-3
1.102823577E1	4.703093052E0	8.865407944E0	1.974078715E-1
1.103663879E1	5.937789440E0	9.682557106E0	2.045863420E-1
1.104504181E1	7.162316322E0	1.217169094E1	-9.391828626E-2
1.105344483E1	6.318248272E0	1.593021679E1	-1.572084427E0
1.106184785E1	2.124228239E0	1.842174339E1	-3.077768087E0
1.107025087E1	-4.441078663E0	1.863051796E1	-1.721635938E0
1.107865389E1	-1.407099342E1	1.460339642E1	3.469592810E0
1.108705691E1	-1.738146400E1	8.979066849E0	5.585446358E0
1.109545994E1	-1.029511929E1	4.617549419E0	3.548556089E0
1.110386296E1	-2.259422779E0	4.977071285E0	5.347958803E-1
1.111226598E1	4.506881237E0	8.685347557E0	-2.181656122E0
1.112066900E1	7.890930653E0	1.091486073E1	-2.818745136E0
1.112907202E1	7.327421188E0	1.116072273E1	1.015154958E0
1.113747504E1	4.213162422E0	1.006122112E1	4.695316315E0
1.114587806E1	9.523434043E-1	9.821340561E0	5.128417015E0
1.115428108E1	-2.528017044E0	1.004088211E1	1.564906001E0
1.116268410E1	-5.523830891E0	9.853045464E0	-4.071387768E0
1.117108712E1	-6.049055576E0	1.002891827E1	-6.555137634E0
1.117949014E1	-2.731407166E0	1.071386337E1	-3.715455294E0
1.118789316E1	1.496112347E0	1.087059307E1	-3.822534084E-1
1.119629619E1	4.179064751E0	1.057926750E1	3.481557071E-1
1.120469921E1	4.213162422E0	1.048355389E1	2.787638307E-1
1.121310223E1	2.584846735E0	1.039860916E1	9.912267923E-1
1.122150525E1	4.606183469E-1	9.880562782E0	1.292722464E0
1.122990827E1	-1.246062398E0	9.447462082E0	6.933203340E-1
1.123831129E1	-1.945963025E0	9.505488396E0	2.901297510E-1
1.124671431E1	-1.584048629E0	9.614959717E0	2.560320199E-1
1.125511733E1	-5.359922647E-1	9.707681656E0	5.431707501E-1
1.126352035E1	4.241278172E-1	9.914660454E0	6.161518097E-1
1.127192337E1	9.032905698E-1	1.019521904E1	1.854437590E-1
1.128032639E1	9.493523836E-1	1.026760197E1	1.722832322E-1
1.128872941E1	7.842476368E-1	1.009890842E1	3.260220885E-1
1.129713244E1	4.378865361E-1	9.857233047E0	5.377869010E-1
1.130553546E1	1.704886109E-1	9.783055305E0	5.754738450E-1
1.131393848E1	5.802594870E-2	9.804591179E0	5.593222976E-1
1.132234150E1	3.589233849E-3	9.698708534E0	6.855437160E-1
1.133074452E1	-1.351944804E-1	9.522835732E0	7.674978375E-1
1.133914754E1	-3.254238665E-1	9.512067795E0	7.633104324E-1
1.134755056E1	-4.103690982E-1	9.625727654E0	6.616154313E-1
1.135595358E1	-3.762713671E-1	9.681360245E0	6.580262184E-1
1.136435660E1	-2.446661144E-1	9.699904442E0	5.306084156E-1
1.137275962E1	-1.274178028E-1	9.732806206E0	5.557330847E-1
1.138116264E1	-5.204389244E-2	9.782457352E0	6.813562512E-1
1.138956566E1	-4.965107143E-2	9.858428955E0	7.298108935E-1
1.139796868E1	-2.991028316E-2	9.948160172E0	5.258227587E-1
1.140637171E1	6.580262445E-3	9.877572060E0	4.983053207E-1
1.141477473E1	1.812563092E-1	9.806983948E0	4.444667995E-1
1.142317775E1	4.749752879E-1	9.951150894E0	4.061816335E-1
1.143158077E1	5.587241054E-1	9.996614456E0	5.862415433E-1
1.143998379E1	4.516452849E-1	9.771091461E0	7.525427341E-1
1.144838681E1	3.894318938E-1	9.735198975E0	7.148557901E-1
1.145678983E1	2.961117923E-1	9.800403595E0	6.969096065E-1
1.146519285E1	1.956132501E-1	9.786644936E0	7.040880919E-1
1.147359587E1	1.974078715E-1	9.720243454E0	5.814558864E-1
1.148199889E1	2.709871531E-1	9.803992271E0	4.301098585E-1
1.149040191E1	2.261217386E-1	9.801599503E0	2.069791555E-1
1.149880494E1	1.627119333E-1	9.787840843E0	9.092725813E-2
1.150720796E1	2.093719840E-1	9.891928673E0	-1.178465188E-1
1.151561098E1	3.589234054E-1	1.013599682E1	-1.716850251E-1
1.152401400E1	4.803591371E-1	1.045783138E1	-3.583251834E-1
1.153241702E1	3.493520916E-1	1.063011456E1	-5.198407173E-1
1.154082004E1	4.247260094E-2	1.047996521E1	-6.616154313E-1
1.154922306E1	-2.344966233E-1	1.052004433E1	-8.853443861E-1
1.155762608E1	-5.264210105E-1	1.098664474E1	-7.680960894E-1
1.156602910E1	-1.060618639E0	1.191745281E1	-5.347958803E-1
1.157443212E1	-1.821536183E0	1.360618782E1	-4.606183469E-1
1.158283514E1	-2.651247501E0	1.653500175E1	-2.219343036E-1
1.159123816E1	-3.111865759E0	1.929751587E1	-9.194421172E-1
1.159964119E1	-2.855235577E0	1.893679810E1	-1.856830359E0
1.160804421E1	-2.747558594E0	1.568375587E1	-1.711466432E0
1.161644723E1	-2.981456995E0	1.306780243E1	-6.705885530E-1
1.162485025E1	-2.514258385E0	1.266521072E1	-4.516452849E-1
1.163325327E1	-1.064806104E0	1.273998642E1	-2.362912297E-1
1.164165629E1	7.429714203E-1	1.191805172E1	1.064806059E-1
1.165005931E1	2.236690998E0	1.019043350E1	8.548358679E-1
1.165846233E1	3.710071564E0	8.526823044E0	1.724028707E0
1.166686535E1	5.680561066E0	7.597211838E0	2.934198856E0
1.167526837E1	8.090731621E0	8.011170387E0	4.171288013E0
1.168367139E1	9.328418732E0	9.701699257E0	5.298905849E0
1.169207441E1	5.877370834E0	9.964909554E0	4.438087940E0
1.170047744E1	4.767699242E-1	1.001755238E1	1.586441398E0
1.170888046E1	-4.363312244E0	9.751948357E0	-5.084748268E-1
1.171728348E1	-6.851847649E0	8.599804878E0	-1.116850019E0
1.172568650E1	-5.726622581E0	7.883154392E0	-1.363908887E0
1.173408952E1	-1.952543259E0	8.312665939E0	-1.269392371E0
1.174249254E1	1.743171334E0	8.934201241E0	-5.174478889E-1
1.175089556E1	3.776472330E0	8.959924698E0	2.261217386E-1
1.175929858E1	3.934996843E0	8.521439552E0	6.628118753E-1
1.176770160E1	2.563311338E0	7.833503246E0	9.014959335E-1
1.177610462E1	6.777670383E-1	7.405188084E0	8.404789567E-1
1.178450764E1	-9.499505758E-1	7.315456867E0	5.294120312E-1
1.179291066E1	-1.887937069E0	7.165905476E0	5.527420044E-1
1.180131368E1	-1.967498422E0	6.939185619E0	6.705885530E-1
1.180971671E1	-1.104885817E0	7.164111137E0	5.880361795E-1
1.181811973E1	-3.014956415E-1	7.545766354E0	3.732803464E-1
1.182652275E1	9.391828626E-2	7.747361660E0	5.503492057E-2
1.183492577E1	4.462614357E-1	7.756334782E0	-1.674975902E-1
1.184332879E1	9.314061999E-1	7.777271748E0	-3.529413342E-1
1.185173181E1	1.445863128E0	7.907082558E0	-4.749752879E-1
1.186013483E1	1.868794441E0	7.962117195E0	-5.730810165E-1
1.186853785E1	2.181656122E0	7.960322857E0	-7.256234884E-1
1.187694087E1	2.414956331E0	8.037490845E0	-8.871390224E-1
1.188534389E1	2.507079840E0	8.130811691E0	-9.822536707E-1
1.189374691E1	2.628515720E0	8.267800331E0	-9.643075466E-1
1.190214994E1	2.694318295E0	8.315656662E0	-1.004387259E0
1.191055296E1	2.595016241E0	8.362317085E0	-1.106680512E0
1.191895598E1	2.344367981E0	8.516654015E0	-1.190429211E0
1.192735900E1	2.107478619E0	8.709276199E0	-1.297508121E0
1.193576202E1	1.903490424E0	8.919246674E0	-1.413560033E0
1.194416504E1	1.690529227E0	9.169296265E0	-1.471585870E0
1.195256806E1	1.422533035E0	9.408578873E0	-1.329213023E0
1.196097108E1	1.216152072E0	9.645467758E0	-1.129412293E0
1.196937410E1	1.184447169E0	9.889535904E0	-9.355936646E-1
1.197777712E1	1.385444283E0	1.021077251E1	-7.986045480E-1
1.198618014E1	1.631905079E0	1.058166027E1	-6.580262184E-1
1.199458316E1	1.895713687E0	1.086461163E1	-5.970092416E-1
1.200298619E1	2.041077614E0	1.104586792E1	-6.299105883E-1
1.201138921E1	2.076970100E0	1.123729324E1	-6.400800347E-1
1.201979223E1	2.152343988E0	1.145025444E1	-6.125625968E-1
1.202819525E1	2.547757864E0	1.149452209E1	-5.659025311E-1
1.203659827E1	3.058625460E0	1.132881927E1	-5.389832854E-1
1.204500129E1	3.209373474E0	1.164945698E1	-6.592226624E-1
1.205340431E1	3.286541939E0	1.193300629E1	-7.118647099E-1
1.206180733E1	3.301496983E0	1.204606724E1	-5.850451589E-1
1.207021035E1	3.183650494E0	1.180020523E1	-5.742774159E-2
1.207861337E1	3.589832067E0	1.159741306E1	8.614161611E-2
1.208701639E1	4.378267288E0	1.154536915E1	-8.255238086E-2
1.209541941E1	5.146363258E0	1.138325596E1	1.172483116E-1
1.210382244E1	5.891727448E0	1.101476097E1	5.521438122E-1
1.211222546E1	6.501298904E0	1.054875851E1	5.401797295E-1
1.212062848E1	6.644868374E0	1.035494041E1	5.611169338E-1
1.212903150E1	6.616752625E0	1.055115128E1	6.939185858E-1
1.213743452E1	6.798008919E0	1.072283649E1	9.038887620E-1
1.214583754E1	7.638488293E0	1.106979561E1	1.481755376E0
1.215424056E1	1.031665516E1	1.293559933E1	1.725823283E0
1.216264358E1	1.391366577E1	1.561795330E1	8.733802438E-1
1.217104660E1	1.313958740E1	1.560778427E1	-7.250252366E-1
1.217944962E1	7.533204079E0	1.354218006E1	-1.999203324E0
1.218785264E1	9.595218897E-1	1.134796143E1	-1.950748682E0
1.219625566E1	-1.063848972E1	7.963313580E0	1.697109461E0
1.220465868E1	-2.223111725E1	5.263013363E0	2.775674343E0
1.221306171E1	-2.021695900E1	5.631507874E0	6.137589812E-1
1.222146473E1	-8.576474190E0	7.958528042E0	-1.794616938E0
1.222986775E1	1.137188911E0	1.059900761E1	-1.885544300E0
1.223827077E1	8.728418350E0	1.181635666E1	1.867598057E0
1.224667379E1	1.282792187E1	1.130309582E1	3.899104595E0
1.225507681E1	1.260718441E1	1.145145130E1	1.082752272E-1
1.226347983E1	8.280961037E0	1.197787189E1	-2.195414782E0
1.227188285E1	2.575873613E0	1.153340530E1	-1.715055585E0
1.228028587E1	-2.706880569E0	1.062473106E1	-1.891526341E0
1.228868889E1	-6.126822472E0	9.885947227E0	-2.452643156E0
1.229709191E1	-6.770491600E0	9.878170013E0	-2.154138565E0
1.230549494E1	-4.583451748E0	9.905089378E0	-1.305284739E0
1.231389796E1	-1.299302697E0	1.009531879E1	1.010967568E-1
1.232230098E1	1.500898004E0	1.013779163E1	1.533799291E0
1.233070400E1	3.323630571E0	9.719645500E0	2.384447813E0
1.233910702E1	3.835694790E0	9.370293617E0	2.677568436E0
1.234751004E1	3.332005501E0	9.836894035E0	2.857628345E0
1.235591306E1	1.832902193E0	9.840482712E0	2.440679073E0
1.236431608E1	-2.871387079E-2	9.327820778E0	1.532602906E0
1.237271910E1	-1.272383451E0	9.118449211E0	9.379864931E-1
1.238112212E1	-1.315454245E0	9.406784058E0	3.762713671E-1
1.238952514E1	-5.407779217E-1	9.914660454E0	4.965107143E-2
1.239792816E1	4.989035130E-1	1.029930687E1	1.926222295E-1
1.240633118E1	1.235294700E0	1.034118080E1	4.486542568E-2
1.241473421E1	1.353141189E0	1.020000458E1	2.883351147E-1
1.242313723E1	1.174875975E0	1.005224800E1	5.240281820E-1
1.243154025E1	7.495517135E-1	9.832108498E0	3.643072546E-1
1.243994327E1	3.290131316E-2	9.534799576E0	7.836494446E-1
1.244834629E1	-3.762713671E-1	9.366106033E0	9.511470199E-1
1.245674931E1	-3.266202807E-1	9.407979965E0	9.667003751E-1
1.246515233E1	2.392822690E-2	9.449854851E0	9.409775138E-1
1.247355535E1	3.966103494E-1	9.442078590E0	1.025324464E0
1.248195837E1	6.311069727E-1	9.391230583E0	1.161117196E0
1.249036139E1	6.532405615E-1	9.344570160E0	1.101296663E0
1.249876441E1	5.335994363E-1	9.463613510E0	8.703892231E-1
1.250716744E1	4.582255483E-1	9.669994354E0	6.245267391E-1
1.251557046E1	3.409772217E-1	9.751350403E0	6.382854581E-1
1.252397348E1	1.674975902E-1	9.720243454E0	5.156532526E-1
1.253237650E1	4.905286431E-2	9.744770050E0	3.631108403E-1
1.254077952E1	-2.871387079E-2	9.867402077E0	2.769692242E-1
1.254918254E1	-9.152546525E-2	9.976275444E0	2.865405083E-1
1.255758556E1	-6.759724021E-2	1.008335495E1	1.639083475E-1
1.256598858E1	-4.486542568E-2	1.021196842E1	1.633101404E-1
1.257439160E1	-1.106680483E-1	1.025922680E1	2.327020019E-1
1.258279462E1	-2.315055877E-1	1.019282627E1	2.446661144E-1
1.259119764E1	-3.888336718E-1	1.009232807E1	4.085744619E-1
1.259960066E1	-4.295116663E-1	9.967302322E0	4.127618968E-1
1.260800368E1	-2.937189937E-1	9.845867157E0	3.804588020E-1
1.261640671E1	7.537391037E-2	9.823135376E0	3.397808075E-1
1.262480973E1	4.396811724E-1	9.902098656E0	3.320041299E-1
1.263321275E1	5.575276613E-1	9.923633575E0	3.415754437E-1
1.264161577E1	4.833501875E-1	9.836894035E0	2.608176768E-1
1.265001879E1	4.743770957E-1	9.832108498E0	3.589234129E-2
1.265842181E1	5.712863803E-1	9.998409271E0	1.136590727E-2
1.266682483E1	6.675975323E-1	1.006122112E1	-6.281159073E-2
1.267522785E1	7.381857634E-1	9.911669731E0	-4.905286431E-2
1.268363087E1	8.434699774E-1	9.876375198E0	-1.758724600E-1
1.269203389E1	1.010967612E0	1.024666500E1	-4.031906128E-1
1.270043691E1	9.726824164E-1	1.074317551E1	-5.676971674E-1
1.270883994E1	5.114658475E-1	1.105244732E1	-7.286145091E-1
1.271724296E1	-2.249253243E-1	1.150170040E1	-8.877372146E-1
1.272564598E1	-1.205982566E0	1.226620674E1	-9.248259664E-1
1.273404900E1	-2.231307030E0	1.465902996E1	-3.990031779E-1
1.274245202E1	-3.040081263E0	1.806880188E1	-1.471585929E-1
1.275085504E1	-3.189632654E0	1.910609055E1	-1.172483087E0
1.275925806E1	-2.800200701E0	1.660439491E1	-1.933400750E0
1.276766108E1	-2.785245657E0	1.334058475E1	-1.130010486E0
1.277606410E1	-2.611765862E0	1.219202995E1	-5.090730190E-1
1.278446712E1	-1.489532113E0	1.226859951E1	-3.469592929E-1
1.279287014E1	2.691925503E-2	1.192881870E1	1.441675574E-1
1.280127316E1	1.268794179E0	1.059781170E1	9.768698215E-1
1.280967618E1	2.725425005E0	9.605388641E0	2.261815548E0
1.281807921E1	4.703691006E0	9.422935486E0	3.431905985E0
1.282648223E1	7.086942673E0	1.062951660E1	4.429114819E0
1.283488525E1	7.459026337E0	1.199163055E1	4.370490551E0
1.284328827E1	3.839882135E0	1.190788174E1	2.862414122E0
1.285169129E1	-1.364507079E0	1.089452171E1	1.007976532E0
1.286009431E1	-5.477170944E0	9.300901413E0	2.027917206E-1
1.286849733E1	-6.882954121E0	8.036294937E0	-2.135594189E-1
1.287690035E1	-5.715256691E0	7.548159122E0	-8.153542876E-1
1.288530337E1	-2.857628345E0	7.889734268E0	-9.206385016E-1
1.289370639E1	-1.298106313E-1	8.334799767E0	-4.432703853E-1
1.290210941E1	1.601994753E0	8.586046219E0	-4.905286431E-2
1.291051244E1	1.371685624E0	8.173283577E0	1.908276081E-1
1.291891546E1	-3.164508045E-1	7.121638298E0	3.738785386E-1
1.292731848E1	-1.477568030E0	6.716653347E0	2.949153781E-1
1.293572150E1	-2.026720762E0	6.780661106E0	-1.250249892E-1
1.294412452E1	-2.179861546E0	6.880561352E0	-3.128615618E-1
1.295252754E1	-1.910070658E0	6.921239376E0	-1.459621787E-1
1.296093056E1	-1.340578914E0	6.949355125E0	-6.939185411E-2
1.296933358E1	-6.825526357E-1	7.153343201E0	-1.519442350E-1
1.297773660E1	-1.788634956E-1	7.372884750E0	-4.109672904E-1
1.298613962E1	1.561316848E-1	7.612166882E0	-6.161518097E-1
1.299454264E1	3.475574851E-1	7.746763229E0	-6.699903607E-1
1.300294566E1	5.335994363E-1	7.800003529E0	-6.969096065E-1
1.301134869E1	7.818548083E-1	7.986045361E0	-7.256234884E-1
1.301975171E1	1.104287624E0	8.263014793E0	-8.123632669E-1
1.302815473E1	1.538584948E0	8.576474190E0	-9.403793216E-1
1.303655775E1	1.932802439E0	8.869595528E0	-1.038485050E0
1.304496077E1	2.179861546E0	9.065208435E0	-1.047458172E0
1.305336379E1	2.312663078E0	9.227322578E0	-1.081555843E0
1.306176681E1	2.406581402E0	9.318249702E0	-1.195813060E0
1.307016983E1	2.536391973E0	9.508479118E0	-1.252642632E0
1.307857285E1	2.593221426E0	9.706484795E0	-1.124028444E0
1.308697587E1	2.574677229E0	9.935597420E0	-9.846464992E-1
1.309537889E1	2.578266382E0	1.017308521E1	-7.651050687E-1
1.310378191E1	2.614757061E0	1.043210888E1	-4.827519655E-1
1.311218494E1	2.513062000E0	1.065882874E1	-2.530409992E-1
1.312058796E1	2.232503414E0	1.077787113E1	-1.316052489E-2
1.312899098E1	1.741974831E0	1.075932693E1	4.247260094E-2
1.313739400E1	1.289133191E0	1.074796104E1	1.962114573E-1
1.314579702E1	9.954141974E-1	1.084128094E1	2.410768867E-1
1.315420004E1	9.098708034E-1	1.097886848E1	1.573280841E-1
1.316260306E1	8.673982024E-1	1.108475113E1	1.076770201E-2
1.317100608E1	8.410771489E-1	1.134975624E1	1.010967568E-1
1.317940910E1	8.177471161E-1	1.155374432E1	3.768695593E-1
1.318781212E1	1.097109199E0	1.162253761E1	7.028916478E-1
1.319621514E1	1.837089539E0	1.132881927E1	7.226324677E-1
1.320461816E1	2.732603550E0	1.182114220E1	8.237292171E-1
1.321302118E1	3.266202927E0	1.205803108E1	5.497509837E-1
1.322142421E1	3.437289715E0	1.147179031E1	3.661018610E-1
1.322982723E1	3.376870871E0	1.070608711E1	4.133601189E-1
1.323823025E1	3.337987661E0	1.037468052E1	3.744767308E-1
1.324663327E1	3.917648792E0	1.064148045E1	1.292124242E-1
1.325503629E1	4.750350952E0	1.072223854E1	-2.243271172E-1
1.326343931E1	5.197809219E0	1.051167011E1	-4.205385745E-1
1.327184233E1	4.786243439E0	9.546764374E0	4.271188378E-1
1.328024535E1	4.518247128E0	9.234500885E0	6.735795736E-1
1.328864837E1	4.556532383E0	9.571290970E0	-6.101697683E-2
1.329705139E1	4.710869789E0	9.683155060E0	-5.958128572E-1
1.330545441E1	5.204389095E0	9.547362328E0	-6.233302951E-1
1.331385744E1	6.018547058E0	8.829515457E0	-2.829512656E-1
1.332226046E1	7.199405193E0	9.247661591E0	-4.241278172E-1
1.333066348E1	8.862417221E0	1.181037426E1	-1.323230863E0
1.333906650E1	1.057747269E1	1.687957001E1	-2.649452925E0
1.334746952E1	8.284550667E0	2.033659935E1	-3.476173162E0
1.335587254E1	1.996212244E0	2.007757568E1	-2.845664263E0
1.336427556E1	-8.467600822E0	1.601097488E1	4.755735099E-1
1.337267858E1	-1.992443657E1	8.825926781E0	3.164507866E0
1.338108160E1	-1.743649864E1	2.185843468E0	-7.896314859E-1
1.338948462E1	-7.623532772E0	1.795215130E0	-3.969094515E0
1.339788764E1	1.150947690E0	7.573283672E0	-4.718048096E0
1.340629066E1	6.828517437E0	1.215194988E1	-2.339582443E0
1.341469369E1	9.622735977E0	1.362891960E1	2.637488842E0
1.342309671E1	9.486943245E0	1.211246777E1	2.914458036E0
1.343149973E1	6.455237389E0	1.054158020E1	-1.357926875E-1
1.343990275E1	1.219143152E0	9.943972588E0	-8.578268886E-1
1.344830577E1	-3.693321705E0	9.543772697E0	2.009970993E-1
1.345670879E1	-5.697310925E0	9.365508080E0	-1.146162033E0
1.346511181E1	-4.472783566E0	9.801001549E0	-2.821137905E0
1.347351483E1	-2.410768747E0	1.041416264E1	-1.252044439E0
1.348191785E1	-3.954139352E-1	1.042313576E1	1.045663476E0
1.349032087E1	1.268794179E0	9.857831001E0	1.820937991E0
1.349872389E1	1.968096614E0	9.462417603E0	1.899302959E0
1.350712691E1	1.538584948E0	9.531808853E0	2.067996979E0
1.351552994E1	3.463610709E-1	9.803992271E0	2.056631088E0
1.352393296E1	-1.068395257E0	9.856036186E0	1.037288666E0
1.353233598E1	-2.106282234E0	9.664610863E0	9.332008660E-2
1.354073900E1	-2.299502611E0	9.541978836E0	-3.032902777E-1
1.354914202E1	-1.539183140E0	9.728020668E0	-2.889333367E-1
1.355754504E1	-4.612165689E-1	1.003430176E1	-9.571290575E-3
1.356594806E1	2.650051117E-1	1.015932655E1	1.238285750E-1
1.357435108E1	4.157529473E-1	9.940981865E0	7.956135273E-2
1.358275410E1	1.842473447E-1	9.795618057E0	1.387837082E-1
1.359115712E1	-2.817548811E-1	9.833304405E0	-1.136590727E-2
1.359956014E1	-7.722834945E-1	9.659226418E0	7.417750359E-2
1.360796316E1	-8.662018180E-1	9.570094109E0	8.075776696E-2
1.361636618E1	-6.777670383E-1	9.659825325E0	2.177468538E-1
1.362476921E1	-4.295116663E-1	9.724431038E0	5.090730190E-1
1.363317223E1	-2.069791555E-1	9.665806770E0	7.441678643E-1
1.364157525E1	-5.443671346E-2	9.607182503E0	6.951149702E-1
1.364997827E1	-1.214357466E-1	9.667003632E0	6.502495408E-1
1.365838129E1	-4.271188378E-1	9.734601021E0	5.204389095E-1
1.366678431E1	-7.339983582E-1	9.815358162E0	3.924229145E-1
1.367518733E1	-8.464609981E-1	9.818349838E0	1.680957973E-1
1.368359035E1	-7.351947427E-1	9.777671814E0	1.621137410E-1
1.369199337E1	-4.091726840E-1	9.750154495E0	1.890329868E-1
1.370039639E1	9.451649338E-2	9.785448074E0	2.829512656E-1
1.370879941E1	5.910272002E-1	9.782457352E0	4.229314029E-1
1.371720244E1	8.883354068E-1	9.763913155E0	4.797609448E-1
1.372560546E1	9.684949517E-1	9.738788605E0	3.888336718E-1
1.373400848E1	7.812566161E-1	9.732208252E0	4.205385745E-1
1.374241150E1	5.060819983E-1	9.741181374E0	2.943171859E-1
1.375081452E1	3.116651475E-1	9.851848602E0	2.063809484E-1
1.375921754E1	2.440679073E-1	1.011505985E1	1.872383654E-1
1.376762056E1	2.285145670E-1	1.043749237E1	5.264209956E-2
1.377602358E1	3.176472187E-1	1.036570740E1	-1.094716340E-1
1.378442660E1	4.085744619E-1	1.021316528E1	7.716853172E-2
1.379282962E1	3.248256743E-1	1.024546814E1	1.788634956E-1
1.380123264E1	2.374876440E-1	1.053260708E1	-6.999006122E-2
1.380963566E1	9.332008660E-2	1.066301632E1	-2.309073806E-1
1.381803869E1	-4.187439755E-2	1.075214863E1	-4.043870270E-1
1.382644171E1	-2.344966233E-1	1.070548820E1	-7.603194118E-1
1.383484473E1	-3.397808075E-1	1.062652493E1	-8.656035662E-1
1.384324775E1	-2.416750938E-1	1.092622662E1	-6.987041831E-1
1.385165077E1	-2.021935135E-1	1.144606686E1	-6.951149702E-1
1.386005379E1	-5.371887088E-1	1.247378445E1	-6.933203340E-1
1.386845681E1	-1.244866014E0	1.403928852E1	-6.646065116E-1
1.387685983E1	-2.232503414E0	1.631187248E1	-6.831508875E-1
1.388526285E1	-2.913859844E0	1.782533264E1	-1.045663476E0
1.389366587E1	-2.861815929E0	1.676112366E1	-1.815554142E0
1.390206889E1	-2.566302299E0	1.378864002E1	-2.106880426E0
1.391047191E1	-2.475973129E0	1.186241817E1	-1.737787485E0
1.391887494E1	-2.167897224E0	1.192702484E1	-1.326820135E0
1.392727796E1	-1.238285661E0	1.258026505E1	-1.020538807E0
1.393568098E1	-1.435693540E-2	1.239601803E1	-9.451649338E-2
1.394408400E1	1.052842021E0	1.086281681E1	1.205982566E0
1.395248702E1	2.512463808E0	9.649655342E0	2.392224550E0
1.396089004E1	4.126422882E0	9.008378983E0	3.555136204E0
1.396929306E1	6.566503525E0	9.367302895E0	4.112663746E0
1.397769608E1	9.008378983E0	1.107996559E1	4.045664787E0
1.398609910E1	7.762316704E0	1.152742290E1	3.643670797E0
1.399450212E1	2.277369022E0	1.030528927E1	3.073580742E0
1.400290514E1	-3.463012457E0	8.960522652E0	1.702493310E0
1.401130816E1	-6.806384087E0	8.347960472E0	-2.099701911E-1
1.401971118E1	-6.887141705E0	8.222934723E0	-1.564906001E0
1.402811421E1	-4.071985722E0	8.137392044E0	-1.326820135E0
1.403651723E1	-2.727817893E-1	8.164909363E0	-2.087737769E-1
1.404492025E1	2.128415823E0	7.984251022E0	8.015955985E-2
1.405332327E1	3.072982550E0	7.915457249E0	-3.349951655E-2
1.406172629E1	3.167499065E0	7.996813297E0	9.750752151E-2
1.407012931E1	1.852044702E0	7.716254711E0	3.242274821E-1
1.407853233E1	-5.359922647E-1	6.916453838E0	3.655036688E-1
1.408693535E1	-2.397010088E0	6.613163471E0	-1.926222295E-1
1.409533837E1	-2.991626501E0	6.491727829E0	-2.099701911E-1
1.410374139E1	-2.324627161E0	6.637690067E0	-7.178467698E-3
1.411214441E1	-1.175474167E0	7.054041386E0	2.153540403E-2
1.412054744E1	-4.175475538E-1	7.448856831E0	-1.280160099E-1
1.412895046E1	-2.446661144E-1	7.594819069E0	-2.356930375E-1
1.413735348E1	-3.176472187E-1	7.540980339E0	-3.529413342E-1
1.414575650E1	-3.846462369E-1	7.515855789E0	-4.486542344E-1
1.415415952E1	-2.817548811E-1	7.628916740E0	-5.012963414E-1
1.416256254E1	7.058826834E-2	7.883752346E0	-5.623133183E-1
1.417096556E1	5.814558864E-1	8.132605553E0	-5.832505226E-1
1.417936858E1	1.150349498E0	8.316853523E0	-6.927221417E-1
1.418777160E1	1.627119422E0	8.538787842E0	-9.026923180E-1
1.419617462E1	1.865205288E0	8.673383713E0	-9.379864931E-1
1.420457764E1	2.011167526E0	8.791230202E0	-9.451649189E-1
1.421298066E1	2.086541414E0	8.941379547E0	-1.018146038E0
1.422138369E1	2.080559254E0	9.154939651E0	-1.165902853E0
1.422978671E1	2.039881229E0	9.360123634E0	-1.228714466E0
1.423818973E1	2.039283037E0	9.501898766E0	-1.176670551E0
1.424659275E1	2.101496458E0	9.674181938E0	-1.082154036E0
1.425499577E1	2.102692842E0	9.907482147E0	-9.266205430E-1
1.426339879E1	1.942971945E0	1.017129040E1	-7.453642488E-1
1.427180181E1	1.597209096E0	1.033998489E1	-5.928218365E-1
1.428020483E1	1.333998680E0	1.047218800E1	-5.276173949E-1
1.428860785E1	1.202991605E0	1.070070267E1	-4.193421602E-1
1.429701087E1	1.147956610E0	1.086640549E1	-1.022931710E-1
1.430541389E1	1.328016520E0	1.095793152E1	1.926222295E-1
1.431381691E1	1.700100541E0	1.111645603E1	3.134597540E-1
1.432221994E1	1.956730723E0	1.126181984E1	2.662015259E-1
1.433062296E1	1.995015860E0	1.134317589E1	9.451649338E-2
1.433902598E1	1.859821439E0	1.132522964E1	-7.178468257E-2
1.434742900E1	1.776072621E0	1.119960594E1	-1.663011760E-1
1.435583202E1	1.884347796E0	1.098245811E1	-1.507478207E-1
1.436423504E1	2.224128723E0	1.083589745E1	6.699903309E-2
1.437263806E1	2.670988321E0	1.090289593E1	4.181457460E-1
1.438104108E1	2.996412039E0	1.101834965E1	4.223332107E-1
1.438944410E1	3.011965513E0	1.093280697E1	2.177468538E-1
1.439784712E1	2.746960402E0	1.057747269E1	-8.494520187E-2
1.440625014E1	2.534597397E0	1.024606609E1	-3.936193287E-1
1.441465316E1	2.504088879E0	1.001575756E1	-4.301098585E-1
1.442305618E1	2.666800737E0	9.777671814E0	-2.117647976E-1
1.443145921E1	3.040081263E0	9.594620705E0	-8.673982322E-2
1.443986223E1	3.438486099E0	9.362516403E0	5.982056726E-3
1.444826525E1	3.614358664E0	9.001798630E0	4.133601189E-1
1.445666827E1	3.859024763E0	9.247661591E0	1.920240223E-1
1.446507129E1	4.147958279E0	9.708877563E0	-2.213360965E-1
1.447347431E1	4.231706619E0	9.764511108E0	-5.192425251E-1
1.448187733E1	4.133002758E0	9.210572243E0	-3.804588020E-1
1.449028035E1	4.292125702E0	9.019744873E0	-1.980060786E-1
1.449868337E1	4.524229527E0	9.103493690E0	-6.041877270E-1
1.450708639E1	4.909473896E0	8.669196129E0	-5.461617708E-1
1.451548941E1	5.557330608E0	8.491529465E0	-6.155536175E-1
1.452389244E1	6.058028698E0	9.052646637E0	-1.516451359E0
1.453229546E1	5.792425632E0	1.095374393E1	-2.609373093E0
1.454069848E1	3.291925669E0	1.508196068E1	-4.965106964E0
1.454910150E1	-1.895115495E0	1.917967033E1	-7.213163853E0
1.455750452E1	-1.256231880E1	1.950090599E1	-4.903491974E0
1.456590754E1	-2.575454903E1	1.625264931E1	6.711867452E-1
1.457431056E1	-2.273301125E1	1.110987568E1	5.484349728E0
1.458271358E1	-9.474979401E0	5.036891460E0	7.215556622E0
1.459111660E1	1.057627559E0	4.152145386E0	4.205984116E0
1.459951962E1	9.951150894E0	7.995616913E0	-1.154536963E0
1.460792264E1	1.352124214E1	1.061755180E1	-5.952146530E0
1.461632566E1	1.049611664E1	1.087837029E1	-3.020938635E0
1.462472869E1	4.657629490E0	1.061874866E1	4.039084435E0
1.463313171E1	2.632104978E-2	1.046740246E1	6.801000118E0
1.464153473E1	-3.866801500E0	9.942776680E0	4.009772778E0
1.464993775E1	-7.173682213E0	9.323633194E0	-1.622931957E0
1.465834077E1	-7.761718273E0	9.617352486E0	-6.731608391E0
1.466674379E1	-4.349553585E0	1.053260708E1	-6.138786316E0
1.467514681E1	1.722832322E-1	1.088734341E1	-7.615157962E-1
1.468354983E1	3.494717360E0	1.046680450E1	2.647658348E0
1.469195285E1	4.161716938E0	9.812367439E0	2.429313183E0
1.470035587E1	2.617149830E0	9.611370087E0	1.431506157E0
1.470875889E1	9.936196208E-1	9.754940033E0	1.290329576E0
1.471716191E1	-2.931207791E-2	9.966106415E0	1.013360381E0
1.472556494E1	-8.817551732E-1	1.008395290E1	6.466603279E-1
1.473396796E1	-1.731805444E0	9.757930756E0	3.726821244E-1
1.474237098E1	-2.013560295E0	9.402596474E0	-6.281159073E-2
1.475077400E1	-1.521835208E0	9.443274498E0	-2.835494876E-1
1.475917702E1	-2.548356056E-1	9.849455833E0	-2.626122832E-1
1.476758004E1	8.039883971E-1	1.007497978E1	1.262213886E-1
1.477598306E1	1.191027522E0	9.955338478E0	5.425725579E-1
1.478438608E1	1.030110121E0	9.798608780E0	6.747759581E-1
1.479278910E1	7.896314859E-1	9.983454704E0	1.244267747E-1
1.480119212E1	3.756731451E-1	1.000798035E1	2.267199457E-1
1.480959514E1	-1.447657645E-1	9.734002113E0	5.024927258E-1
1.481799816E1	-3.475574851E-1	9.598808289E0	6.203392744E-1
1.482640119E1	-1.411765367E-1	9.616155624E0	5.670989752E-1
1.483480421E1	5.982056633E-2	9.709476471E0	6.514459848E-1
1.484320723E1	8.733802289E-2	9.770493507E0	8.482556343E-1
1.485161025E1	7.238288224E-2	9.816555023E0	6.382854581E-1
1.486001327E1	2.997010350E-1	9.935597420E0	3.080759048E-1
1.486841629E1	4.947160780E-1	9.840482712E0	4.247260094E-1
1.487681931E1	6.167500615E-1	9.722636223E0	3.092723191E-1
1.488522233E1	6.681957245E-1	9.889535904E0	2.291127741E-1
1.489362535E1	6.604190469E-1	9.945169449E0	3.726821244E-1
1.490202837E1	6.209374666E-1	9.836894035E0	5.593222976E-1
1.491043139E1	6.729813814E-1	9.820742607E0	5.868397355E-1
1.491883441E1	6.819544435E-1	9.842875481E0	5.718846321E-1
1.492723744E1	5.688936114E-1	9.881160736E0	5.670989752E-1
1.493564046E1	3.864408433E-1	9.876375198E0	4.713860750E-1
1.494404348E1	2.823530734E-1	9.885947227E0	2.237289101E-1
1.495244650E1	1.968096644E-1	1.000738239E1	1.908276081E-1
1.496084952E1	1.088734269E-1	1.019222832E1	2.195414752E-1
1.496925254E1	9.631111473E-2	1.036869907E1	1.082752272E-1
1.497765556E1	1.651047617E-1	1.037527943E1	-3.589233849E-3
1.498605858E1	2.237289101E-1	1.033699417E1	-2.392822690E-2
1.499446160E1	-1.399801224E-1	1.044287586E1	1.070788130E-1
1.500286462E1	-4.378865361E-1	1.083829021E1	-2.201396823E-1
1.501126764E1	-5.258227587E-1	1.121934700E1	-4.109672904E-1
1.501967066E1	-6.089733839E-1	1.137846947E1	-9.188438654E-1
1.502807368E1	-6.017948985E-1	1.147478104E1	-1.200000525E0
1.503647671E1	-7.447660565E-1	1.164706421E1	-1.159322619E0
1.504487973E1	-1.202991605E0	1.206102276E1	-1.183250785E0
1.505328275E1	-2.178066730E0	1.240857983E1	-1.203589797E0
1.506168577E1	-2.745764017E0	1.288654613E1	-1.856232166E0
1.507008879E1	-2.592025042E0	1.529372597E1	-1.621735573E0
1.507849181E1	-2.374876499E0	1.970728683E1	-4.642075896E-1
1.508689483E1	-2.096710920E0	2.291007996E1	-1.405185103E0
1.509529785E1	-1.731207132E0	2.123630142E1	-3.028116941E0
1.510370087E1	-2.638685226E0	1.591227055E1	-2.860021353E0
1.511210389E1	-3.759722471E0	1.161476135E1	-1.217946768E0
1.512050691E1	-3.096312523E0	1.010728264E1	2.967100143E-1
1.512890994E1	-8.536394835E-1	8.972486496E0	1.597209096E0
1.513731296E1	2.316850424E0	7.713861942E0	3.173480988E0
1.514571598E1	5.295914650E0	6.053841114E0	5.263013363E0
1.515411900E1	8.471788406E0	5.722435474E0	6.433701992E0
1.516252202E1	1.118584728E1	7.448856831E0	6.157928944E0
1.517092504E1	1.003011417E1	9.085547447E0	4.631906509E0
1.517932806E1	3.757927895E0	8.718847275E0	2.889333248E0
1.518773108E1	-3.366103172E0	7.573283672E0	8.440681696E-1
1.519613410E1	-8.442476273E0	6.922435760E0	-1.426122308E0
1.520453712E1	-8.908478737E0	6.658029079E0	-3.443271875E0
1.521294014E1	-4.019941807E0	6.969694138E0	-2.851048231E0
1.522134316E1	1.653440475E0	7.813164234E0	-7.190431952E-1
1.522974619E1	6.131010056E0	8.540582657E0	5.210371017E-1
1.523814921E1	8.109873772E0	8.467002869E0	8.769695163E-1
1.524655223E1	6.818347931E0	7.596015453E0	9.014959335E-1
1.525495525E1	3.524029493E0	6.857829571E0	5.276173949E-1
1.526335827E1	-7.477571070E-2	6.218348026E0	3.798605800E-1
1.527176129E1	-2.614757061E0	5.889933109E0	7.776673883E-2
1.528016431E1	-3.718446493E0	5.864808083E0	-1.010967568E-1
1.528856733E1	-3.564109325E0	6.216553211E0	8.673982322E-2
1.529697035E1	-2.713460922E0	6.768697262E0	3.667000830E-1
1.530537337E1	-1.887338877E0	7.300501823E0	4.426721931E-1
1.531377639E1	-1.193420291E0	7.673183918E0	4.941178858E-1
1.532217941E1	-6.556333899E-1	7.903493404E0	4.169493318E-1
1.533058244E1	-3.206382394E-1	8.158329010E0	3.589234129E-2
1.533898546E1	-1.555334777E-1	8.424530029E0	-3.990031779E-1
1.534738848E1	1.854437590E-2	8.583054543E0	-7.322037220E-1
1.535579150E1	3.936193287E-1	8.715258598E0	-9.302098155E-1
1.536419452E1	9.810572863E-1	8.896514893E0	-1.033101201E0
1.537259754E1	1.638485312E0	9.096315384E0	-1.092323542E0
1.538100056E1	2.135594130E0	9.302098274E0	-1.072582722E0
1.538940358E1	2.385046005E0	9.451649666E0	-9.559326172E-1
1.539780660E1	2.359921217E0	9.550951958E0	-7.357929349E-1
1.540620962E1	2.209173441E0	9.661021233E0	-5.126622319E-1
1.541461264E1	2.014756680E0	9.818349838E0	-4.301098585E-1
1.542301566E1	1.861017823E0	1.005224800E1	-5.288137794E-1
1.543141868E1	1.713261008E0	1.034836006E1	-6.388836503E-1
1.543982171E1	1.442872047E0	1.060678482E1	-5.204389095E-1
1.544822473E1	1.027717352E0	1.079222870E1	-1.962114573E-1
1.545662775E1	5.928218365E-1	1.094417286E1	-5.982056726E-3
1.546503077E1	4.097708762E-1	1.118345451E1	-1.112662554E-1
1.547343379E1	5.150550604E-1	1.140778160E1	-3.607180119E-1
1.548183681E1	7.698906660E-1	1.160100269E1	-3.367897868E-1
1.549023983E1	1.063011408E0	1.162852001E1	-5.802594870E-2
1.549864285E1	1.387837172E0	1.150170040E1	4.785645381E-2
1.550704587E1	1.694716692E0	1.133181000E1	4.007977992E-2
1.551544889E1	2.028515339E0	1.111226845E1	-1.621137410E-1
1.552385191E1	2.516651154E0	1.102971554E1	-3.918247223E-1
1.553225494E1	3.171088219E0	1.118824005E1	-6.981059909E-1
1.554065796E1	3.812962770E0	1.138146114E1	-1.166501045E0
1.554906098E1	4.179064751E0	1.124626637E1	-1.272383451E0
1.555746400E1	4.423132420E0	1.095135117E1	-1.077966571E0
1.556586702E1	4.598406792E0	1.075573826E1	-9.810572863E-1
1.557427004E1	4.536193371E0	1.052662468E1	-1.095912814E0
1.558267306E1	4.485944271E0	1.037587738E1	-1.223330617E0
1.559107608E1	4.442275047E0	1.015454102E1	-1.301695466E0
1.559947910E1	4.367499352E0	9.824331284E0	-1.296311617E0
1.560788212E1	4.392624378E0	9.435498238E0	-1.086939692E0
1.561628514E1	4.551148891E0	9.031110764E0	-8.177471161E-1
1.562468816E1	4.685744762E0	8.974879265E0	-7.088736892E-1
1.563309119E1	4.590032101E0	8.978468895E0	-4.187439680E-1
1.564149421E1	4.697709084E0	8.870791435E0	-7.657032460E-2
1.564989723E1	5.270790100E0	8.802596092E0	-2.620140910E-1
1.565830025E1	5.769693375E0	9.285347939E0	-9.529415965E-1
1.566670327E1	5.912664890E0	9.879964828E0	-1.266999602E0
1.567510629E1	6.428916454E0	1.300798225E1	-1.637887120E0
1.568350931E1	5.109872818E0	1.835055733E1	-3.111865759E0
1.569191233E1	5.982056633E-2	2.236451721E1	-2.838485956E0
1.570031535E1	-9.525228500E0	2.225444794E1	2.255833626E0
1.570871837E1	-1.799103546E1	1.591047573E1	6.038886070E0
1.571712139E1	-1.294158173E1	5.766702652E0	3.498904943E0
1.572552441E1	-4.772484779E0	4.019941986E-1	-2.410768867E-1
1.573392744E1	2.319841623E0	3.675375462E0	-2.961117983E0
1.574233046E1	7.686344624E0	9.979865074E0	-3.356531858E0
1.575073348E1	9.266803741E0	1.307976723E1	5.593222976E-1
1.575913650E1	6.529414654E0	1.203769207E1	4.808377266E0
1.576753952E1	2.519642353E0	1.087298584E1	4.678566456E0
1.577594254E1	-1.741376638E0	1.028315544E1	5.964110494E-1
1.578434556E1	-5.898307800E0	9.235696793E0	-3.449851990E0
1.579274858E1	-7.044469833E0	9.111269951E0	-4.488935471E0
1.580115160E1	-3.868596077E0	9.918250084E0	-3.036491871E0
1.580955462E1	4.229314029E-1	1.062054348E1	-3.230310604E-2
1.581795764E1	2.797807932E0	1.067737293E1	2.282154560E0
1.582636066E1	2.765504837E0	1.007378292E1	3.184846878E0
1.583476368E1	1.165902853E0	9.422935486E0	2.538784742E0
1.584316671E1	-5.318048596E-1	9.436694145E0	1.107278705E0
1.585156973E1	-1.709671736E0	9.671191216E0	3.672982752E-1
1.585997275E1	-2.092523336E0	9.828518867E0	4.666004330E-2
1.586837577E1	-1.631905079E0	9.833304405E0	-3.708875179E-2
1.587677879E1	-7.692924738E-1	9.796216011E0	1.812563092E-1
1.588518181E1	6.460621208E-2	9.903892517E0	1.764706671E-1
1.589358483E1	5.276173949E-1	1.014915752E1	2.548356056E-1
1.590198785E1	4.731806815E-1	1.019282627E1	2.237289101E-1
1.591039087E1	3.098705411E-1	1.007737255E1	1.495514158E-2
1.591879389E1	5.204389244E-2	9.974481583E0	-7.178467698E-3
1.592719691E1	-2.805584669E-1	9.990633011E0	6.819544733E-2
1.593559994E1	-6.885347366E-1	9.863813400E0	6.879365444E-2
1.594400296E1	-1.002592683E0	9.633503914E0	1.447657645E-1
1.595240598E1	-1.120439172E0	9.550353050E0	3.858426511E-1
1.596080900E1	-1.059422255E0	9.552745819E0	7.884350419E-1
1.596921202E1	-8.733802438E-1	9.381659508E0	1.134197950E0
1.597761504E1	-5.958128572E-1	9.200403214E0	1.502094388E0
1.598601806E1	-3.607180119E-1	9.355338097E0	1.455434322E0
1.599442108E1	-4.139583111E-1	9.613164902E0	1.161715388E0
1.600282410E1	-6.598208547E-1	9.577272415E0	1.162313581E0
1.601122712E1	-7.758727670E-1	9.429515839E0	1.168295622E0
1.601963014E1	-5.886343718E-1	9.379864693E0	8.967102766E-1
1.602803316E1	-3.445664644E-1	9.423533440E0	8.697910309E-1
1.603643618E1	-1.591227055E-1	9.495318413E0	1.112064362E0
1.604483921E1	-1.788634956E-1	9.641879082E0	8.709874153E-1
1.605324223E1	-4.522434771E-1	9.672387123E0	6.382854581E-1
1.606164525E1	-5.545366406E-1	9.741779327E0	5.300102234E-1
1.607004827E1	-2.644068897E-1	9.895518303E0	3.170489967E-1
1.607845129E1	1.812563092E-1	9.926026344E0	2.117647976E-1
1.608685431E1	5.485545993E-1	9.892526627E0	4.420739710E-1
1.609525733E1	7.764709592E-1	9.760921478E0	9.726824164E-1
1.610366035E1	8.662018180E-1	9.680762291E0	1.128814101E0
1.611206337E1	8.081758618E-1	9.631709099E0	1.056431174E0
1.612046639E1	6.951149702E-1	9.723833084E0	9.074779749E-1
1.612886941E1	5.126622319E-1	9.911669731E0	6.783652306E-1
1.613727244E1	2.656033039E-1	1.004746246E1	6.789634228E-1
1.614567546E1	1.956132501E-1	1.021735287E1	6.269195080E-1
1.615407848E1	3.523431420E-1	1.041894817E1	5.856433511E-1
1.616248150E1	4.241278172E-1	1.059242725E1	5.276173949E-1
1.617088452E1	4.211367965E-1	1.078445148E1	3.062812984E-1
1.617928754E1	3.720839322E-1	1.096989536E1	7.836493850E-2
1.618769056E1	3.326023519E-1	1.098843956E1	-1.459621787E-1
1.619609358E1	3.314059377E-1	1.110449123E1	-2.662015259E-1
1.620449660E1	3.164508045E-1	1.145683479E1	-4.181457460E-1
1.621289962E1	1.561316848E-1	1.204367447E1	-4.576273263E-1
1.622130264E1	-3.762713671E-1	1.264726448E1	-5.353940725E-1
1.622970566E1	-1.172483087E0	1.356610775E1	-5.527420044E-1
1.623810868E1	-2.121237278E0	1.580399513E1	-3.170489967E-1
1.624651171E1	-3.235096216E0	1.846601105E1	-2.069791555E-1
1.625491473E1	-3.944568157E0	1.950569153E1	-1.599601984E0
1.626331775E1	-4.088137627E0	1.769013786E1	-3.045464993E0
1.627172077E1	-4.189832687E0	1.431865025E1	-2.661417007E0
1.628012379E1	-3.896711588E0	1.221535969E1	-2.067398787E0
1.628852681E1	-2.858226538E0	1.155314636E1	-1.840678811E0
1.629692983E1	-1.153938770E0	1.145145130E1	-1.360917926E0
1.630533285E1	5.114658475E-1	1.059003448E1	-4.731806815E-1
1.631373587E1	2.237289190E0	9.151350021E0	6.658028960E-1
1.632213889E1	3.795614958E0	7.489534855E0	2.435893536E0
1.633054191E1	5.262415409E0	6.413362980E0	3.845864296E0
1.633894494E1	6.729215622E0	6.958926678E0	4.941776752E0
1.634734796E1	6.751348972E0	8.708079338E0	4.785047054E0
1.635575098E1	2.617149830E0	9.086145401E0	3.111865759E0
1.636415400E1	-2.720639229E0	8.266005516E0	1.266401410E0
1.637255702E1	-6.239883423E0	7.235297680E0	-1.591227055E-1
1.638096004E1	-5.745765209E0	6.444469452E0	-8.362914920E-1
1.638936306E1	-2.460419893E0	6.366703033E0	-5.144568682E-1
1.639776608E1	4.253242314E-1	7.057630539E0	-4.067798331E-2
1.640616910E1	1.997408748E0	7.528418064E0	5.108676553E-1
1.641457212E1	3.144168854E0	7.636693478E0	9.960124493E-1
1.642297514E1	3.544368505E0	7.651648521E0	1.190429211E0
1.643137816E1	2.102094650E0	7.204190731E0	1.074975610E0
1.643978118E1	1.615155339E-1	7.176074982E0	9.667003751E-1
1.644818421E1	-1.323829174E0	7.052246571E0	6.496513486E-1
1.645658723E1	-1.902892232E0	6.902695179E0	4.749752879E-1
1.646499025E1	-1.652842283E0	7.098906517E0	6.131607890E-1
1.647339327E1	-1.039083242E0	7.466803074E0	7.615157962E-1
1.648179629E1	-4.109672904E-1	7.818548203E0	8.626125455E-1
1.649019931E1	1.106680483E-1	8.117650986E0	8.853443861E-1
1.649860233E1	4.139583111E-1	8.343772888E0	8.087740541E-1
1.650700535E1	5.371887088E-1	8.553144455E0	6.987041831E-1
1.651540837E1	6.472585201E-1	8.736195564E0	6.119644046E-1
1.652381139E1	8.560323119E-1	8.876773834E0	5.126622319E-1
1.653221441E1	1.129412293E0	9.022137642E0	3.882354796E-1
1.654061744E1	1.393819213E0	9.295517921E0	1.938186288E-1
1.654902046E1	1.460818172E0	9.492925644E0	5.982056609E-4
1.655742348E1	1.309472203E0	9.561120987E0	-1.728814393E-1
1.656582650E1	1.079761267E0	9.620343208E0	-2.536391914E-1
1.657422952E1	9.625129104E-1	9.729216576E0	-2.913261652E-1
1.658263254E1	9.900303483E-1	9.954142570E0	-3.966103494E-1
1.659103556E1	1.125224829E0	1.022034359E1	-4.181457460E-1
1.659943858E1	1.269990563E0	1.045543861E1	-3.559323549E-1
1.660784160E1	1.272981644E0	1.063011456E1	-2.769692242E-1
1.661624462E1	1.087537885E0	1.079103184E1	-1.740778536E-1
1.662464764E1	7.519445419E-1	1.095194912E1	-1.668993831E-1
1.663305066E1	4.085744619E-1	1.103210926E1	-1.591227055E-1
1.664145369E1	1.752742529E-1	1.104467106E1	-7.537391037E-2
1.664985671E1	1.698904037E-1	1.105543900E1	-1.495514158E-2
1.665825973E1	2.153540403E-1	1.109372425E1	1.256231871E-2
1.666666275E1	1.190429255E-1	1.108175945E1	-1.369891018E-1
1.667506577E1	-8.793623000E-2	1.094716358E1	-3.320041299E-1
1.668346879E1	-2.195414752E-1	1.085204887E1	-4.606183469E-1
1.669187181E1	-1.172483116E-1	1.086520958E1	-4.839483798E-1
1.670027483E1	2.327020019E-1	1.096630573E1	-4.809573591E-1
1.670867785E1	7.453642488E-1	1.103390312E1	-4.935196638E-1
1.671708087E1	1.359123230E0	1.094895840E1	-5.312066078E-1
1.672548389E1	1.815554142E0	1.111825085E1	-7.112665176E-1
1.673388691E1	1.951945066E0	1.098963642E1	-8.297112584E-1
1.674228994E1	2.112264156E0	1.063908768E1	-5.198407173E-1
1.675069296E1	2.298306227E0	1.051346493E1	-2.608176768E-1
1.675909598E1	2.473580360E0	1.049970531E1	-2.087737769E-1
1.676749900E1	2.883351326E0	1.010608673E1	-2.757728100E-1
1.677590202E1	3.535993576E0	9.656833649E0	-2.901297510E-1
1.678430504E1	4.058825493E0	9.486943245E0	-3.122633696E-1
1.679270806E1	4.445864677E0	9.394820213E0	-4.893322289E-1
1.680111108E1	4.797609329E0	9.223732948E0	-3.870390654E-1
1.680951410E1	5.160121918E0	9.175876617E0	-4.109672904E-1
1.681791712E1	5.268995285E0	8.950352669E0	-2.841476798E-1
1.682632014E1	5.311468124E0	8.239086151E0	2.931207716E-1
1.683472316E1	5.659623623E0	7.893323898E0	3.864408433E-1
1.684312619E1	6.521039963E0	8.454441071E0	-4.666004181E-1
1.685152921E1	7.347760201E0	8.577073097E0	-1.214955688E0
1.685993223E1	7.424928665E0	8.241478920E0	-1.362114310E0
1.686833525E1	6.604788780E0	9.528818130E0	-1.670788407E0
1.687673827E1	5.026124001E0	1.461894989E1	-2.632703066E0
1.688514129E1	1.335793257E0	2.120220375E1	-2.489732027E0
1.689354431E1	-6.826723099E0	2.480758858E1	1.930409670E0
1.690194733E1	-1.950808525E1	2.253620148E1	6.004190445E0
1.691035035E1	-1.825544167E1	1.164168072E1	5.318048596E-1
1.691875337E1	-8.504091263E0	4.205385745E-1	-5.088935375E0
1.692715639E1	-5.946164131E-1	-1.625923038E0	-5.370690346E0
1.693555941E1	5.414359570E0	6.425326824E0	-2.025524378E0
1.694396244E1	9.227920532E0	1.274477196E1	2.938386202E0
1.695236546E1	9.915258408E0	1.345185089E1	6.576074600E0
1.696076848E1	6.924828529E0	1.128754234E1	5.997011662E0
1.696917150E1	2.218146563E0	1.013360405E1	1.261017561E0
1.697757452E1	-3.338585854E0	9.815957069E0	-3.040081263E0
1.698597754E1	-8.268398285E0	9.516854286E0	-4.635495663E0
1.699438056E1	-7.627720356E0	1.008395290E1	-4.108476639E0
1.700278358E1	-3.259622574E0	1.046620655E1	-2.403590441E0
1.701118660E1	6.161518097E-1	1.030768204E1	3.278166950E-1
1.701958962E1	2.746362209E0	9.805189133E0	2.785843849E0
1.702799264E1	3.787838221E0	9.621540070E0	3.843471289E0
1.703639566E1	3.442673683E0	9.676574707E0	3.356531858E0
1.704479868E1	1.363310695E0	9.642477036E0	2.401795626E0
1.705320171E1	-1.197607756E0	9.366703987E0	1.762313843E0
1.706160473E1	-2.809173822E0	9.199206352E0	8.997012973E-1
1.707000775E1	-2.925823927E0	9.475577354E0	4.486542568E-2
1.707841077E1	-1.822134495E0	9.801599503E0	-8.374879137E-3
1.708681379E1	-4.809573591E-1	9.753145218E0	3.182454109E-1
1.709521681E1	4.528416991E-1	9.823135376E0	2.123630047E-1
1.710361983E1	8.626125455E-1	1.010429192E1	-1.525424421E-1
1.711202285E1	7.082754970E-1	1.020598698E1	-3.182454109E-1
1.712042587E1	1.615155302E-2	1.018385315E1	-2.380858511E-1
1.712882889E1	-8.434699774E-1	1.012044334E1	-8.733802289E-2
1.713723191E1	-1.543968797E0	9.969695091E0	2.751746029E-2
1.714563494E1	-1.739582062E0	9.616754532E0	7.836493850E-2
1.715403796E1	-1.302891970E0	9.415159225E0	2.189432681E-1
1.716244098E1	-4.498506486E-1	9.604191780E0	7.603194118E-1
1.717084400E1	1.040877849E-1	9.747162819E0	8.614161611E-1
1.717924702E1	3.290131316E-2	9.753743172E0	5.030909777E-1
1.718765004E1	-4.199403822E-1	9.768698692E0	3.798605800E-1
1.719605306E1	-8.536394835E-1	9.696315765E0	1.286142170E-1
1.720445608E1	-8.590233326E-1	9.647262573E0	2.560320199E-1
1.721285910E1	-5.880361795E-1	9.646664619E0	6.604190469E-1
1.722126212E1	-3.098705411E-1	9.671191216E0	7.998009920E-1
1.722966514E1	-2.267199457E-1	9.750154495E0	8.727820516E-1
1.723806816E1	-3.798605800E-1	9.769894600E0	8.877372146E-1
1.724647118E1	-5.575276613E-1	9.872187614E0	7.166503668E-1
1.725487421E1	-5.060819983E-1	1.004626560E1	2.596212626E-1
1.726327723E1	-2.111666054E-1	9.995418549E0	1.513460279E-1
1.727168025E1	1.710868180E-1	9.901499748E0	3.266202807E-1
1.728008327E1	4.636093974E-1	9.827322960E0	3.553341627E-1
1.728848629E1	5.844469070E-1	9.862616539E0	3.954139352E-1
1.729688931E1	4.582255483E-1	9.882357597E0	3.696911037E-1
1.730529233E1	3.080759048E-1	9.827322960E0	3.014956415E-1
1.731369535E1	1.914258152E-1	9.753743172E0	4.366901219E-1
1.732209837E1	1.824527234E-1	9.807581902E0	5.030909777E-1
