"Time (s)"	"Gyroscope x (rad/s)"	"Gyroscope y (rad/s)"	"Gyroscope z (rad/s)"
3.707833200E-2	3.054236295E-4	-2.367033064E-2	-3.726168349E-2
4.548135300E-2	1.374406274E-3	1.527118147E-4	-3.084778599E-2
5.388437400E-2	5.344913341E-3	7.635590737E-4	-2.855710872E-2
6.228739500E-2	7.330167107E-3	-1.313321572E-2	-1.725643501E-2
7.069041600E-2	8.246437646E-3	-1.542389300E-2	-1.206423342E-2
7.909343600E-2	6.566607859E-3	-2.061609551E-2	-1.267508045E-2
8.749645700E-2	4.123218823E-3	-1.847812906E-2	-1.404948719E-2
9.589947800E-2	3.054236295E-3	-2.870982140E-2	-1.252236869E-2
1.043024990E-1	4.734066315E-3	-4.199574888E-2	-1.450762246E-2
1.127055200E-1	5.650337320E-3	-4.275930673E-2	-1.145338640E-2
1.211085410E-1	7.482878864E-3	-3.283303976E-2	-7.330167107E-3
1.295115610E-1	4.428642802E-3	-2.199050039E-2	-4.581354558E-3
1.379145820E-1	4.123218823E-3	-1.145338640E-2	-9.315420873E-3
1.463176030E-1	4.123218823E-3	-1.985253533E-3	-1.466033421E-2
1.547206240E-1	3.359660041E-3	8.399149403E-3	-1.618745178E-2
1.631236450E-1	2.290677279E-3	1.695101149E-2	-1.588202827E-2
1.715266660E-1	-9.162708884E-4	1.466033421E-2	-1.496575773E-2
1.799296860E-1	-3.512371797E-3	1.634016447E-2	-1.252236869E-2
1.883327070E-1	-5.955760833E-3	2.229592577E-2	-9.773556143E-3
1.967357280E-1	-5.955760833E-3	2.794626169E-2	-6.719320081E-3
2.051387490E-1	-2.596100792E-3	2.473931387E-2	-8.857285604E-3
2.135417700E-1	-2.290677279E-3	2.122694254E-2	-8.857285604E-3
2.219447910E-1	-1.832541777E-3	1.542389300E-2	-8.551862091E-3
2.303478110E-1	-1.221694518E-3	8.246437646E-3	-4.123218823E-3
2.387508320E-1	-4.581354558E-3	2.443389036E-3	-5.192201585E-3
2.471538530E-1	-7.024743594E-3	4.886778072E-3	-7.177455351E-3
2.555568740E-1	-8.551862091E-3	8.093725890E-3	-7.788302377E-3
2.639598950E-1	-8.551862091E-3	1.099525020E-2	-6.719320081E-3
2.723629160E-1	-7.024743594E-3	9.162708884E-4	-4.581354558E-3
2.807659360E-1	-7.482878864E-3	-6.413896102E-3	-2.137965523E-3
2.891689570E-1	-1.068982668E-2	-9.009997360E-3	1.068982761E-3
2.975719780E-1	-9.773556143E-3	-1.420219894E-2	8.399149403E-3
3.059749990E-1	-1.084253844E-2	-2.305948362E-2	1.847812906E-2
3.143780200E-1	-1.374406368E-2	-2.840439789E-2	1.908897609E-2
3.227810410E-1	-1.664558798E-2	-2.611372061E-2	1.038440317E-2
3.311840610E-1	-1.588202827E-2	-1.175880991E-2	-2.443389036E-3
3.395870820E-1	-1.435491070E-2	6.108472589E-4	-8.857285604E-3
3.479901030E-1	-1.832541823E-2	-9.162708884E-4	-1.374406368E-2
3.563931240E-1	-1.908897609E-2	-1.023169141E-2	-2.641914412E-2
3.647961450E-1	-1.588202827E-2	1.160609815E-2	-3.130592033E-2
3.731991660E-1	-1.191152167E-2	1.466033421E-2	-3.298575059E-2
3.816021860E-1	-1.282779220E-2	2.290677279E-3	-3.710897267E-2
3.900052070E-1	-1.756185852E-2	-1.084253844E-2	-3.726168349E-2
3.984082280E-1	-1.740914769E-2	-4.352286831E-2	-4.321744293E-2
4.068112490E-1	-1.740914769E-2	-6.154286116E-2	-5.192201585E-2
4.152142700E-1	-1.832541823E-2	-5.757235363E-2	-4.764608666E-2
4.236172910E-1	-1.985253580E-2	-6.994201243E-2	-5.008947477E-2
4.320203110E-1	-1.572931744E-2	-7.009471953E-2	-5.711421743E-2
4.404233320E-1	-1.664558798E-2	-8.780929446E-2	-7.437065244E-2
4.488263530E-1	-1.572931744E-2	-8.918370306E-2	-7.849387079E-2
4.572293740E-1	-1.679829881E-2	-7.971556485E-2	-6.963659078E-2
4.656323950E-1	-2.061609551E-2	-2.183778957E-2	-4.413371533E-2
4.740354160E-1	-2.596100792E-2	-2.580829710E-2	-3.634541109E-2
4.824384360E-1	-2.901524492E-2	-2.764083818E-2	-3.420744836E-2
4.908414570E-1	-1.985253580E-2	-4.688252881E-2	-3.588727489E-2
4.992444780E-1	-1.023169141E-2	-4.550812021E-2	-2.244863659E-2
5.076474990E-1	-1.267508045E-2	-4.535540938E-2	1.236965694E-2
5.160505200E-1	-2.183778957E-2	-6.093201414E-2	2.015795931E-2
5.244535410E-1	-2.382304333E-2	-7.055285573E-2	2.046338283E-2
5.328565610E-1	-1.771457121E-2	-5.512896553E-2	1.252236869E-2
5.412595820E-1	-1.771457121E-2	-2.061609551E-2	3.054236295E-3
5.496626030E-1	-2.168507688E-2	-4.581354442E-4	-5.803049076E-3
5.580656240E-1	-2.061609551E-2	-3.359660041E-3	-1.267508045E-2
5.664686450E-1	-2.153236605E-2	-8.704573847E-3	-9.468132630E-3
5.748716660E-1	-2.565558441E-2	-5.650337320E-3	0.000000000E0
5.832746860E-1	-2.611372061E-2	-8.551862091E-3	5.344913341E-3
5.916777070E-1	-2.412846684E-2	-1.527118124E-2	2.596100792E-3
6.000807280E-1	-2.367033064E-2	-2.367033064E-2	-1.832541777E-3
6.084837490E-1	-2.458660305E-2	-2.901524492E-2	-1.985253533E-3
6.168867700E-1	-2.550287358E-2	-2.199050039E-2	-6.108472589E-4
6.252897910E-1	-2.535016090E-2	-1.053711493E-2	-7.635590737E-4
6.336928110E-1	-2.489202656E-2	-5.650337320E-3	-1.679830020E-3
6.420958320E-1	-2.657185495E-2	-1.374406274E-3	-1.985253533E-3
6.504988530E-1	-2.870982140E-2	3.206948051E-3	-2.137965523E-3
6.589018740E-1	-2.458660305E-2	2.290677279E-3	-3.206948051E-3
6.673048950E-1	-2.489202656E-2	-1.236965694E-2	-2.596100792E-3
6.757079160E-1	-2.641914412E-2	-2.153236605E-2	4.123218823E-3
6.841109360E-1	-2.641914412E-2	-2.367033064E-2	9.009997360E-3
6.925139570E-1	-2.733541466E-2	-2.657185495E-2	9.315420873E-3
7.009169780E-1	-2.672456764E-2	-1.801999472E-2	7.788302377E-3
7.093199990E-1	-2.092151903E-2	-2.290677279E-3	9.315420873E-3
7.177230200E-1	-7.330167107E-3	1.572931744E-2	1.267508045E-2
7.261260410E-1	9.162708884E-4	4.688252881E-2	2.244863659E-2
7.345290610E-1	1.679830020E-3	9.773556143E-2	3.313846514E-2
7.429320820E-1	1.847812906E-2	1.438545287E-1	3.573456407E-2
7.513351030E-1	2.702999115E-2	1.710372269E-1	3.497100621E-2
7.597381240E-1	2.489202656E-2	2.125748396E-1	3.695625812E-2
7.681411450E-1	2.367033064E-2	2.544178963E-1	3.008422814E-2
7.765441660E-1	4.413371533E-2	2.796153426E-1	1.252236869E-2
7.849471860E-1	6.352811307E-2	3.040492237E-1	8.551862091E-3
7.933502070E-1	7.452336699E-2	3.423798978E-1	2.046338283E-2
8.017532280E-1	9.590301663E-2	3.655920923E-1	2.076880634E-2
8.101562490E-1	1.253764033E-1	3.689517379E-1	1.282779220E-2
8.185592700E-1	1.449235082E-1	4.146125913E-1	1.954711229E-2
8.269622910E-1	1.681357026E-1	4.981459379E-1	3.710897267E-2
8.353653110E-1	2.157817930E-1	5.942016840E-1	4.566083103E-2
8.437683320E-1	2.577775419E-1	7.221741676E-1	5.573981255E-2
8.521713530E-1	2.877090573E-1	8.976400495E-1	6.856760383E-2
8.605743740E-1	3.017585576E-1	1.065012217E0	6.032116711E-2
8.689773950E-1	3.063398898E-1	1.183058381E0	2.076880634E-2
8.773804160E-1	3.058817685E-1	1.232537031E0	-3.649812192E-2
8.857834360E-1	3.048127890E-1	1.194206357E0	-7.650861889E-2
8.941864570E-1	3.084778786E-1	1.089904189E0	-7.467607409E-2
9.025894780E-1	3.254288733E-1	9.903361201E-1	-1.557660475E-2
9.109924990E-1	3.323009014E-1	9.575030804E-1	5.848862603E-2
9.193955200E-1	3.251234591E-1	9.736905098E-1	9.620844573E-2
9.277985410E-1	3.144336343E-1	1.017213345E0	7.009471953E-2
9.362015610E-1	2.997733057E-1	1.094791055E0	4.886778072E-3
9.446045820E-1	2.791571915E-1	1.160151601E0	-6.352811307E-2
9.530076030E-1	2.530434728E-1	1.173284888E0	-1.212531775E-1
9.614106240E-1	2.244863659E-1	1.113727212E0	-1.446180940E-1
9.698136450E-1	1.953184158E-1	9.965972900E-1	-1.331647038E-1
9.782166660E-1	1.733279079E-1	8.586985469E-1	-9.407047927E-2
9.866196860E-1	1.505738497E-1	7.598940134E-1	-6.077930331E-2
9.950227070E-1	1.508792788E-1	6.859814525E-1	-5.894676223E-2
1.003425728E0	1.661504507E-1	5.990884304E-1	-9.590301663E-2
1.011828749E0	1.658450365E-1	5.294518471E-1	-1.423274130E-1
1.020231770E0	1.774511337E-1	5.238015056E-1	-1.508792788E-1
1.028634791E0	1.875301152E-1	5.497625470E-1	-1.324011385E-1
1.037037811E0	1.960819662E-1	5.740436912E-1	-1.116323397E-1
1.045440832E0	2.067717910E-1	6.048914790E-1	-9.972081333E-2
1.053843853E0	2.072299272E-1	6.484143734E-1	-1.082726792E-1
1.062246874E0	2.118112892E-1	6.620057225E-1	-1.324011385E-1
1.070649895E0	2.159345001E-1	6.323796511E-1	-1.560714692E-1
1.079052916E0	2.206685692E-1	5.714476109E-1	-1.588202864E-1
1.087455936E0	2.264716178E-1	5.079194903E-1	-1.316375881E-1
1.095858957E0	2.299840003E-1	4.798205197E-1	-1.021642014E-1
1.104261978E0	2.434226274E-1	5.001311898E-1	-7.971556485E-2
1.112664999E0	2.528907657E-1	5.522059202E-1	-7.757759839E-2
1.121068020E0	2.480039895E-1	6.384881139E-1	-9.468132257E-2
1.129471041E0	2.443388999E-1	7.256865501E-1	-1.233911440E-1
1.137874061E0	2.365505993E-1	7.773031592E-1	-1.540862173E-1
1.146277082E0	2.194468826E-1	8.034168482E-1	-1.776038408E-1
1.154680103E0	2.087570578E-1	8.081509471E-1	-1.878355294E-1
1.163083124E0	2.072299272E-1	8.115105629E-1	-1.663031727E-1
1.171486145E0	2.170034945E-1	8.428165317E-1	-1.128540337E-1
1.179889166E0	2.252499312E-1	9.049702287E-1	-6.062658876E-2
1.188292186E0	2.247917950E-1	9.990406632E-1	-3.313846514E-2
1.196695207E0	2.414373755E-1	1.104106426E0	-2.733541466E-2
1.205098228E0	2.786990702E-1	1.229177356E0	-4.443913698E-2
1.213501249E0	3.035911024E-1	1.396854997E0	-4.596625641E-2
1.221904270E0	3.129065037E-1	1.603626728E0	-1.771457121E-2
1.230307291E0	3.052709103E-1	1.803068399E0	1.817270555E-2
1.238710311E0	2.944283783E-1	1.977312565E0	1.114796288E-2
1.247113332E0	3.005368412E-1	2.143921137E0	-1.374406368E-2
1.255516353E0	3.219164908E-1	2.269450188E0	-4.260659590E-2
1.263919374E0	3.312319219E-1	2.351303816E0	-6.749862432E-2
1.272322395E0	3.173351586E-1	2.351914644E0	-4.978405312E-2
1.280725416E0	2.811424434E-1	2.271893740E0	-1.893626526E-2
1.289128436E0	2.545706034E-1	2.167438745E0	-1.756185852E-2
1.297531457E0	2.654131353E-1	2.078560591E0	-1.068982761E-3
1.305934478E0	2.903051674E-1	2.036564827E0	5.207473040E-2
1.314337499E0	2.762556672E-1	2.067412615E0	1.044548824E-1
1.322740520E0	2.661767006E-1	2.107423067E0	1.174353883E-1
1.331143541E0	2.710634768E-1	2.108186483E0	1.049130186E-1
1.339546561E0	2.777827978E-1	2.144837379E0	6.642963737E-2
1.347949582E0	2.727433145E-1	2.190192938E0	3.222219273E-2
1.356352603E0	2.434226274E-1	2.172325611E0	1.038440317E-2
1.364755624E0	1.991362125E-1	2.099329233E0	-1.191152167E-2
1.373158645E0	1.401894391E-1	2.005869627E0	-3.298575059E-2
1.381561666E0	1.039967462E-1	1.931651711E0	-4.535540938E-2
1.389964686E0	1.094943732E-1	1.857739210E0	-3.558185324E-2
1.398367707E0	1.409530044E-1	1.802762985E0	-1.695101149E-2
1.406770728E0	1.504211426E-1	1.812078357E0	2.290677279E-3
1.415173749E0	1.339282542E-1	1.889961362E0	1.649287529E-2
1.423576770E0	1.149920002E-1	1.929971933E0	-3.817795310E-3
1.431979791E0	6.627693027E-2	1.908286810E0	-5.528167635E-2
1.440382811E0	-2.137965523E-3	1.834221601E0	-1.198787764E-1
1.448785832E0	-6.230641901E-2	1.687312841E0	-1.766875684E-1
1.457188853E0	-1.177408099E-1	1.468476772E0	-1.937913001E-1
1.465591874E0	-1.649287641E-1	1.224443316E0	-1.815743446E-1
1.473994895E0	-1.956238300E-1	9.614735842E-1	-1.597365588E-1
1.482397916E0	-2.064663768E-1	6.629219651E-1	-1.401894391E-1
1.490800936E0	-2.066190839E-1	3.629959822E-1	-1.316375881E-1
1.499203957E0	-2.093679011E-1	1.012479365E-1	-1.421747059E-1
1.507606978E0	-2.050919682E-1	-1.553079188E-1	-1.615691036E-1
1.516009999E0	-2.011214644E-1	-4.408790171E-1	-1.702736765E-1
1.524413020E0	-2.078407854E-1	-7.293516397E-1	-1.696628332E-1
1.532816041E0	-2.255553454E-1	-9.969027042E-1	-1.600419879E-1
1.541219061E0	-2.278460264E-1	-1.263384819E0	-1.440072358E-1
1.549622082E0	-2.458660156E-1	-1.449693203E0	-1.301104724E-1
1.558025103E0	-2.582356930E-1	-1.510625243E0	-1.211004704E-1
1.566428124E0	-2.348707765E-1	-1.445875406E0	-8.964183182E-2
1.574831145E0	-1.977618039E-1	-1.244601250E0	-3.466558084E-2
1.583234166E0	-1.525591016E-1	-9.275715351E-1	1.420219894E-2
1.591637186E0	-1.134648770E-1	-5.424323678E-1	3.313846514E-2
1.600040207E0	-1.211004704E-1	-1.336228400E-1	1.572931744E-2
1.608443228E0	-1.608055383E-1	1.826433241E-1	-1.603474095E-2
1.616846249E0	-2.092151791E-1	3.313846290E-1	-8.857285231E-2
1.625249270E0	-2.284568697E-1	3.278722763E-1	-1.695101112E-1
1.633652291E0	-2.324273884E-1	2.634278834E-1	-1.614163816E-1
1.642055311E0	-2.321219593E-1	1.600419879E-1	-6.704048812E-2
1.650458332E0	-2.415900975E-1	2.764083818E-2	4.550812021E-2
1.658861353E0	-2.550287247E-1	-1.154501289E-1	1.249182671E-1
1.667264374E0	-2.553341687E-1	-2.394521236E-1	1.678302884E-1
1.675667395E0	-2.402156889E-1	-3.384093940E-1	1.860029846E-1
1.684070416E0	-2.247917950E-1	-3.979669809E-1	1.872246861E-1
1.692473436E0	-2.247917950E-1	-4.210264683E-1	1.934858710E-1
1.700876457E0	-2.241809368E-1	-4.268295169E-1	2.012741715E-1
1.709279478E0	-2.324273884E-1	-3.727695346E-1	2.125748396E-1
1.717682499E0	-2.603736520E-1	-2.444916219E-1	2.452551723E-1
1.726085520E0	-2.895416021E-1	-6.291726977E-2	2.510582209E-1
1.734488541E0	-2.948864996E-1	1.203369126E-1	2.231119573E-1
1.742891561E0	-2.800734639E-1	2.678565085E-1	1.710372269E-1
1.751294582E0	-2.634278834E-1	3.310792148E-1	1.440072358E-1
1.759697603E0	-2.484621257E-1	3.370349705E-1	1.411057115E-1
1.768100624E0	-2.483094037E-1	3.060344756E-1	1.469087601E-1
1.776503645E0	-2.486148328E-1	2.733541429E-1	1.635543555E-1
1.784906666E0	-2.522799075E-1	2.119639963E-1	2.012741715E-1
1.793309686E0	-2.709107697E-1	1.082726792E-1	2.405211031E-1
1.801712707E0	-2.666348219E-1	3.710897267E-2	2.533488870E-1
1.810115728E0	-2.440334857E-1	6.047387794E-2	2.192941606E-1
1.818518749E0	-2.295258641E-1	1.470614821E-1	1.565296054E-1
1.826921770E0	-2.289150059E-1	2.367033064E-1	1.159082651E-1
1.835324791E0	-2.223484069E-1	2.922904193E-1	1.085781008E-1
1.843727811E0	-2.006633282E-1	3.035911024E-1	1.110214889E-1
1.852130832E0	-1.937913001E-1	2.754921019E-1	1.433963925E-1
1.860533853E0	-2.084516287E-1	2.510582209E-1	1.832541823E-1
1.868936874E0	-2.168507725E-1	2.759502530E-1	1.968455315E-1
1.877339895E0	-1.956238300E-1	3.309265077E-1	1.927223057E-1
1.885742916E0	-1.714953631E-1	4.014793634E-1	1.936385781E-1
1.894145936E0	-1.860029846E-1	4.074351192E-1	1.997470558E-1
1.902548957E0	-2.053973973E-1	4.454603493E-1	2.136438340E-1
1.910951978E0	-1.919587553E-1	4.578300118E-1	2.264716178E-1
1.919354999E0	-1.901262105E-1	4.143071473E-1	2.273878902E-1
1.927758020E0	-2.047865391E-1	3.662029207E-1	2.312056869E-1
1.936161041E0	-2.212794125E-1	4.109475017E-1	2.148655206E-1
1.944564061E0	-2.131856978E-1	4.532486796E-1	1.927223057E-1
1.952967082E0	-1.881409585E-1	4.263713956E-1	1.953184158E-1
1.961370103E0	-1.916533262E-1	3.732276857E-1	1.950129867E-1
1.969773124E0	-1.834068894E-1	3.521534503E-1	1.979145110E-1
1.978176145E0	-1.670667231E-1	3.588727713E-1	2.079934925E-1
1.986579166E0	-1.597365588E-1	3.871244490E-1	1.994416267E-1
1.994982186E0	-1.583621502E-1	3.608580232E-1	1.475196183E-1
2.003385207E0	-1.247655526E-1	3.852919042E-1	1.218640283E-1
2.011788228E0	-1.130067408E-1	3.103103936E-1	1.716480851E-1
2.020191249E0	-1.137702987E-1	2.150182426E-1	1.889045089E-1
2.028594270E0	-1.053711548E-1	1.191152185E-1	1.966928244E-1
2.036997291E0	-9.941539168E-2	8.154810965E-2	1.966928244E-1
2.045400311E0	-9.284878522E-2	2.290677279E-2	2.101314515E-1
2.053803332E0	-7.711946964E-2	-1.649287529E-2	2.139492482E-1
2.062206353E0	-5.604523420E-2	-2.657185495E-2	2.113531530E-1
2.070609374E0	-4.153761268E-2	-3.161134571E-2	2.090624720E-1
2.079012395E0	-2.825168520E-2	-4.260659590E-2	1.991362125E-1
2.087415416E0	-9.009997360E-3	-3.771981969E-2	1.834068894E-1
2.095818436E0	9.620844387E-3	-2.137965336E-2	1.556133330E-1
2.104221457E0	2.046338283E-2	-1.801999472E-2	1.294996142E-1
2.112624478E0	3.329117596E-2	-4.382828996E-2	1.267508119E-1
2.121027499E0	4.306473210E-2	-8.215895295E-2	1.247655526E-1
2.129430520E0	4.718795046E-2	-1.174353883E-1	1.119377613E-1
2.137833541E0	6.032116711E-2	-1.296523362E-1	9.300149232E-2
2.146236561E0	6.978929788E-2	-1.186570823E-1	7.452336699E-2
2.154639582E0	7.620319724E-2	-9.849911928E-2	6.215370819E-2
2.163042603E0	8.108997345E-2	-9.788827598E-2	5.940489471E-2
2.171445624E0	8.582404256E-2	-1.101052165E-1	6.704048812E-2
2.179848645E0	8.582404256E-2	-1.113269106E-1	7.696675509E-2
2.188251666E0	9.407047927E-2	-1.023169160E-1	7.528692484E-2
2.196654686E0	1.015533581E-1	-9.972081333E-2	7.925742865E-2
2.205057707E0	1.096470803E-1	-1.195733473E-1	8.292251825E-2
2.213460728E0	1.218640283E-1	-1.467560530E-1	7.269082218E-2
2.221863749E0	1.354553849E-1	-1.594311297E-1	6.245913357E-2
2.230266770E0	1.501157135E-1	-1.606528312E-1	5.848862603E-2
2.238669791E0	1.621799469E-1	-1.585148573E-1	5.176930502E-2
2.247072811E0	1.667613089E-1	-1.617218107E-1	4.275930673E-2
2.255475832E0	1.774511337E-1	-1.667613089E-1	3.771981969E-2
2.263878853E0	1.849340051E-1	-1.809635013E-1	4.214845970E-2
2.272281874E0	1.876828223E-1	-1.840177327E-1	4.092676565E-2
2.280684895E0	1.898207814E-1	-1.632489264E-1	3.512371704E-2
2.289087916E0	2.024958730E-1	-1.397313178E-1	2.993151546E-2
2.297490936E0	2.137965411E-1	-1.333174109E-1	2.305948362E-2
2.305893957E0	2.241809368E-1	-1.349972486E-1	9.620844387E-3
2.314296978E0	2.379250079E-1	-1.302631795E-1	-3.817795310E-3
2.322699999E0	2.495311052E-1	-1.133121699E-1	-1.435491070E-2
2.331103020E0	2.542651594E-1	-9.254335612E-2	-3.237490356E-2
2.339506041E0	2.553341687E-1	-6.062658876E-2	-5.085303262E-2
2.347909061E0	2.542651594E-1	-2.183778957E-2	-6.368082762E-2
2.356312082E0	2.499892414E-1	4.581354558E-3	-7.238540053E-2
2.364715103E0	2.454078794E-1	1.130067464E-2	-7.452336699E-2
2.373118124E0	2.354816198E-1	1.908897609E-2	-7.009471953E-2
2.381521145E0	2.281514555E-1	2.962609194E-2	-6.856760383E-2
2.389924166E0	2.309002578E-1	3.848337755E-2	-9.223793447E-2
2.398327186E0	2.281514555E-1	1.313321572E-2	-1.212531775E-1
2.406730207E0	2.128802687E-1	-4.169032723E-2	-1.281252056E-1
2.415133228E0	2.046338320E-1	-9.513945878E-2	-1.229330078E-1
2.423536249E0	1.959292591E-1	-1.504211426E-1	-1.079672500E-1
2.431939270E0	1.823379099E-1	-2.038702667E-1	-7.849387079E-2
2.440342291E0	1.673721522E-1	-2.142546773E-1	-3.787253052E-2
2.448745311E0	1.568350345E-1	-1.965401024E-1	-1.679830020E-3
2.457148332E0	1.516428292E-1	-1.798945218E-1	1.939439960E-2
2.465551353E0	1.495048702E-1	-1.711899489E-1	1.908897609E-2
2.473954374E0	1.498102844E-1	-1.537808031E-1	1.267508045E-2
2.482357395E0	1.491994411E-1	-1.409530044E-1	1.710372418E-2
2.490760416E0	1.441599578E-1	-1.349972486E-1	2.382304333E-2
2.499163436E0	1.420219839E-1	-1.403421611E-1	3.497100621E-2
2.507566457E0	1.423274130E-1	-1.447708011E-1	4.917320609E-2
2.515969478E0	1.414111406E-1	-1.354553849E-1	6.597150117E-2
2.524372499E0	1.337755471E-1	-1.035386100E-1	8.047912270E-2
2.532775520E0	1.342336833E-1	-7.330167294E-2	8.231166750E-2
2.541178541E0	1.368297935E-1	-7.696675509E-2	6.826218218E-2
2.549581561E0	1.363716573E-1	-1.157555580E-1	5.528167635E-2
2.557984582E0	1.337755471E-1	-1.519482583E-1	6.016845629E-2
2.566387603E0	1.330119967E-1	-1.583621502E-1	7.391251624E-2
2.574790624E0	1.325538605E-1	-1.585148573E-1	9.498675168E-2
2.583193645E0	1.278197914E-1	-1.513374150E-1	1.148392856E-1
2.591596666E0	1.270562261E-1	-1.265980899E-1	1.316375881E-1
2.599999686E0	1.337755471E-1	-9.819369763E-2	1.464506239E-1
2.608402707E0	1.539335102E-1	-6.245913357E-2	1.582094431E-1
2.616805728E0	1.806580722E-1	-2.443389036E-2	1.745496094E-1
2.625208749E0	1.673721522E-1	-2.626643144E-2	1.881409585E-1
2.633611770E0	1.401894391E-1	-4.550812021E-2	1.814216375E-1
2.642014791E0	1.226275861E-1	-5.161659420E-2	1.785201132E-1
2.650417811E0	1.218640283E-1	-1.832541777E-3	1.743968874E-1
2.658820832E0	1.175880954E-1	4.138490185E-2	1.588202864E-1
2.667223853E0	1.056765765E-1	4.947862774E-2	1.421747059E-1
2.675626874E0	9.559759498E-2	3.237490356E-2	1.403421611E-1
2.684029895E0	9.804098308E-2	2.183778957E-2	1.588202864E-1
2.692432916E0	9.513945878E-2	7.635590620E-3	1.881409585E-1
2.700835936E0	9.071081877E-2	6.108472589E-4	2.078407854E-1
2.709238957E0	8.002099395E-2	3.359660041E-3	2.110477239E-1
2.717641978E0	7.711946964E-2	2.183778957E-2	2.053973973E-1
2.726044999E0	7.574506104E-2	5.222744122E-2	1.960819662E-1
2.734448020E0	6.887302548E-2	8.551861346E-2	1.890572309E-1
2.742851041E0	6.322269142E-2	1.058292910E-1	1.866138428E-1
2.751254061E0	5.879404768E-2	1.062874198E-1	1.837123185E-1
2.759657082E0	6.016845629E-2	7.895200700E-2	1.779092699E-1
2.768060103E0	5.741964281E-2	3.161134571E-2	1.840177327E-1
2.776463124E0	5.467082933E-2	-4.275931045E-3	2.023431510E-1
2.784866145E0	4.993676394E-2	-1.191152167E-2	2.176143378E-1
2.793269166E0	4.963133857E-2	-2.137965523E-3	2.290677279E-1
2.801672186E0	4.718795046E-2	2.336490713E-2	2.415900975E-1
2.810075207E0	4.657710344E-2	6.077930331E-2	2.484621257E-1
2.818478228E0	4.840964451E-2	1.007898003E-1	2.599155009E-1
2.826881249E0	6.597150117E-2	1.536280811E-1	2.728960216E-1
2.835284270E0	7.559234649E-2	1.762294322E-1	2.872509360E-1
2.843687291E0	6.872031838E-2	1.612636745E-1	2.898470163E-1
2.852090311E0	5.848862603E-2	1.168245375E-1	2.843494117E-1
2.860493332E0	4.795150831E-2	7.834116369E-2	2.849602401E-1
2.868896353E0	4.963133857E-2	7.513421029E-2	2.864873707E-1
2.877299374E0	4.657710344E-2	8.689302206E-2	2.852656841E-1
2.885702395E0	4.581354558E-2	9.162709117E-2	2.840439677E-1
2.894105416E0	5.405998230E-2	8.429691941E-2	2.796153426E-1
2.902508436E0	5.161659420E-2	8.964183182E-2	2.785463631E-1
2.910911457E0	3.665083647E-2	9.498675168E-2	2.786990702E-1
2.919314478E0	3.359659761E-2	8.674030751E-2	2.683146596E-1
2.927717499E0	3.237490356E-2	6.704048812E-2	2.435753495E-1
2.936120520E0	3.298575059E-2	5.115845799E-2	2.145601064E-1
2.944523541E0	2.993151546E-2	5.008947477E-2	1.872246861E-1
2.952926561E0	2.657185495E-2	6.536065787E-2	1.711899489E-1
2.961329582E0	2.504473738E-2	9.009996802E-2	1.594311297E-1
2.969732603E0	2.886253223E-2	1.075091213E-1	1.505738497E-1
2.978135624E0	4.367557913E-2	9.681928903E-2	1.360662282E-1
2.986538645E0	4.627167806E-2	7.437065244E-2	1.094943732E-1
2.994941666E0	5.024218559E-2	5.344913527E-2	8.322793990E-2
3.003344686E0	5.665608495E-2	1.007897966E-2	6.581879407E-2
3.011747707E0	5.008947477E-2	-3.756710514E-2	3.588727489E-2
3.020150728E0	4.382828996E-2	-7.559234649E-2	-2.748812549E-3
3.028553749E0	4.413371533E-2	-9.300149232E-2	-3.298575059E-2
3.036956770E0	4.535540938E-2	-9.086353332E-2	-5.070032179E-2
3.045359791E0	4.566083103E-2	-9.376505762E-2	-6.536065787E-2
3.053762811E0	4.046862945E-2	-9.620844573E-2	-8.383878320E-2
3.062165832E0	4.001049697E-2	-9.437590092E-2	-1.029277667E-1
3.070568853E0	4.031591862E-2	-9.391776472E-2	-1.302631795E-1
3.078971874E0	3.741439432E-2	-1.119377613E-1	-1.565296054E-1
3.087374895E0	3.619270027E-2	-1.333174109E-1	-1.757712960E-1
3.095777916E0	4.001049697E-2	-1.577513069E-1	-1.881409585E-1
3.104180936E0	4.199574888E-2	-1.789782494E-1	-2.087570578E-1
3.112583957E0	4.718795046E-2	-1.959292591E-1	-2.319692522E-1
3.120986978E0	5.222744122E-2	-2.162399292E-1	-2.473931462E-1
3.129389999E0	5.589252338E-2	-2.330382317E-1	-2.716743052E-1
3.137793020E0	5.451811850E-2	-2.603736520E-1	-2.958027720E-1
3.146196041E0	5.405998230E-2	-2.806843221E-1	-3.223746419E-1
3.154599061E0	5.451811850E-2	-2.765611112E-1	-3.449759781E-1
3.163002082E0	5.314370990E-2	-2.498365343E-1	-3.574983478E-1
3.171405103E0	5.115845799E-2	-2.092151791E-1	-3.700207174E-1
3.179808124E0	4.902049154E-2	-1.708845198E-1	-3.869717419E-1
3.188211145E0	4.672981426E-2	-1.493521482E-1	-4.059080184E-1
3.196614166E0	4.779879749E-2	-1.437018216E-1	-4.193466306E-1
3.205017186E0	4.749337584E-2	-1.462979168E-1	-4.285093546E-1
3.213420207E0	4.260659590E-2	-1.488940120E-1	-4.298837483E-1
3.221823228E0	3.206948191E-2	-1.522536725E-1	-4.297310412E-1
3.230226249E0	2.336490713E-2	-1.458397806E-1	-4.278984964E-1
3.238629270E0	2.199050039E-2	-1.430909634E-1	-4.263713956E-1
3.247032291E0	2.107422985E-2	-1.464506239E-1	-4.196520746E-1
3.255435311E0	1.588202827E-2	-1.553079188E-1	-4.005630910E-1
3.263838332E0	1.221694518E-2	-1.769929975E-1	-3.645231128E-1
3.272241353E0	1.359135192E-2	-1.982199401E-1	-3.286358118E-1
3.280644374E0	1.542389300E-2	-1.910424829E-1	-3.043546379E-1
3.289047395E0	3.054236248E-2	-1.688992679E-1	-2.722851634E-1
3.297450416E0	4.611896724E-2	-1.808107942E-1	-2.386885732E-1
3.305853436E0	6.673506647E-2	-2.278460264E-1	-2.283041626E-1
3.314256457E0	7.895200700E-2	-3.329117596E-1	-2.125748396E-1
3.322659478E0	5.558710173E-2	-4.031592011E-1	-1.762294322E-1
3.331062499E0	2.932066843E-2	-4.091149569E-1	-1.288887709E-1
3.339465520E0	1.939439960E-2	-3.570402265E-1	-1.030804738E-1
3.347868541E0	1.557660475E-2	-2.394521236E-1	-1.195733473E-1
3.356271561E0	1.328592747E-2	-9.956810623E-2	-1.339282542E-1
3.364674582E0	4.428642802E-3	2.596100792E-2	-1.215586066E-1
3.373077603E0	1.527118147E-4	1.101052165E-1	-9.956810623E-2
3.381480624E0	3.206948051E-3	1.383569092E-1	-7.635590434E-2
3.389883645E0	6.108472589E-3	1.102579311E-1	-5.024218559E-2
3.398286666E0	1.313321572E-2	6.749862432E-2	-2.397575416E-2
3.406689686E0	1.084253844E-2	3.191677108E-2	6.872031838E-3
3.415092707E0	8.093725890E-3	-1.801999472E-2	4.107947648E-2
3.423495728E0	1.114796288E-2	-6.352811307E-2	7.070557028E-2
3.431898749E0	7.177455351E-3	-1.046075895E-1	9.452861547E-2
3.440301770E0	-1.527118147E-4	-1.449235082E-1	1.191152185E-1
3.448704791E0	-5.039489828E-3	-1.569877416E-1	1.324011385E-1
3.457107811E0	-9.315420873E-3	-1.325538605E-1	1.287360638E-1
3.465510832E0	-1.481304597E-2	-9.300149232E-2	1.191152185E-1
3.473913853E0	-1.618745178E-2	-5.635065958E-2	1.148392856E-1
3.482316874E0	-1.389677543E-2	-2.962609194E-2	1.157555580E-1
3.490719895E0	-1.298050396E-2	-1.710372418E-2	1.189625040E-1
3.499122916E0	-1.084253844E-2	-6.566607859E-3	1.270562261E-1
3.507525936E0	-6.108472589E-3	-2.901524538E-3	1.322484314E-1
3.515928957E0	-3.206948051E-3	-2.596100792E-3	1.353026628E-1
3.524331978E0	-1.527118147E-4	1.298050396E-2	1.374406368E-1
3.532734999E0	2.290677279E-3	3.665083647E-2	1.378987730E-1
3.541138020E0	2.596100792E-3	6.352811307E-2	1.343863904E-1
3.549541041E0	6.719320081E-3	8.567132801E-2	1.261399537E-1
3.557944061E0	8.399149403E-3	1.015533581E-1	1.194206402E-1
3.566347082E0	9.773556143E-3	1.087308154E-1	1.114796251E-1
3.574750103E0	1.175880991E-2	1.123958975E-1	1.087308154E-1
3.583153124E0	8.704573847E-3	1.122431830E-1	1.094943732E-1
3.591556145E0	1.053711493E-2	1.111742035E-1	1.131594554E-1
3.599959166E0	1.114796288E-2	1.027750522E-1	1.163664013E-1
3.608362186E0	2.244863659E-2	9.407047927E-2	1.284306347E-1
3.616765207E0	3.833066672E-2	9.009996802E-2	1.378987730E-1
3.625168228E0	3.466558084E-2	6.566607952E-2	1.530172378E-1
3.633571249E0	3.191677108E-2	4.077405483E-2	1.634016484E-1
3.641974270E0	4.260659590E-2	4.856235534E-2	1.446180940E-1
3.650377291E0	6.154286116E-2	9.544488788E-2	8.872556686E-2
3.658780311E0	6.306997687E-2	1.085781008E-1	7.330167294E-2
3.667183332E0	5.054761097E-2	1.273616552E-1	1.062874198E-1
3.675586353E0	4.230117425E-2	1.881409585E-1	1.366770715E-1
3.683989374E0	3.344388679E-2	2.382304370E-1	1.592784226E-1
3.692392395E0	2.641914412E-2	2.736595869E-1	1.713426560E-1
3.700795416E0	2.183778957E-2	2.901524603E-1	1.797417998E-1
3.709198436E0	2.092151903E-2	2.951919436E-1	1.968455315E-1
3.717601457E0	2.397575416E-2	2.927485406E-1	2.053973973E-1
3.726004478E0	2.504473738E-2	2.843494117E-1	1.963873953E-1
3.734407499E0	2.015795931E-2	2.447970361E-1	2.154763639E-1
3.742810520E0	7.482878864E-3	2.255553454E-1	2.435753495E-1
3.751213541E0	1.832541777E-3	2.232646793E-1	2.554868758E-1
3.759616561E0	-5.803049076E-3	1.861557066E-1	2.635805905E-1
3.768019582E0	-1.603474095E-2	1.392731816E-1	3.038965166E-1
3.776422603E0	-2.672456764E-2	1.240019947E-1	3.558185399E-1
3.784825624E0	-3.466558084E-2	1.345391124E-1	4.138490260E-1
3.793228645E0	-4.489727318E-2	1.424801201E-1	4.862344265E-1
3.801631666E0	-5.207473040E-2	1.692046970E-1	5.563291311E-1
3.810034686E0	-6.474980712E-2	2.225011140E-1	6.131379604E-1
3.818437707E0	-8.139539510E-2	2.783936262E-1	6.713211536E-1
3.826840728E0	-1.038440317E-1	3.211529553E-1	7.340856791E-1
3.835243749E0	-1.146865711E-1	3.390202224E-1	7.878402472E-1
3.843646770E0	-1.075091213E-1	3.355078697E-1	8.313631415E-1
3.852049791E0	-1.181989461E-1	3.794888556E-1	8.754968047E-1
3.860452811E0	-1.574458778E-1	4.772244096E-1	8.970292211E-1
3.868855832E0	-1.747023165E-1	5.421269536E-1	8.826742768E-1
3.877258853E0	-1.553079188E-1	6.215370893E-1	8.347227573E-1
3.885661874E0	-1.649287641E-1	8.060129285E-1	6.911736727E-1
3.894064895E0	-1.875301152E-1	9.066500664E-1	5.448757410E-1
3.902467916E0	-1.925695986E-1	9.150491953E-1	4.043808877E-1
3.910870936E0	-1.672194302E-1	8.376243114E-1	2.742704153E-1
3.919273957E0	-1.331647038E-1	7.262973785E-1	1.853921413E-1
3.927676978E0	-9.559759498E-2	6.629219651E-1	9.712471068E-2
3.936079999E0	-5.940489471E-2	5.606050491E-1	-1.740914769E-2
3.944483020E0	-2.779355086E-2	4.547757804E-1	-1.640124917E-1
3.952886041E0	1.466033421E-2	3.678827584E-1	-3.112266660E-1
3.961289061E0	5.787777901E-2	2.845021188E-1	-4.518742561E-1
3.969692082E0	9.345962852E-2	2.014268786E-1	-5.880932212E-1
3.978095103E0	1.249182671E-1	1.214058921E-1	-6.989619732E-1
3.986498124E0	1.472141892E-1	6.398624927E-2	-7.982246280E-1
3.994901145E0	1.629435122E-1	2.428117767E-2	-8.993198872E-1
4.003304166E0	1.684411317E-1	-1.634016447E-2	-1.005607247E0
4.011707186E0	1.682884246E-1	-3.420744836E-2	-1.096928954E0
4.020110207E0	1.601946950E-1	-3.222219273E-2	-1.177560806E0
4.028513228E0	1.527118087E-1	-3.756710514E-2	-1.249335408E0
4.036916249E0	1.501157135E-1	-4.489727318E-2	-1.303700805E0
4.045319270E0	1.432436854E-1	-3.573456407E-2	-1.345543742E0
4.053722291E0	1.320957243E-1	-1.695101149E-2	-1.383569002E0
4.062125311E0	1.163664013E-1	1.466033421E-2	-1.419456363E0
4.070528332E0	1.004843712E-1	5.070032179E-2	-1.451983929E0
4.078931353E0	8.093725890E-2	8.872556686E-2	-1.471989155E0
4.087334374E0	5.772506446E-2	1.278197914E-1	-1.480082870E0
4.095737395E0	3.481829539E-2	1.597365588E-1	-1.474279881E0
4.104140416E0	1.695101149E-2	1.412584335E-1	-1.461452127E0
4.112543436E0	8.246437646E-3	7.650861889E-2	-1.445875406E0
4.120946457E0	3.665083554E-3	-1.557660475E-2	-1.420525312E0
4.129349478E0	-8.551862091E-3	-1.180462316E-1	-1.380209327E0
4.137752499E0	-2.183778957E-2	-2.367033064E-1	-1.320651770E0
4.146155520E0	-3.695625812E-2	-3.755183518E-1	-1.245212078E0
4.154558541E0	-4.902049154E-2	-5.115845799E-1	-1.159388065E0
4.162961561E0	-6.826218218E-2	-6.093201637E-1	-1.068219185E0
4.171364582E0	-9.009996802E-2	-6.771242023E-1	-9.802571535E-1
4.179767603E0	-1.015533581E-1	-7.415685654E-1	-8.968765140E-1
4.188170624E0	-1.148392856E-1	-7.681404352E-1	-8.168554902E-1
4.196573645E0	-1.177408099E-1	-7.583668828E-1	-7.082774043E-1
4.204976666E0	-1.035386100E-1	-6.992673874E-1	-5.774033666E-1
4.213379686E0	-1.020114943E-1	-5.604523420E-1	-4.427115619E-1
4.221782707E0	-1.226275861E-1	-3.799470067E-1	-3.319954872E-1
4.230185728E0	-1.423274130E-1	-1.945548505E-1	-2.392994165E-1
4.238588749E0	-1.669140160E-1	-1.557660475E-2	-1.669140160E-1
4.246991770E0	-2.009687424E-1	1.024696305E-1	-1.156028435E-1
4.255394791E0	-2.258607745E-1	1.449235082E-1	-3.023693897E-2
4.263797811E0	-2.383831441E-1	1.502684206E-1	1.114796251E-1
4.272200832E0	-2.475458533E-1	1.382041872E-1	2.834331393E-1
4.280603853E0	-2.788517773E-1	1.017060652E-1	4.953971207E-1
4.289006874E0	-3.271087110E-1	8.811471611E-2	7.505785823E-1
4.297409895E0	-3.286358118E-1	1.516428292E-1	1.007897973E0
4.305812916E0	-3.139754832E-1	3.852919042E-1	1.054016948E0
4.314215936E0	-3.451287150E-1	6.952968836E-1	8.215895891E-1
4.322618957E0	-3.794888556E-1	8.606837988E-1	5.033381581E-1
4.331021978E0	-3.811686933E-1	8.382351398E-1	2.605263591E-1
4.339424999E0	-3.260397315E-1	6.597150564E-1	2.762556672E-1
4.347828020E0	-2.359397560E-1	5.386145711E-1	5.005893111E-1
4.356231041E0	-1.919587553E-1	4.642439187E-1	7.791357040E-1
4.364634061E0	-2.629697323E-1	2.790044844E-1	9.440644383E-1
4.373037082E0	-3.309265077E-1	8.246438205E-2	9.185615778E-1
4.381440103E0	-3.000787199E-1	-1.817270555E-2	7.695148587E-1
4.389843124E0	-2.322746664E-1	5.207473040E-2	5.364766121E-1
4.398246145E0	-2.250972092E-1	2.428117841E-1	2.715215981E-1
4.406649166E0	-2.733541429E-1	3.884988427E-1	9.743013978E-2
4.415052186E0	-3.193204105E-1	4.564556181E-1	4.230117425E-2
4.423455207E0	-3.268032968E-1	4.564556181E-1	3.603998944E-2
4.431858228E0	-3.365768492E-1	4.288147688E-1	1.863084175E-2
4.440261249E0	-3.399364948E-1	3.776563108E-1	-6.108472589E-3
4.448664270E0	-3.078670204E-1	3.043546379E-1	-1.206423342E-2
4.457067291E0	-2.698417902E-1	1.934858710E-1	8.857285604E-3
4.465470311E0	-2.794626355E-1	7.818844914E-2	4.535540938E-2
4.473873332E0	-2.840439677E-1	5.268557742E-2	7.177454978E-2
4.482276353E0	-2.495311052E-1	9.116895497E-2	5.848862603E-2
4.490679374E0	-2.203631550E-1	1.672194302E-1	1.420219894E-2
4.499082395E0	-1.889045089E-1	2.084516287E-1	-2.489202656E-2
4.507485416E0	-1.446180940E-1	1.826433241E-1	-2.947338112E-2
4.515888436E0	-1.099525094E-1	1.568350345E-1	-2.596100792E-3
4.524291457E0	-7.421794534E-2	1.175880954E-1	1.023169141E-2
4.532694478E0	-5.146388337E-2	9.391776472E-2	2.870982140E-2
4.541097499E0	-5.238015205E-2	8.185353130E-2	7.421794534E-2
4.549500520E0	-4.825693369E-2	6.994201243E-2	9.040539712E-2
4.557903541E0	-5.497625470E-2	2.519745007E-2	2.932066843E-2
4.566306561E0	-5.726693198E-2	9.788827598E-2	-1.099525020E-2
4.574709582E0	-6.184828654E-2	1.661504507E-1	4.474456236E-2
4.583112603E0	-5.650337040E-2	1.264453828E-1	2.977880463E-2
4.591515624E0	-6.001574174E-2	5.864133686E-2	3.970507160E-2
4.599918645E0	-4.871506989E-2	4.978405312E-2	7.956285775E-2
4.608321666E0	-2.290677279E-2	4.031591862E-2	1.224748790E-1
4.616724686E0	-1.282779220E-2	3.161134571E-2	1.452289373E-1
4.625127707E0	-4.581354558E-3	-3.359660041E-3	1.763821393E-1
4.633530728E0	-1.068982761E-3	-5.238015205E-2	2.115058601E-1
4.641933749E0	-4.428642802E-3	-3.649812192E-2	2.082989216E-1
4.650336770E0	-1.374406274E-3	-1.160609815E-2	2.002051920E-1
4.658739791E0	4.428642802E-3	-3.130592033E-2	2.202104330E-1
4.667142811E0	-3.359660041E-3	-3.802524135E-2	2.631224692E-1
4.675545832E0	-1.679830020E-3	-3.802524135E-2	3.100049794E-1
4.683948853E0	1.068982668E-2	-7.543963939E-2	3.561239541E-1
4.692351874E0	2.137965336E-2	-1.443126649E-1	4.156815708E-1
4.700754895E0	2.733541466E-2	-1.966928244E-1	4.822639227E-1
4.709157916E0	3.542914242E-2	-2.359397560E-1	5.627430081E-1
4.717560936E0	4.291202128E-2	-2.912214398E-1	6.549809575E-1
4.725963957E0	4.596625641E-2	-3.594835997E-1	7.449282408E-1
4.734366978E0	4.520269856E-2	-3.932329118E-1	8.160919547E-1
4.742769999E0	4.337015375E-2	-4.187358022E-1	8.762603998E-1
4.751173020E0	4.153761268E-2	-4.453076422E-1	9.393303990E-1
4.759576041E0	3.771981969E-2	-4.753918648E-1	1.017518878E0
4.767979061E0	4.367557913E-2	-5.164713860E-1	1.099830508E0
4.776382082E0	4.443913698E-2	-5.485408306E-1	1.150378108E0
4.784785103E0	3.512371704E-2	-5.964923501E-1	1.198329568E0
4.793188124E0	2.825168520E-2	-5.940489769E-1	1.255901933E0
4.801591145E0	2.580829710E-2	-5.196782947E-1	1.288735032E0
4.809994166E0	2.596100792E-2	-4.335488379E-1	1.304922462E0
4.818397186E0	4.199574888E-2	-3.691044450E-1	1.314695954E0
4.826800207E0	5.726693198E-2	-3.110739589E-1	1.318513751E0
4.835203228E0	7.345438004E-2	-3.087832928E-1	1.319582820E0
4.843606249E0	9.071081877E-2	-3.845283389E-1	1.304006219E0
4.852009270E0	6.505523622E-2	-5.717530251E-1	1.345391035E0
4.860412291E0	2.702999115E-2	-6.439857483E-1	1.405864954E0
4.868815311E0	1.679830020E-3	-5.824428797E-1	1.474738002E0
4.877218332E0	-2.657185495E-2	-5.363239050E-1	1.542694807E0
4.885621353E0	-1.618745178E-2	-5.633538961E-1	1.606222868E0
4.894024374E0	-1.068982761E-3	-5.413633585E-1	1.593853235E0
4.902427395E0	4.886778072E-3	-5.273138881E-1	1.627144337E0
4.910830416E0	9.926267900E-3	-5.054761171E-1	1.769929886E0
4.919233436E0	3.008422814E-2	-4.445441067E-1	1.892557502E0
4.927636457E0	4.810422286E-2	-3.535278440E-1	1.942494273E0
4.936039478E0	7.879929990E-2	-2.658712566E-1	1.979603291E0
4.944442499E0	1.270562261E-1	-9.910997003E-2	1.976090908E0
4.952845520E0	1.771457046E-1	9.590301663E-2	1.962957621E0
4.961248541E0	1.473668963E-1	4.089622498E-1	1.911035657E0
4.969651561E0	9.086353332E-2	7.446228266E-1	1.756949425E0
4.978054582E0	1.068982705E-1	1.025001645E0	1.517955422E0
4.986457603E0	1.353026628E-1	1.276518106E0	1.158777237E0
4.994860624E0	1.293469071E-1	1.279114127E0	8.336538076E-1
5.003263645E0	1.200314835E-1	1.107771516E0	6.259657145E-1
5.011666666E0	1.328592747E-1	8.507575393E-1	5.465555787E-1
5.020069686E0	1.473668963E-1	6.464291215E-1	5.230379701E-1
5.028472707E0	1.397313178E-1	5.454866290E-1	4.077405334E-1
5.036875728E0	1.359135211E-1	4.030064642E-1	2.053973973E-1
5.045278749E0	1.488940120E-1	3.316900730E-1	-1.024696305E-1
5.053681770E0	1.652341783E-1	2.886253297E-1	-4.509579837E-1
5.062084791E0	1.858502775E-1	2.365505993E-1	-7.640172243E-1
5.070487811E0	2.173089087E-1	1.447708011E-1	-1.052795291E0
5.078890832E0	2.568612695E-1	-4.703523964E-2	-1.293927193E0
5.087293853E0	2.906105816E-1	-2.432699203E-1	-1.476112366E0
5.095696874E0	3.165715933E-1	-3.943018913E-1	-1.616454601E0
5.104099895E0	3.368822634E-1	-4.911212027E-1	-1.756491303E0
5.112502916E0	3.512371778E-1	-5.402944088E-1	-1.920351028E0
5.120905936E0	3.530697227E-1	-5.613686442E-1	-2.108339310E0
5.129308957E0	3.494046330E-1	-5.604523420E-1	-2.289913654E0
5.137711978E0	3.396310806E-1	-5.412106514E-1	-2.459576607E0
5.146114999E0	3.252761662E-1	-5.183038712E-1	-2.620382071E0
5.154518020E0	3.045073450E-1	-5.010474920E-1	-2.745453119E0
5.162921041E0	2.773246467E-1	-4.538595080E-1	-2.842577696E0
5.171324061E0	2.457133085E-1	-3.668137789E-1	-2.918169975E0
5.179727082E0	2.145601064E-1	-2.713688910E-1	-2.972077370E0
5.188130103E0	1.856975704E-1	-1.974563748E-1	-3.033162117E0
5.196533124E0	1.566823274E-1	-1.340809762E-1	-3.091345310E0
5.204936145E0	1.272089481E-1	-8.047912270E-2	-3.132882833E0
5.213339166E0	1.249182671E-1	-4.703523964E-2	-3.160523653E0
5.221742186E0	1.707318127E-1	-6.536065787E-2	-3.142350912E0
5.230145207E0	2.316638231E-1	-1.521009654E-1	-3.014531136E0
5.238548228E0	2.564031482E-1	-1.290414780E-1	-2.808828354E0
5.246951249E0	2.487675399E-1	-1.313321572E-2	-2.625116110E0
5.255354270E0	2.518217862E-1	1.175880954E-1	-2.519744873E0
5.263757291E0	2.544178963E-1	1.866138428E-1	-2.458354712E0
5.272160311E0	2.353289127E-1	1.417165697E-1	-2.339545012E0
5.280563332E0	2.159345001E-1	4.581354442E-4	-2.130329847E0
5.288966353E0	1.835595965E-1	-1.936385781E-1	-1.879729748E0
5.297369374E0	1.072036922E-1	-4.114056230E-1	-1.618745208E0
5.305772395E0	1.420219894E-2	-6.198572516E-1	-1.314695954E0
5.314175416E0	-3.191677108E-2	-7.766922712E-1	-9.924740791E-1
5.322578436E0	-4.337015375E-2	-8.780929446E-1	-6.711684465E-1
5.330981457E0	-8.078455180E-2	-9.170344472E-1	-3.524588645E-1
5.339384478E0	-1.511846930E-1	-8.641961813E-1	-7.971556485E-2
5.347787499E0	-1.994416267E-1	-7.640172243E-1	1.299577504E-1
5.356190520E0	-2.131856978E-1	-6.985038519E-1	2.924431264E-1
5.364593541E0	-2.234173864E-1	-6.972821355E-1	4.225535989E-1
5.372996561E0	-2.444916219E-1	-6.345176101E-1	5.141806602E-1
5.381399582E0	-2.483094037E-1	-4.616478086E-1	6.151232123E-1
5.389802603E0	-2.060082406E-1	-2.151709497E-1	7.189671993E-1
5.398205624E0	-1.443126649E-1	3.909422457E-2	7.595885396E-1
5.406608645E0	-1.360662282E-1	2.887780368E-1	7.221741676E-1
5.415011666E0	-2.447970361E-1	5.673243999E-1	6.258130074E-1
5.423414686E0	-5.537330508E-1	9.610154629E-1	3.668137789E-1
5.431817707E0	-1.019198656E0	1.273616552E0	-2.933593988E-1
5.440220728E0	-1.232231617E0	1.158319116E0	-9.756757617E-1
5.448623749E0	-6.061131954E-1	6.581879258E-1	-5.813738704E-1
5.457026770E0	2.696890533E-1	6.951441765E-1	1.054322362E0
5.465429791E0	4.414898455E-1	6.708629727E-1	2.198439360E0
5.473832811E0	2.107422985E-2	7.223268598E-2	2.415900946E0
5.482235832E0	-4.834856093E-1	-5.887040496E-1	1.958223581E0
5.490638853E0	-6.882721782E-1	-6.707102656E-1	1.321568012E0
5.499041874E0	-6.369609833E-1	-2.394521236E-1	9.142856598E-1
5.507444895E0	-4.772244096E-1	4.434750974E-1	7.514948249E-1
5.515847916E0	-2.765611112E-1	6.899519563E-1	5.807630420E-1
5.524250936E0	-1.695101112E-1	5.825955868E-1	3.539859951E-1
5.532653957E0	-1.944021434E-1	4.534013867E-1	2.525853515E-1
5.541056978E0	-2.535016239E-1	4.414898455E-1	4.095730782E-1
5.549459999E0	-2.719797492E-1	3.202366829E-1	7.046123147E-1
5.557863020E0	-2.678565085E-1	4.077405483E-2	8.622109294E-1
5.566266041E0	-2.812951505E-1	-1.595838517E-1	8.104416132E-1
5.574669061E0	-2.806843221E-1	-5.100574717E-2	6.571189165E-1
5.583072082E0	-2.499892414E-1	1.438545287E-1	5.231906772E-1
5.591475103E0	-2.180724740E-1	2.011214644E-1	4.308000207E-1
5.599878124E0	-1.820324808E-1	1.314848661E-1	3.837648034E-1
5.608281145E0	-1.501157135E-1	5.436540768E-2	4.175141156E-1
5.616684166E0	-1.302631795E-1	-2.809897438E-2	5.158604980E-1
5.625087186E0	-1.160609797E-1	-1.000262350E-1	5.784723759E-1
5.633490207E0	-1.172826737E-1	-1.632489264E-1	5.772506595E-1
5.641893228E0	-1.056765765E-1	-1.699682474E-1	5.384618640E-1
5.650296249E0	-8.567132801E-2	-1.010952219E-1	4.544703662E-1
5.658699270E0	-8.261708915E-2	-6.368082762E-2	3.373403847E-1
5.667102291E0	-7.757759839E-2	-4.856235534E-2	2.628170252E-1
5.675505311E0	-6.337540597E-2	-2.290677279E-2	2.681619525E-1
5.683908332E0	-4.993676394E-2	-4.642439261E-2	3.115321100E-1
5.692311353E0	-4.107947648E-2	-1.207950488E-1	3.472666740E-1
5.700714374E0	-4.077405483E-2	-1.936385781E-1	3.978142738E-1
5.709117395E0	-2.809897438E-2	-2.171562016E-1	4.512633979E-1
5.717520416E0	-1.511846948E-2	-2.252499312E-1	4.816530645E-1
5.725923436E0	-1.679829881E-2	-2.472404242E-1	4.920374751E-1
5.734326457E0	-1.221694518E-2	-2.606790662E-1	5.044071078E-1
5.742729478E0	-6.413896102E-3	-2.422009408E-1	5.108210444E-1
5.751132499E0	-1.527118124E-2	-1.820324808E-1	5.042544007E-1
5.759535520E0	-8.551862091E-3	-1.290414780E-1	4.908157587E-1
5.767938541E0	4.275931045E-3	-1.265980899E-1	4.857762754E-1
5.776341561E0	4.886778072E-3	-1.472141892E-1	4.833329022E-1
5.784744582E0	1.068982668E-2	-1.623326540E-1	4.863871336E-1
5.793147603E0	2.153236605E-2	-1.647760421E-1	4.914266169E-1
5.801550624E0	2.748812735E-2	-1.721062213E-1	4.928010404E-1
5.809953645E0	3.665083647E-2	-1.824906170E-1	4.897467792E-1
5.818356666E0	5.100574717E-2	-1.759240031E-1	4.940227270E-1
5.826759686E0	6.169557199E-2	-1.589729935E-1	5.105155706E-1
5.835162707E0	6.948387623E-2	-1.901262105E-1	5.427377820E-1
5.843565728E0	7.177454978E-2	-2.544178963E-1	5.836645365E-1
5.851968749E0	6.978929788E-2	-2.935121059E-1	6.268820167E-1
5.860371770E0	6.795676053E-2	-3.009949923E-1	6.696413159E-1
5.868774791E0	6.536065787E-2	-2.750339806E-1	7.072083950E-1
5.877177811E0	6.245913357E-2	-2.600682080E-1	7.385143638E-1
5.885580832E0	5.986303091E-2	-2.522799075E-1	7.760814428E-1
5.893983853E0	5.848862603E-2	-2.367033064E-1	8.179244995E-1
5.902386874E0	4.840964451E-2	-2.359397560E-1	8.661814332E-1
5.910789895E0	3.833066672E-2	-2.506000996E-1	9.167290330E-1
5.919192916E0	2.977880463E-2	-2.872509360E-1	9.846857786E-1
5.927595936E0	1.756185852E-2	-3.333698809E-1	1.055238605E0
5.935998957E0	1.236965694E-2	-3.816268146E-1	1.131441832E0
5.944401978E0	2.748812549E-3	-4.375193417E-1	1.224901438E0
5.952804999E0	-4.428642802E-3	-4.775298536E-1	1.313779712E0
5.961208020E0	-1.114796288E-2	-5.024218559E-1	1.400520086E0
5.969611041E0	-2.367033064E-2	-4.750864506E-1	1.528492570E0
5.978014061E0	-4.871506989E-2	-3.561239541E-1	1.676164865E0
5.986417082E0	-6.474980712E-2	-7.437065244E-2	1.801388621E0
5.994820103E0	-4.703523964E-2	3.807105422E-1	1.884311080E0
6.003223124E0	2.290677279E-3	5.882459283E-1	1.964942932E0
6.011626145E0	3.115320951E-2	3.138227761E-1	1.978076100E0
6.020029166E0	6.108472589E-4	-2.060082406E-1	1.889808655E0
6.028432186E0	-8.643488586E-2	-4.883723855E-1	1.974105597E0
6.036835207E0	-1.586675793E-1	-4.763081372E-1	2.257385969E0
6.045238228E0	-1.933331639E-1	-3.709369898E-1	2.543873310E0
6.053641249E0	-1.966928244E-1	-2.670929730E-1	2.682535648E0
6.062044270E0	-1.527118087E-1	-1.721062213E-1	2.627864838E0
6.070447291E0	-7.742489129E-2	-1.188097894E-1	2.576095581E0
6.078850311E0	-3.787253052E-2	7.742489129E-2	2.560366392E0
6.087253332E0	-3.481829539E-2	4.298837483E-1	2.378028393E0
6.095656353E0	4.153761268E-2	6.145123243E-1	1.861404300E0
6.104059374E0	1.853921413E-1	5.097520351E-1	1.145033240E0
6.112462395E0	2.880144715E-1	9.330692142E-2	6.456655264E-1
6.120865416E0	3.092414141E-1	-2.495311052E-1	6.436802745E-1
6.129268436E0	2.822114229E-1	-3.258870244E-1	9.031376839E-1
6.137671457E0	2.748812735E-1	-3.471139669E-1	1.097692490E0
6.146074478E0	2.887780368E-1	-3.258870244E-1	9.721634388E-1
6.154477499E0	2.732014358E-1	-8.674030751E-2	6.004628539E-1
6.162880520E0	2.377723008E-1	3.064926267E-1	1.171299592E-1
6.171283541E0	2.018850148E-1	7.206470370E-1	-4.068242610E-1
6.179686561E0	1.739387512E-1	9.964445829E-1	-8.669449687E-1
6.188089582E0	1.594311297E-1	1.107771516E0	-1.225817680E0
6.196492603E0	1.652341783E-1	1.063943267E0	-1.488940239E0
6.204895624E0	1.905843467E-1	9.002361298E-1	-1.679524541E0
6.213298645E0	2.258607745E-1	6.846070886E-1	-1.835137844E0
6.221701666E0	2.702999115E-1	4.723376334E-1	-1.983115673E0
6.230104686E0	3.246653080E-1	2.706053257E-1	-2.150182247E0
6.238507707E0	3.706315756E-1	1.032331884E-1	-2.331909418E0
6.246910728E0	4.062134326E-1	-7.482878864E-3	-2.498059750E0
6.255313749E0	4.405735731E-1	-8.047912270E-2	-2.638401985E0
6.263716770E0	4.650074840E-1	-1.322484314E-1	-2.748201847E0
6.272119791E0	4.805840850E-1	-1.592784226E-1	-2.827153921E0
6.280522811E0	4.805840850E-1	-1.646233350E-1	-2.908396482E0
6.288925832E0	4.695888162E-1	-1.394258887E-1	-3.013920307E0
6.297328853E0	4.479037523E-1	-8.628217876E-2	-3.135937214E0
6.305731874E0	4.304946065E-1	-1.221694518E-3	-3.251387358E0
6.314134895E0	4.104893506E-1	1.194206402E-1	-3.347748518E0
6.322537916E0	3.843756318E-1	2.429644912E-1	-3.415399790E0
6.330940936E0	3.510844707E-1	3.781144619E-1	-3.445483923E0
6.339343957E0	3.202366829E-1	5.384618640E-1	-3.436321259E0
6.347746978E0	3.074088693E-1	6.777350307E-1	-3.409291267E0
6.356149999E0	3.197785318E-1	7.276718020E-1	-3.360881567E0
6.364553020E0	3.486410677E-1	6.923953891E-1	-3.297811747E0
6.372956041E0	3.718532622E-1	6.038225293E-1	-3.218401432E0
6.381359061E0	3.930802047E-1	4.698942602E-1	-3.117611647E0
6.389762082E0	4.118637741E-1	2.910687327E-1	-3.007353783E0
6.398165103E0	4.169032574E-1	6.536065787E-2	-2.879228592E0
6.406568124E0	3.978142738E-1	-1.580567211E-1	-2.726974964E0
6.414971145E0	3.629959822E-1	-3.229855001E-1	-2.531198263E0
6.423374166E0	3.168770075E-1	-4.446968138E-1	-2.320456028E0
6.431777186E0	2.600682080E-1	-5.573981404E-1	-2.108339310E0
6.440180207E0	1.991362125E-1	-6.271874309E-1	-1.896069884E0
6.448583228E0	1.285833418E-1	-5.709894896E-1	-1.774511337E0
6.456986249E0	8.567132801E-2	-5.448757410E-1	-1.701209664E0
6.465389270E0	1.020114943E-1	-5.880932212E-1	-1.564379811E0
6.473792291E0	1.206423342E-1	-6.838434935E-1	-1.322178841E0
6.482195311E0	1.378987730E-1	-8.142594099E-1	-9.561286569E-1
6.490598332E0	1.427855492E-1	-9.370396733E-1	-5.894675851E-1
6.499001353E0	1.108687744E-1	-1.006981730E0	-2.619007528E-1
6.507404374E0	9.162709117E-2	-1.003163934E0	9.376505762E-2
6.515807395E0	5.772506446E-2	-9.703308940E-1	4.077405334E-1
6.524210416E0	-2.977880463E-2	-9.445225596E-1	6.985038519E-1
6.532613436E0	-1.000262350E-1	-9.109259844E-1	1.013395548E0
6.541016457E0	-1.120904684E-1	-8.043331504E-1	1.339129925E0
6.549419478E0	-1.017060652E-1	-5.906893015E-1	1.621799469E0
6.557822499E0	-1.768402755E-1	-1.769929975E-1	1.616912723E0
6.566225520E0	-3.651339412E-1	2.968717813E-1	8.667922616E-1
6.574628541E0	-5.077667832E-1	4.191939235E-1	-7.299624681E-1
6.583031561E0	-4.016320705E-1	1.473668963E-1	-1.883242130E0
6.591434582E0	-2.356343269E-1	-1.272089481E-1	-8.050966859E-1
6.599837603E0	-1.944021434E-1	-1.721062213E-1	1.857128382E0
6.608240624E0	-1.543916464E-1	-4.190412164E-1	3.525657654E0
6.616643645E0	-1.201841980E-1	-6.910209656E-1	3.681118250E0
6.625046666E0	-2.757975459E-1	-7.528692484E-1	2.602209330E0
6.633449686E0	-5.593833923E-1	-3.426853120E-1	1.283542752E0
6.641852707E0	-6.878139973E-1	5.207473040E-1	4.427115619E-1
6.650255728E0	-5.775560737E-1	1.181378603E0	1.750077456E-1
6.658658749E0	-3.064926267E-1	1.110214949E0	1.094943732E-1
6.667061770E0	-8.185353130E-2	6.899519563E-1	1.014006436E-1
6.675464791E0	-1.023169141E-2	2.692309320E-1	3.067980409E-1
6.683867811E0	-8.475505561E-2	-4.367557913E-2	8.038749695E-1
6.692270832E0	-2.476985604E-1	-2.835858464E-1	1.278197885E0
6.700673853E0	-3.768927455E-1	-3.779617548E-1	1.431062460E0
6.709076874E0	-4.196520746E-1	-3.399364948E-1	1.287513256E0
6.717479895E0	-3.629959822E-1	-1.171299592E-1	9.359707236E-1
6.725882916E0	-2.623589039E-1	1.554606259E-1	5.306735635E-1
6.734285936E0	-1.863084137E-1	3.536805511E-1	2.292204350E-1
6.742688957E0	-1.308740228E-1	4.268295169E-1	1.377460510E-1
6.751091978E0	-7.101099193E-2	3.245126009E-1	2.573194206E-1
6.759494999E0	-3.741439432E-2	1.716480851E-1	4.643966258E-1
6.767898020E0	-3.527642787E-2	4.932591692E-2	6.545228362E-1
6.776301041E0	-4.382828996E-2	-2.565558441E-2	7.525638342E-1
6.784704061E0	-5.558710173E-2	-5.192201585E-2	7.615737915E-1
6.793107082E0	-6.077930331E-2	1.817270555E-2	6.685723066E-1
6.801510103E0	-7.207997888E-2	1.521009654E-1	5.137225389E-1
6.809913124E0	-9.223793447E-2	2.313583940E-1	4.135435820E-1
6.818316145E0	-9.743013978E-2	2.228065431E-1	3.799470067E-1
6.826719166E0	-7.498150319E-2	1.788255423E-1	3.888042867E-1
6.835122186E0	-5.146388337E-2	9.972081333E-2	4.190412164E-1
6.843525207E0	-3.985778242E-2	1.527118124E-2	4.808894992E-1
6.851928228E0	-3.100049868E-2	-4.245388508E-2	5.535803437E-1
6.860331249E0	-1.496575773E-2	-7.773031294E-2	6.137487888E-1
6.868734270E0	-1.175880991E-2	-1.020114943E-1	6.418477297E-1
6.877137291E0	-0.000000000E0	-1.142284349E-1	6.332958937E-1
6.885540311E0	1.466033421E-2	-9.666658193E-2	6.323796511E-1
6.893943332E0	1.832541823E-2	-5.451811850E-2	6.519267559E-1
6.902346353E0	3.481829539E-2	-4.046862945E-2	6.807892919E-1
6.910749374E0	4.840964451E-2	-7.513421029E-2	7.137750387E-1
6.919152395E0	5.955760926E-2	-1.343863904E-1	7.608102560E-1
6.927555416E0	7.773031294E-2	-2.089097649E-1	8.115105629E-1
6.935958436E0	7.162184268E-2	-2.875563502E-1	8.588512540E-1
6.944361457E0	6.902574003E-2	-3.759764731E-1	8.910734653E-1
6.952764478E0	7.101099193E-2	-4.366030693E-1	9.129112363E-1
6.961167499E0	6.016845629E-2	-4.194993675E-1	9.368869662E-1
6.969570520E0	4.459185153E-2	-3.486410677E-1	9.643751383E-1
6.977973541E0	3.130592033E-2	-2.796153426E-1	9.898779988E-1
6.986376561E0	2.672456764E-2	-2.156290859E-1	9.990406632E-1
6.994779582E0	3.237490356E-2	-1.916533262E-1	9.947647452E-1
7.003182603E0	3.466558084E-2	-2.147128135E-1	9.976662993E-1
7.011585624E0	3.833066672E-2	-2.669402659E-1	1.016602516E0
7.019988645E0	4.566083103E-2	-3.484883606E-1	1.057071209E0
7.028391666E0	5.864133686E-2	-4.630222321E-1	1.171452284E0
7.036794686E0	3.115320951E-2	-5.265503526E-1	1.215433359E0
7.045197707E0	5.375456065E-2	-4.314108789E-1	1.137550354E0
7.053600728E0	6.093201414E-2	-3.660502136E-1	1.216655016E0
7.062003749E0	6.520794332E-2	-2.043284029E-1	1.337297320E0
7.070406770E0	7.391251624E-2	-1.068982705E-1	1.407239318E0
7.078809791E0	4.947862774E-2	-3.345915973E-1	1.436101913E0
7.087212811E0	-2.901524538E-3	-5.772506595E-1	1.483137131E0
7.095615832E0	-5.818320066E-2	-5.957288146E-1	1.634169102E0
7.104018853E0	-1.070509851E-1	-5.526640415E-1	1.894084692E0
7.112421874E0	-1.391204596E-1	-5.183038712E-1	2.090013981E0
7.120824895E0	-1.589729935E-1	-5.051707029E-1	2.192178011E0
7.129227916E0	-1.543916464E-1	-4.784461260E-1	2.242267609E0
7.137630936E0	-1.481304616E-1	-3.426853120E-1	2.243183851E0
7.146033957E0	-9.941539168E-2	-2.469350100E-1	2.257080555E0
7.154436978E0	-3.756710514E-2	-2.276933193E-1	2.299534559E0
7.162839999E0	6.261184346E-3	-2.099787444E-1	2.364284277E0
7.171243020E0	1.328592747E-2	-6.474980712E-2	2.404600143E0
7.179652227E0	8.246437646E-3	1.395785958E-1	2.246696234E0
7.188055247E0	5.741964281E-2	2.322746664E-1	1.742747188E0
7.196458268E0	1.459924877E-1	3.603998944E-2	1.190083146E0
7.204861289E0	1.931804419E-1	-1.856975704E-1	1.034622550E0
7.213264310E0	1.863084137E-1	-2.426590770E-1	1.158319116E0
7.221667331E0	1.618745178E-1	-2.585411072E-1	1.282321095E0
7.230070352E0	1.469087601E-1	-2.822114229E-1	1.209782958E0
7.238473372E0	1.299577504E-1	-1.945548505E-1	9.805625677E-1
7.246876393E0	9.620844573E-2	5.772506446E-2	6.323796511E-1
7.255279414E0	5.497625470E-2	3.483356535E-1	2.318165302E-1
7.263682435E0	1.908897609E-2	5.702258945E-1	-1.569877416E-1
7.272085456E0	-2.290677279E-3	6.725428104E-1	-4.918847680E-1
7.280488477E0	-1.068982761E-3	6.227588058E-1	-7.314895988E-1
7.288891497E0	1.649287529E-2	4.908157587E-1	-9.112313986E-1
7.297294518E0	5.070032179E-2	3.274141252E-1	-1.073564053E0
7.305697539E0	9.300149232E-2	1.556133330E-1	-1.234980464E0
7.314100560E0	1.333174109E-1	2.550287358E-2	-1.405864954E0
7.322503581E0	1.673721522E-1	-6.047387794E-2	-1.576138616E0
7.330906602E0	2.024958730E-1	-1.252236813E-1	-1.745190620E0
7.339309622E0	2.339545041E-1	-1.832541823E-1	-1.910577536E0
7.347712643E0	2.521272004E-1	-2.208212912E-1	-2.063747406E0
7.356115664E0	2.660239935E-1	-2.328855246E-1	-2.190040112E0
7.364518685E0	2.768665254E-1	-2.399102598E-1	-2.304268599E0
7.372921706E0	2.854183912E-1	-2.357870489E-1	-2.420482159E0
7.381324727E0	2.852656841E-1	-2.150182426E-1	-2.538375854E0
7.389727747E0	2.785463631E-1	-1.678302884E-1	-2.655353069E0
7.398130768E0	2.683146596E-1	-9.452861547E-2	-2.769734144E0
7.406533789E0	2.602209449E-1	-7.482878864E-3	-2.868691444E0
7.414936810E0	2.634278834E-1	1.168245375E-1	-2.959096909E0
7.423339831E0	2.826695740E-1	2.608317733E-1	-3.035758257E0
7.431742852E0	3.135173619E-1	4.138490260E-1	-3.091345310E0
7.440145872E0	3.533751369E-1	5.491516590E-1	-3.120055199E0
7.448548893E0	4.017847776E-1	6.536065936E-1	-3.116389990E0
7.456951914E0	4.509579837E-1	7.313368917E-1	-3.086458445E0
7.465354935E0	4.976878166E-1	7.902836204E-1	-3.062940836E0
7.473757956E0	5.387672782E-1	7.992936373E-1	-3.068133116E0
7.482160977E0	5.706840754E-1	7.246175408E-1	-3.074394226E0
7.490563997E0	5.883986354E-1	5.812211633E-1	-3.044768095E0
7.498967018E0	5.827482939E-1	3.764346242E-1	-2.956195354E0
7.507370039E0	5.543438792E-1	1.388150454E-1	-2.811577320E0
7.515773060E0	4.953971207E-1	-1.024696305E-1	-2.643899679E0
7.524176081E0	4.366030693E-1	-3.151971996E-1	-2.471946239E0
7.532579102E0	4.030064642E-1	-4.404208660E-1	-2.321983099E0
7.540982122E0	3.260397315E-1	-4.851654470E-1	-2.210503578E0
7.549385143E0	2.319692522E-1	-5.690042377E-1	-2.086348772E0
7.557788164E0	1.594311297E-1	-6.839962006E-1	-1.980366826E0
7.566191185E0	1.154501289E-1	-8.269344568E-1	-1.824753523E0
7.574594206E0	1.017060652E-1	-9.694145918E-1	-1.553842664E0
7.582997227E0	6.077930331E-2	-9.900307059E-1	-1.256512761E0
7.591400247E0	-8.399149403E-3	-9.724688530E-1	-1.024390817E0
7.599803268E0	-6.780404598E-2	-1.012479305E0	-8.550334573E-1
7.608206289E0	-9.910997003E-2	-1.079519868E0	-7.029324770E-1
7.616609310E0	-7.864658535E-2	-1.172215939E0	-5.221216679E-1
7.625012331E0	-5.024218559E-2	-1.287207842E0	-3.171824515E-1
7.633415352E0	-6.383354217E-2	-1.388761282E0	-6.276455522E-2
7.641818372E0	-8.689302206E-2	-1.464353561E0	2.139492482E-1
7.650221393E0	-1.160609797E-1	-1.495201349E0	4.674508572E-1
7.658624414E0	-1.501157135E-1	-1.457634330E0	6.852179170E-1
7.667027435E0	-1.612636745E-1	-1.395480514E0	9.312366247E-1
7.675430456E0	-1.178935245E-1	-1.218029380E0	1.244906664E0
7.683833477E0	-9.926267900E-3	-7.663078904E-1	1.526965380E0
7.692236497E0	3.649812192E-2	-2.748812735E-2	1.446944475E0
7.700639518E0	-8.063183725E-2	8.397622705E-1	8.984035850E-1
7.709042539E0	-4.430169761E-1	1.578582048E0	6.917845458E-2
7.717445560E0	-9.353598356E-1	1.929208398E0	-6.511631608E-1
7.725848581E0	-1.182447553E0	1.792378545E0	-5.676298141E-1
7.734251602E0	-9.834640622E-1	1.348598003E0	5.108210444E-1
7.742654622E0	-4.909684956E-1	9.237537384E-1	1.867665529E0
7.751057643E0	-1.105633527E-1	6.681141853E-1	2.526769638E0
7.759460664E0	-2.336490713E-2	4.059080184E-1	2.298160076E0
7.767863685E0	-2.554868758E-1	2.999260128E-1	1.476112366E0
7.776266706E0	-5.088357925E-1	2.564031482E-1	8.220477104E-1
7.784669727E0	-4.683671296E-1	4.300364852E-1	7.212579250E-1
7.793072747E0	-2.486148328E-1	6.470399499E-1	9.764393568E-1
7.801475768E0	-7.879929990E-2	7.382088900E-1	1.144880533E0
7.809878789E0	-1.243074164E-1	7.104153633E-1	1.128082156E0
7.818281810E0	-3.061871827E-1	6.329904795E-1	1.164274931E0
7.826684831E0	-3.970507085E-1	5.435013771E-1	1.293316364E0
7.835087852E0	-3.167243004E-1	3.994941115E-1	1.295301557E0
7.843490872E0	-2.476985604E-1	2.353289127E-1	1.080741525E0
7.851893893E0	-2.469350100E-1	1.550024897E-1	7.921161652E-1
7.860296914E0	-2.250972092E-1	2.087570578E-1	6.300889254E-1
7.868699935E0	-1.861557066E-1	2.542651594E-1	6.125270724E-1
7.877102956E0	-1.904316396E-1	2.373141646E-1	6.157340407E-1
7.885505977E0	-1.878355294E-1	1.911951900E-1	5.885513425E-1
7.893908997E0	-1.353026628E-1	7.788302749E-2	5.337277651E-1
7.902312018E0	-9.880454093E-2	4.596625641E-2	4.764608741E-1
7.910715039E0	-9.147437662E-2	8.154810965E-2	4.422534108E-1
7.919118060E0	-7.269082218E-2	5.146388337E-2	4.193466306E-1
7.927521081E0	-5.726693198E-2	-1.496575773E-2	4.118637741E-1
7.935924102E0	-6.826218218E-2	-6.093201414E-2	4.395045936E-1
7.944327122E0	-6.765133142E-2	-7.757759839E-2	4.639385045E-1
7.952730143E0	-4.550812021E-2	-8.246438205E-2	4.569137394E-1
7.961133164E0	-3.206948191E-2	-6.551336497E-2	4.498890042E-1
7.969536185E0	-2.183778957E-2	-4.840964451E-2	4.572191834E-1
7.977939206E0	-7.788302377E-3	-6.520794332E-2	4.512633979E-1
7.986342227E0	6.413896102E-3	-9.590301663E-2	4.362976551E-1
7.994745247E0	1.756185852E-2	-1.113269106E-1	4.437805414E-1
8.003148268E0	1.969982497E-2	-1.238492802E-1	4.764608741E-1
8.011551289E0	2.367033064E-2	-1.417165697E-1	5.077667832E-1
8.019954310E0	2.214321308E-2	-1.467560530E-1	5.323534012E-1
8.028357331E0	2.275406010E-2	-1.294996142E-1	5.581616759E-1
8.036760352E0	2.977880463E-2	-1.327065676E-1	5.822901726E-1
8.045163372E0	3.313846514E-2	-1.499630064E-1	6.007682681E-1
8.053566393E0	4.107947648E-2	-1.508792788E-1	6.016845703E-1
8.061969414E0	5.161659420E-2	-1.714953631E-1	6.122216582E-1
8.070372435E0	5.543438718E-2	-2.017323077E-1	6.322268844E-1
8.078775456E0	5.222744122E-2	-2.061609477E-1	6.740699410E-1
8.087178477E0	4.459185153E-2	-2.171562016E-1	7.392778993E-1
8.095581497E0	4.092676565E-2	-2.284568697E-1	8.035695553E-1
8.103984518E0	4.260659590E-2	-2.409792393E-1	8.541171551E-1
8.112387539E0	4.337015375E-2	-2.591519356E-1	8.941276670E-1
8.120790560E0	5.008947477E-2	-2.852656841E-1	9.388722181E-1
8.129193581E0	5.589252338E-2	-3.220692277E-1	9.869764447E-1
8.137596602E0	6.322269142E-2	-3.652866483E-1	1.033553600E0
8.145999622E0	6.704048812E-2	-4.787515402E-1	1.086849928E0
8.154402643E0	6.337540597E-2	-6.387935281E-1	1.188708782E0
8.162805664E0	5.741964281E-2	-7.446228266E-1	1.285680771E0
8.171208685E0	5.207473040E-2	-8.501466513E-1	1.420830727E0
8.179611706E0	6.872031838E-3	-9.402466416E-1	1.603932142E0
8.188014727E0	-8.108997345E-2	-8.058602214E-1	1.793142080E0
8.196417747E0	-1.269035190E-1	-4.656183124E-1	1.995638013E0
8.204820768E0	-9.880454093E-2	-7.467607409E-2	2.139797926E0
8.213223789E0	-5.222744122E-2	2.186833173E-1	2.224400282E0
8.221626810E0	-4.230117425E-2	1.808107942E-1	2.276780367E0
8.230029831E0	-9.743013978E-2	-1.855448484E-1	2.272809982E0
8.238432852E0	-1.892099380E-1	-5.372401476E-1	2.336948872E0
8.246835872E0	-2.800734639E-1	-6.313106418E-1	2.521119356E0
8.255238893E0	-3.243598938E-1	-5.948125124E-1	2.723157167E0
8.263641914E0	-3.368822634E-1	-5.816792846E-1	2.812798977E0
8.272044935E0	-3.171824515E-1	-6.348230243E-1	2.845631838E0
8.280447956E0	-2.658712566E-1	-7.036960125E-1	2.842577696E0
8.288850977E0	-1.849340051E-1	-6.494833231E-1	2.773551941E0
8.297253997E0	-5.253286287E-2	-4.973823726E-1	2.725753069E0
8.305657018E0	5.573981255E-2	-1.421747059E-1	2.526158810E0
8.314060039E0	7.910472155E-2	3.520007432E-1	1.930124640E0
8.322463060E0	1.244601309E-1	3.771981895E-1	1.254680276E0
8.330866081E0	2.179197669E-1	1.055238619E-1	8.205205798E-1
8.339269102E0	3.135173619E-1	-1.443126649E-1	6.575770974E-1
8.347672122E0	3.533751369E-1	-2.861819267E-1	7.740961909E-1
8.356075143E0	2.704526186E-1	-3.020639718E-1	9.926267862E-1
8.364478164E0	1.760767251E-1	-2.429644912E-1	1.052184463E0
8.372881185E0	1.652341783E-1	-1.450762302E-1	8.376243114E-1
8.381284206E0	1.713426560E-1	7.452336699E-2	4.346178174E-1
8.389687227E0	1.511846930E-1	3.642176688E-1	-1.679829881E-2
8.398090247E0	1.186570823E-1	6.227588058E-1	-4.324798584E-1
8.406493268E0	8.842013776E-2	8.733588457E-1	-8.805363178E-1
8.414896289E0	7.666133344E-2	9.061918855E-1	-1.206270576E0
8.423299310E0	7.040014863E-2	8.434273601E-1	-1.374100924E0
8.431702331E0	7.009471953E-2	7.615737915E-1	-1.485885978E0
8.440105352E0	7.941014320E-2	5.844281316E-1	-1.610346079E0
8.448508372E0	9.315420687E-2	4.352286756E-1	-1.779245377E0
8.456911393E0	1.142284349E-1	3.081724346E-1	-1.967844486E0
8.465314414E0	1.403421611E-1	1.556133330E-1	-2.153083801E0
8.473717435E0	1.708845198E-1	-3.130592033E-2	-2.290219069E0
8.482120456E0	1.965401024E-1	-2.041756958E-1	-2.390550852E0
8.490523477E0	2.209739983E-1	-3.663556576E-1	-2.463852406E0
8.498926497E0	2.347180545E-1	-4.511106908E-1	-2.536390543E0
8.507329518E0	2.411319613E-1	-4.627167881E-1	-2.611524820E0
8.515732539E0	2.435753495E-1	-4.162923992E-1	-2.701777458E0
8.524135560E0	2.373141646E-1	-3.173351586E-1	-2.812951565E0
8.532538581E0	2.319692522E-1	-1.979145110E-1	-2.916490316E0
8.540941602E0	2.247917950E-1	-3.817795217E-2	-3.020487070E0
8.549344622E0	2.163926363E-1	1.478250325E-1	-3.124789238E0
8.557747643E0	2.142546773E-1	3.355078697E-1	-3.234436274E0
8.566150664E0	2.266243398E-1	5.042544007E-1	-3.343777895E0
8.574553685E0	2.551814318E-1	6.293253899E-1	-3.422119141E0
8.582956706E0	2.944283783E-1	7.227849960E-1	-3.472972155E0
8.591359727E0	3.471139669E-1	7.618792653E-1	-3.467779875E0
8.599762747E0	3.915531039E-1	7.643226385E-1	-3.420591831E0
8.608165768E0	4.282039404E-1	7.149966955E-1	-3.356300354E0
8.616568789E0	4.709632397E-1	5.980194807E-1	-3.300865889E0
8.624971810E0	5.143333673E-1	4.245388508E-1	-3.263604164E0
8.633374831E0	5.375455618E-1	2.067717910E-1	-3.213209391E0
8.641777852E0	5.286883116E-1	-2.214321308E-2	-3.140365839E0
8.650180872E0	4.828747511E-1	-2.603736520E-1	-3.062788248E0
8.658583893E0	4.437805414E-1	-5.060869455E-1	-2.951766729E0
8.666986914E0	4.030064642E-1	-7.107207775E-1	-2.819212914E0
8.675389935E0	3.422271907E-1	-9.054283500E-1	-2.654284000E0
8.683792956E0	2.851129472E-1	-1.092042208E0	-2.442930937E0
8.692195977E0	2.431172132E-1	-1.200314879E0	-2.198439360E0
8.700598997E0	1.812689304E-1	-1.217418551E0	-1.916838646E0
8.709002018E0	1.223221645E-1	-1.149461865E0	-1.635848999E0
8.717405039E0	7.070557028E-2	-1.090362310E0	-1.406170368E0
8.725808060E0	3.222219273E-2	-1.097387075E0	-1.164580345E0
8.734211081E0	-1.679830020E-3	-1.128540277E0	-8.371661901E-1
8.742614102E0	-3.222219273E-2	-1.119835734E0	-3.932329118E-1
8.751017122E0	-7.345438004E-2	-1.018129706E0	5.497625470E-2
8.759420143E0	-1.339282542E-1	-8.936695457E-1	4.559974670E-1
8.767823164E0	-1.855448484E-1	-8.260182142E-1	8.990144730E-1
8.776226185E0	-1.640124917E-1	-7.821899056E-1	1.513526797E0
8.784629206E0	-8.597674966E-2	-5.803049207E-1	2.092609882E0
8.793032227E0	-1.716480851E-1	1.928750277E-1	2.052904844E0
8.801435247E0	-4.837910235E-1	1.289651275E0	1.252389550E0
8.809838268E0	-7.699729800E-1	1.990445852E0	2.214321345E-1
8.818241289E0	-7.904363275E-1	1.917602301E0	-4.088095427E-1
8.826644310E0	-4.509579837E-1	1.421594262E0	1.360662282E-1
8.835047331E0	-1.678302884E-1	1.003163934E0	1.418234587E0
8.843450352E0	-9.834641218E-2	5.138752460E-1	2.390550852E0
8.851853372E0	-1.661504507E-1	1.221694518E-2	2.533641815E0
8.860256393E0	-4.329380095E-1	-1.528645307E-1	2.076727867E0
8.868659414E0	-5.457920432E-1	-9.773556143E-2	1.582552552E0
8.877062435E0	-3.530697227E-1	2.993151546E-2	1.270562291E0
8.885465456E0	-1.641651988E-1	3.122956753E-1	1.004232883E0
8.893868477E0	-1.922641695E-1	7.182036638E-1	5.818319917E-1
8.902271497E0	-2.767138183E-1	8.842014074E-1	2.675510943E-1
8.910674518E0	-2.947337925E-1	8.275453448E-1	3.040492237E-1
8.919077539E0	-3.040492237E-1	7.041541934E-1	5.616740584E-1
8.927480560E0	-3.545968235E-1	5.986303091E-1	7.278245091E-1
8.935883581E0	-3.846810758E-1	4.457657933E-1	7.675296068E-1
8.944286602E0	-3.524588645E-1	3.054236174E-1	7.447755337E-1
8.952689622E0	-2.906105816E-1	2.432699203E-1	6.696413159E-1
8.961092643E0	-2.617480457E-1	2.425063550E-1	5.859552622E-1
8.969495664E0	-2.597627938E-1	2.835858464E-1	5.700731874E-1
8.977898685E0	-2.263189107E-1	3.003841341E-1	5.515950918E-1
8.986301706E0	-1.892099380E-1	2.385358512E-1	4.492781460E-1
8.994704727E0	-1.539335102E-1	1.760767251E-1	3.907895386E-1
9.003107747E0	-1.296523362E-1	1.643179059E-1	4.207210541E-1
9.011510768E0	-1.275143623E-1	1.522536725E-1	4.700469673E-1
9.019913789E0	-1.230857223E-1	1.127013192E-1	4.842491746E-1
9.028316810E0	-1.247655526E-1	2.290677279E-2	4.886777997E-1
9.036719831E0	-1.324011385E-1	-6.704048812E-2	4.957025647E-1
9.045122852E0	-1.324011385E-1	-7.528692484E-2	4.885250926E-1
9.053525872E0	-1.218640283E-1	-9.177979827E-2	4.619532526E-1
9.061928893E0	-1.093416587E-1	-1.104106456E-1	4.172086716E-1
9.070331914E0	-8.964183182E-2	-7.574506104E-2	3.958290219E-1
9.078734935E0	-7.207997888E-2	-7.956285775E-2	3.802524209E-1
9.087137956E0	-5.650337040E-2	-1.062874198E-1	3.720059693E-1
9.095540977E0	-4.153761268E-2	-1.446180940E-1	3.947600424E-1
9.103943997E0	-3.359659761E-2	-1.334701329E-1	4.242334068E-1
9.112347018E0	-2.825168520E-2	-9.345962852E-2	4.446968138E-1
9.120750039E0	-2.244863659E-2	-6.520794332E-2	4.501944184E-1
9.129153060E0	-1.832541823E-2	-7.330167294E-2	4.553866386E-1
9.137556081E0	-1.588202827E-2	-9.422318637E-2	4.724903405E-1
9.145959102E0	-1.343864016E-2	-1.023169160E-1	4.966188073E-1
9.154362122E0	-8.246437646E-3	-1.017060652E-1	5.280774832E-1
9.162765143E0	4.581354442E-4	-1.128540337E-1	5.488462448E-1
9.171168164E0	1.618745178E-2	-1.478250325E-1	5.656445622E-1
9.179571185E0	3.084778599E-2	-1.670667231E-1	5.897729993E-1
9.187974206E0	4.153761268E-2	-1.363716573E-1	6.394043565E-1
9.196377227E0	3.939964995E-2	-1.203369126E-1	7.001836896E-1
9.204780247E0	2.473931387E-2	-1.699682474E-1	7.594358325E-1
9.213183268E0	2.107422985E-2	-2.209739983E-1	8.067765236E-1
9.221586289E0	2.382304333E-2	-2.200577259E-1	8.533536196E-1
9.229989310E0	2.733541466E-2	-1.827960461E-1	8.881719112E-1
9.238392331E0	3.710897267E-2	-1.760767251E-1	9.155073166E-1
9.246795352E0	4.642439261E-2	-2.194468826E-1	9.419264793E-1
9.255198372E0	4.825693369E-2	-2.809897363E-1	9.797990322E-1
9.263601393E0	5.161659420E-2	-3.507790267E-1	1.038440347E0
9.272004414E0	4.062134400E-2	-4.350759685E-1	1.117850542E0
9.280407435E0	2.870982140E-2	-4.944808483E-1	1.203216434E0
9.288810456E0	2.107422985E-2	-5.372401476E-1	1.280946732E0
9.297213477E0	7.635590620E-3	-5.766398311E-1	1.350888729E0
9.305616497E0	4.734066315E-3	-6.070294380E-1	1.431215167E0
9.314019518E0	-7.941014133E-3	-6.067240238E-1	1.513221383E0
9.322422539E0	-1.756185852E-2	-4.807367921E-1	1.600878000E0
9.330825560E0	-1.985253533E-3	-2.930539846E-1	1.738165855E0
9.339228581E0	2.519745007E-2	-1.722589284E-1	1.871483326E0
9.347631602E0	2.977880463E-2	-3.452814221E-1	1.965401053E0
9.356034622E0	-1.817270555E-2	-5.641174316E-1	2.011367321E0
9.364437643E0	-1.099525094E-1	-6.639909744E-1	2.154000044E0
9.372840664E0	-1.649287641E-1	-6.829272509E-1	2.366727591E0
9.381243685E0	-2.018850148E-1	-7.006418109E-1	2.510276794E0
9.389646706E0	-2.102841735E-1	-7.180509567E-1	2.577470064E0
9.398049727E0	-1.936385781E-1	-6.833853722E-1	2.587854385E0
9.406452747E0	-1.637070626E-1	-5.974085927E-1	2.603889227E0
9.414855768E0	-1.194206402E-1	-4.421007037E-1	2.648022890E0
9.423258789E0	-7.299624383E-2	-2.292204350E-1	2.695363522E0
9.431661810E0	-1.053711493E-2	7.834116369E-2	2.588465214E0
9.440064831E0	5.986303091E-2	4.230117202E-1	2.043589592E0
9.448467852E0	1.884463727E-1	4.917320311E-1	1.282321095E0
9.456870872E0	3.388675153E-1	2.745758295E-1	7.644753456E-1
9.465273893E0	4.080459774E-1	8.154810965E-2	7.043069005E-1
9.473676914E0	4.028537571E-1	-1.588202827E-2	9.133693576E-1
9.482079935E0	3.578037918E-1	-6.642963737E-2	1.107466102E0
9.490482956E0	3.257342875E-1	-1.195733473E-1	1.072036982E0
9.498885977E0	3.127537966E-1	-2.290677279E-2	7.837170362E-1
9.507288997E0	2.893888950E-1	2.377723008E-1	2.872509360E-1
9.515692018E0	2.562504113E-1	5.047125220E-1	-2.177670449E-1
9.524095039E0	2.299840003E-1	7.038487792E-1	-5.957288146E-1
9.532498060E0	2.168507725E-1	7.973083854E-1	-8.938222528E-1
9.540901081E0	2.046338320E-1	7.731798887E-1	-1.137550354E0
9.549304102E0	2.009687424E-1	6.546755433E-1	-1.322637081E0
9.557707122E0	2.133384049E-1	5.045598149E-1	-1.520704269E0
9.566110143E0	2.403683960E-1	3.339807391E-1	-1.722131133E0
9.574513164E0	2.661767006E-1	1.965401024E-1	-1.915158868E0
9.582916185E0	2.735068500E-1	9.040539712E-2	-2.081156492E0
9.591319206E0	2.715215981E-1	3.359660041E-3	-2.220887899E0
9.599722227E0	2.681619525E-1	-7.360709459E-2	-2.327175379E0
9.608125247E0	2.683146596E-1	-1.449235082E-1	-2.411472321E0
9.616528268E0	2.599155009E-1	-1.976090819E-1	-2.506153584E0
9.624931289E0	2.396048307E-1	-2.302894145E-1	-2.607096195E0
9.633334310E0	2.064663768E-1	-2.264716178E-1	-2.710329294E0
9.641737331E0	1.786728203E-1	-1.795890927E-1	-2.831429720E0
9.650140352E0	1.488940120E-1	-1.256818175E-1	-2.967343330E0
9.658543372E0	1.243074164E-1	-8.490777016E-2	-3.095926523E0
9.666946393E0	1.127013192E-1	-3.985778242E-2	-3.190455198E0
9.675349414E0	1.166718230E-1	2.367033064E-2	-3.243904352E0
9.683752435E0	1.336228400E-1	9.162709117E-2	-3.273072243E0
9.692155456E0	1.575985998E-1	1.757712960E-1	-3.283609390E0
9.700558477E0	1.850867122E-1	2.666348219E-1	-3.288343430E0
9.708961497E0	2.163926363E-1	3.407000601E-1	-3.292008638E0
9.717364518E0	2.458660156E-1	3.729222417E-1	-3.285289288E0
9.725767539E0	2.631224692E-1	3.764346242E-1	-3.243751764E0
9.734170560E0	2.611372173E-1	3.794888556E-1	-3.181903362E0
9.742573581E0	2.507528067E-1	3.642176688E-1	-3.130897522E0
9.750976602E0	2.405211031E-1	3.017585576E-1	-3.086153030E0
9.759379622E0	2.307475507E-1	1.589729935E-1	-3.013156891E0
9.767782643E0	2.145601064E-1	-4.367557913E-2	-2.908701897E0
9.776185664E0	1.968455315E-1	-3.095468581E-1	-2.797374964E0
9.784588685E0	2.002051920E-1	-6.529957056E-1	-2.609692097E0
9.792991706E0	1.902789176E-1	-9.904888272E-1	-2.318776131E0
9.801394727E0	1.498102844E-1	-1.235896707E0	-2.043895006E0
9.809797747E0	1.131594554E-1	-1.435032964E0	-1.727934241E0
9.818200768E0	6.658235192E-2	-1.369519591E0	-1.341878772E0
9.826603789E0	6.139015034E-2	-1.123348117E0	-9.509364963E-1
9.835006810E0	4.749337584E-2	-8.637380004E-1	-7.131641507E-1
9.843409831E0	-1.435491070E-2	-6.907155514E-1	-5.890094638E-1
9.851812852E0	-6.994201243E-2	-5.796940327E-1	-3.854446113E-1
9.860215872E0	-8.612946421E-2	-4.133908749E-1	-5.650337040E-2
9.868618893E0	-1.156028435E-1	-2.504473627E-1	3.096995652E-1
9.877021914E0	-1.777565479E-1	-1.421747059E-1	6.726955175E-1
9.885424935E0	-2.238755226E-1	-5.421269313E-2	1.092500329E0
9.893827956E0	-2.509055138E-1	6.566607952E-2	1.501615286E0
9.902230977E0	-3.246653080E-1	4.217900336E-1	1.498561025E0
9.910633997E0	-5.312843919E-1	1.064401388E0	6.994200945E-1
9.919037018E0	-7.055285573E-1	1.333174109E0	-4.608842432E-1
9.927440039E0	-6.661289334E-1	1.141978979E0	-1.064554095E0
9.935843060E0	-4.019374847E-1	8.516737819E-1	-1.716480851E-1
9.944246081E0	-1.786728203E-1	6.227588058E-1	1.638750434E0
9.952649102E0	-1.684411317E-1	2.641914487E-1	2.774162769E0
9.961052122E0	-2.504473627E-1	-8.399149776E-2	2.899691820E0
9.969455143E0	-3.988832533E-1	-2.220429778E-1	2.210350752E0
9.977858164E0	-5.323534012E-1	-1.211004704E-1	1.344169378E0
9.986261185E0	-5.062396526E-1	2.893888950E-1	8.127322793E-1
9.994664206E0	-3.417690396E-1	9.604045749E-1	5.816792846E-1
1.000306723E1	-1.950129867E-1	1.208866715E0	4.358395338E-1
1.001147025E1	-1.174353883E-1	1.040578246E0	3.098522723E-1
1.001987327E1	-1.151447073E-1	6.899519563E-1	4.144598544E-1
1.002827629E1	-1.849340051E-1	4.462239146E-1	7.869240046E-1
1.003667931E1	-2.857238054E-1	3.866663277E-1	1.154806733E0
1.004508233E1	-3.623851240E-1	3.246653080E-1	1.251320601E0
1.005348535E1	-3.862081766E-1	2.298312783E-1	1.137703061E0
1.006188837E1	-3.182514310E-1	1.750077456E-1	9.228374958E-1
1.007029139E1	-2.035648525E-1	2.061609477E-1	6.671979427E-1
1.007869441E1	-1.423274130E-1	2.579302490E-1	4.911212027E-1
1.008709744E1	-1.270562261E-1	2.635805905E-1	4.543176591E-1
1.009550046E1	-1.232384369E-1	1.963873953E-1	5.537330508E-1
1.010390348E1	-1.131594554E-1	9.055810422E-2	7.140804529E-1
1.011230650E1	-1.087308154E-1	9.620844387E-3	8.389987350E-1
1.012070952E1	-9.666658193E-2	-1.191152167E-2	8.519791961E-1
1.012911254E1	-1.024696305E-1	6.872031838E-3	7.798992395E-1
1.013751556E1	-1.023169160E-1	1.985253580E-2	7.032378912E-1
1.014591858E1	-8.948912472E-2	6.810946763E-2	6.125270724E-1
1.015432160E1	-8.063183725E-2	1.264453828E-1	5.163186193E-1
1.016272462E1	-7.895200700E-2	7.269082218E-2	4.489727318E-1
1.017112764E1	-7.467607409E-2	-4.443913698E-2	4.172086716E-1
1.017953066E1	-6.383354217E-2	-1.197260618E-1	4.483618736E-1
1.018793368E1	-6.566607952E-2	-1.598892659E-1	5.358657837E-1
1.019633671E1	-6.917845458E-2	-2.047865391E-1	5.928272605E-1
1.020473973E1	-5.635065958E-2	-2.351761907E-1	6.080984473E-1
1.021314275E1	-4.489727318E-2	-2.275405973E-1	6.061131954E-1
1.022154577E1	-4.199574888E-2	-1.852394342E-1	5.885513425E-1
1.022994879E1	-3.023693897E-2	-1.585148573E-1	5.528167486E-1
1.023835181E1	-1.649287529E-2	-1.441599578E-1	5.331169367E-1
1.024675483E1	-1.068982668E-2	-8.704573661E-2	5.544965863E-1
1.025515785E1	2.137965523E-3	-4.291202128E-2	5.764871240E-1
1.026356087E1	1.435491070E-2	-4.947862774E-2	5.885513425E-1
1.027196389E1	2.809897438E-2	-8.490777016E-2	6.013791561E-1
1.028036691E1	3.817795217E-2	-9.162709117E-2	6.261184216E-1
1.028876994E1	4.306473210E-2	-9.620844573E-2	6.612421870E-1
1.029717296E1	4.886778072E-2	-1.262926757E-1	6.798729897E-1
1.030557598E1	6.322269142E-2	-1.635543555E-1	6.916317940E-1
1.031397900E1	6.902574003E-2	-1.603474021E-1	7.041541934E-1
1.032238202E1	7.391251624E-2	-1.595838517E-1	7.327113152E-1
1.033078504E1	7.345438004E-2	-1.731752008E-1	7.750124335E-1
1.033918806E1	7.574506104E-2	-1.734806150E-1	8.240329623E-1
1.034759108E1	8.017370105E-2	-1.745496094E-1	8.713735938E-1
1.035599410E1	8.460234851E-2	-1.878355294E-1	9.167290330E-1
1.036439712E1	8.750387281E-2	-2.286095917E-1	9.694145918E-1
1.037280014E1	9.452861547E-2	-2.932066917E-1	1.019962192E0
1.038120316E1	9.361234307E-2	-3.778090179E-1	1.075702071E0
1.038960618E1	8.887827396E-2	-4.553866386E-1	1.141215444E0
1.039800921E1	6.566607952E-2	-5.238015056E-1	1.218182087E0
1.040641223E1	5.115845799E-2	-6.045860648E-1	1.283390045E0
1.041481525E1	3.054236248E-2	-6.710157394E-1	1.311489105E0
1.042321827E1	2.137965523E-3	-7.646280527E-1	1.414874911E0
1.043162129E1	-3.191677108E-2	-7.783721089E-1	1.574306130E0
1.044002431E1	-4.947862774E-2	-6.421532035E-1	1.764126897E0
1.044842733E1	-5.039489828E-3	-3.494046330E-1	1.949366331E0
1.045683035E1	8.231166750E-2	-2.646495700E-1	2.059929609E0
1.046523337E1	6.291726977E-2	-5.960342288E-1	2.047407389E0
1.047363639E1	-7.635590434E-2	-7.753179073E-1	2.046796560E0
1.048203941E1	-1.879882365E-1	-6.213843822E-1	2.259065866E0
1.049044244E1	-2.535016239E-1	-4.424061179E-1	2.507986069E0
1.049884546E1	-2.655658424E-1	-3.674246371E-1	2.603125572E0
1.050724848E1	-2.276933193E-1	-3.910949528E-1	2.618855000E0
1.051565150E1	-1.785201132E-1	-3.680354655E-1	2.641914368E0
1.052405452E1	-1.366770715E-1	-2.435753495E-1	2.726211309E0
1.053245754E1	-8.429691941E-2	5.375456065E-2	2.609844923E0
1.054086056E1	-1.252236869E-2	2.980934680E-1	2.133842230E0
1.054926358E1	4.795150831E-2	3.003841341E-1	1.553842664E0
1.055766660E1	1.168245375E-1	1.966928244E-1	1.161373377E0
1.056606962E1	1.647760421E-1	6.093201414E-2	1.049130201E0
1.057447264E1	1.537808031E-1	4.123218823E-3	1.147934675E0
1.058287566E1	1.259872466E-1	2.046338283E-2	1.225970507E0
1.059127868E1	1.140757278E-1	9.712471068E-2	1.152363300E0
1.059968171E1	1.243074164E-1	2.858765125E-1	8.855758309E-1
1.060808473E1	1.107160673E-1	5.679352283E-1	4.045335948E-1
1.061648775E1	8.215895295E-2	8.011261821E-1	-7.253811508E-2
1.062489077E1	7.818844914E-2	9.184088707E-1	-4.966188073E-1
1.063329379E1	8.658760041E-2	8.822161555E-1	-8.422056437E-1
1.064169681E1	9.391776472E-2	7.618792653E-1	-1.084406614E0
1.065009983E1	1.104106456E-1	5.877877474E-1	-1.254222155E0
1.065850285E1	1.377460510E-1	3.717005551E-1	-1.398229361E0
1.066690587E1	1.714953631E-1	1.585148573E-1	-1.573848009E0
1.067530889E1	2.014268786E-1	-2.901524538E-3	-1.775427580E0
1.068371191E1	2.186833173E-1	-9.177979827E-2	-1.974869132E0
1.069211494E1	2.330382317E-1	-1.572931707E-1	-2.157512426E0
1.070051796E1	2.460187376E-1	-2.211267054E-1	-2.311904192E0
1.070892098E1	2.614426315E-1	-2.919849753E-1	-2.439113140E0
1.071732400E1	2.707580328E-1	-3.568875194E-1	-2.558991909E0
1.072572702E1	2.733541429E-1	-4.092676640E-1	-2.667569876E0
1.073413004E1	2.695363462E-1	-4.382829070E-1	-2.768970728E0
1.074253306E1	2.635805905E-1	-4.375193417E-1	-2.870218515E0
1.075093608E1	2.582356930E-1	-4.036173224E-1	-2.965968847E0
1.075933910E1	2.522799075E-1	-3.107685447E-1	-3.044920921E0
1.076774212E1	2.554868758E-1	-1.879882365E-1	-3.103562117E0
1.077614514E1	2.623589039E-1	-4.657710344E-2	-3.141587496E0
1.078454816E1	2.747285664E-1	1.214058921E-1	-3.159760237E0
1.079295119E1	2.967190444E-1	2.761029601E-1	-3.139144182E0
1.080135421E1	3.167243004E-1	4.251496792E-1	-3.084167719E0
1.080975723E1	3.287885487E-1	6.148177385E-1	-3.073477983E0
1.081816025E1	3.581092060E-1	7.392778993E-1	-3.106769085E0
1.082656327E1	3.988832533E-1	7.667660117E-1	-3.107990742E0
1.083496629E1	4.451549351E-1	7.298097610E-1	-3.092261553E0
1.084336931E1	4.822639227E-1	5.622848868E-1	-3.037590742E0
1.085177233E1	4.937172830E-1	3.228327632E-1	-2.908701897E0
1.086017535E1	4.778352678E-1	1.038440317E-1	-2.746216536E0
1.086857837E1	4.575245976E-1	-1.090362370E-1	-2.608470440E0
1.087698139E1	4.292729199E-1	-2.899997234E-1	-2.525853395E0
1.088538441E1	3.997995257E-1	-4.607315361E-1	-2.445832491E0
1.089378744E1	3.787252903E-1	-5.832064152E-1	-2.328702450E0
1.090219046E1	3.478775024E-1	-5.995466113E-1	-2.187596798E0
1.091059348E1	2.690782249E-1	-6.603258848E-1	-2.018697500E0
1.091899650E1	2.046338320E-1	-7.339329720E-1	-1.822768211E0
1.092739952E1	1.640124917E-1	-7.572978735E-1	-1.655854225E0
1.093580254E1	1.243074164E-1	-7.237012982E-1	-1.451831222E0
1.094420556E1	9.972081333E-2	-7.328640223E-1	-1.228719234E0
1.095260858E1	8.200624585E-2	-7.041541934E-1	-1.011715770E0
1.096101160E1	4.550812021E-2	-6.230642200E-1	-7.812736630E-1
1.096941462E1	-3.970507067E-3	-5.083776116E-1	-5.334223509E-1
1.097781764E1	-3.665083647E-2	-3.884988427E-1	-3.487937748E-1
1.098622066E1	-5.146388337E-2	-3.726168275E-1	-2.069245130E-1
1.099462368E1	-5.299099907E-2	-4.401154518E-1	-3.542914242E-2
1.100302671E1	-6.276455522E-2	-5.097520351E-1	1.718007922E-1
1.101142973E1	-7.864658535E-2	-5.905365944E-1	4.185830951E-1
1.101983275E1	-8.338065445E-2	-6.462764144E-1	7.003363967E-1
1.102823577E1	-1.056765765E-1	-5.903838873E-1	9.822424054E-1
1.103663879E1	-1.801999360E-1	-4.575245976E-1	1.252542257E0
1.104504181E1	-2.544178963E-1	-2.399102598E-1	1.399909258E0
1.105344483E1	-4.164451063E-1	2.513636351E-1	1.064554095E0
1.106184785E1	-7.276718020E-1	8.652651310E-1	2.832804024E-1
1.107025087E1	-1.025918007E0	1.321720719E0	-4.326325655E-1
1.107865389E1	-9.802571535E-1	1.447555304E0	-3.849864900E-1
1.108705691E1	-5.031854510E-1	1.024390817E0	8.162446618E-1
1.109545994E1	-1.084253863E-1	5.018110275E-1	2.105743170E0
1.110386296E1	-4.352286831E-2	1.638597846E-1	2.649397373E0
1.111226598E1	-2.069245130E-1	4.321744293E-2	2.397575378E0
1.112066900E1	-5.187620521E-1	8.276980370E-2	1.728392363E0
1.112907202E1	-7.343910933E-1	3.967452943E-1	1.184585571E0
1.113747504E1	-6.412369013E-1	7.643226385E-1	9.486457705E-1
1.114587806E1	-3.011476994E-1	9.747595191E-1	8.835905790E-1
1.115428108E1	-2.809897438E-2	1.024696231E0	8.296833038E-1
1.116268410E1	-4.214845970E-2	9.668185115E-1	8.806890249E-1
1.117108712E1	-3.232909143E-1	8.275453448E-1	1.124264359E0
1.117949014E1	-5.150969625E-1	5.551074743E-1	1.437018156E0
1.118789316E1	-4.385883212E-1	1.879882365E-1	1.502531528E0
1.119629619E1	-3.188622594E-1	2.367033064E-2	1.282626510E0
1.120469921E1	-2.823641598E-1	4.688252881E-2	9.729269743E-1
1.121310223E1	-2.782409191E-1	1.959292591E-1	7.447755337E-1
1.122150525E1	-2.423536479E-1	2.903051674E-1	6.395570636E-1
1.122990827E1	-2.044811249E-1	2.325800955E-1	6.397097707E-1
1.123831129E1	-1.930277348E-1	8.307522535E-2	7.015580535E-1
1.124671431E1	-1.902789176E-1	-5.100574717E-2	7.692093849E-1
1.125511733E1	-1.768402755E-1	-1.136175916E-1	8.105943203E-1
1.126352035E1	-1.508792788E-1	-1.006370857E-1	7.934905887E-1
1.127192337E1	-1.372879148E-1	-6.826218218E-2	7.299624681E-1
1.128032639E1	-1.285833418E-1	-7.177454978E-2	6.652126908E-1
1.128872941E1	-1.185043678E-1	-7.452336699E-2	6.070294380E-1
1.129713244E1	-1.108687744E-1	-5.283828825E-2	5.567872524E-1
1.130553546E1	-1.075091213E-1	0.000000000E0	5.376983285E-1
1.131393848E1	-1.038440317E-1	1.328592747E-2	5.340332389E-1
1.132234150E1	-9.636115283E-2	-1.801999472E-2	5.244123936E-1
1.133074452E1	-7.788302749E-2	-6.841489673E-2	5.238015056E-1
1.133914754E1	-6.398624927E-2	-1.093416587E-1	5.433486104E-1
1.134755056E1	-5.405998230E-2	-1.360662282E-1	5.690042377E-1
1.135595358E1	-4.642439261E-2	-1.591257155E-1	5.940489769E-1
1.136435660E1	-3.665083647E-2	-1.927223057E-1	6.128324866E-1
1.137275962E1	-3.038965166E-2	-2.160872221E-1	6.287145615E-1
1.138116264E1	-2.580829710E-2	-2.063136548E-1	6.447492838E-1
1.138956566E1	-1.023169141E-2	-2.112004459E-1	6.566607952E-1
1.139796868E1	1.068982761E-3	-2.231119573E-1	6.691831946E-1
1.140637171E1	8.093725890E-3	-2.144073844E-1	6.917845011E-1
1.141477473E1	2.046338283E-2	-2.191414535E-1	7.310314775E-1
1.142317775E1	2.947338112E-2	-2.677038014E-1	7.501204610E-1
1.143158077E1	4.107947648E-2	-3.280249834E-1	7.440119386E-1
1.143998379E1	4.978405312E-2	-3.355078697E-1	7.473716140E-1
1.144838681E1	5.238015205E-2	-2.987042964E-1	7.759287357E-1
1.145678983E1	5.757235363E-2	-2.814478874E-1	7.994463444E-1
1.146519285E1	6.184828654E-2	-2.811424434E-1	8.199097514E-1
1.147359587E1	6.306997687E-2	-2.980934680E-1	8.586985469E-1
1.148199889E1	6.841489673E-2	-3.377985358E-1	9.055810571E-1
1.149040191E1	7.391251624E-2	-3.914003670E-1	9.445225596E-1
1.149880494E1	8.200624585E-2	-4.379774928E-1	1.002247691E0
1.150720796E1	8.215895295E-2	-4.523324072E-1	1.081199646E0
1.151561098E1	7.803573459E-2	-4.408790171E-1	1.156028390E0
1.152401400E1	7.437065244E-2	-4.457657933E-1	1.212379098E0
1.153241702E1	6.917845458E-2	-4.472928941E-1	1.256054640E0
1.154082004E1	6.047387794E-2	-4.575245976E-1	1.320499063E0
1.154922306E1	4.443913698E-2	-5.044071078E-1	1.415333152E0
1.155762608E1	1.832541823E-2	-5.347967744E-1	1.522842169E0
1.156602910E1	2.596100792E-3	-5.276193023E-1	1.625617266E0
1.157443212E1	4.581354558E-3	-5.080721974E-1	1.755880475E0
1.158283514E1	3.344388679E-2	-4.129327536E-1	1.897444248E0
1.159123816E1	8.185353130E-2	-3.147390485E-1	2.015032291E0
1.159964119E1	1.256818175E-1	-4.558447599E-1	2.072146654E0
1.160804421E1	1.195733473E-1	-7.493568659E-1	2.089708567E0
1.161644723E1	7.269082218E-2	-8.567132950E-1	2.139034271E0
1.162485025E1	2.397575416E-2	-7.997517586E-1	2.255248070E0
1.163325327E1	1.389677543E-2	-7.722636461E-1	2.355427027E0
1.164165629E1	3.817795217E-2	-7.698202729E-1	2.361840963E0
1.165005931E1	8.185353130E-2	-7.773031592E-1	2.285179615E0
1.165846233E1	1.276670843E-1	-7.446228266E-1	2.270672083E0
1.166686535E1	1.417165697E-1	-5.453338623E-1	2.328855276E0
1.167526837E1	1.117850468E-1	-2.108950168E-1	2.307017326E0
1.168367139E1	9.407047927E-2	1.951656938E-1	1.894084692E0
1.169207441E1	2.368560284E-1	3.223746419E-1	1.144727707E0
1.170047744E1	3.738385141E-1	1.244601309E-1	6.493306160E-1
1.170888046E1	3.707842827E-1	-1.893626526E-2	4.949389994E-1
1.171728348E1	3.254288733E-1	-1.067455560E-1	6.400152445E-1
1.172568650E1	3.017585576E-1	-2.281514555E-1	9.210049510E-1
1.173408952E1	2.409792393E-1	-2.295258641E-1	1.041494608E0
1.174249254E1	1.663031727E-1	-6.337540597E-2	8.626690507E-1
1.175089556E1	1.061347127E-1	1.829487532E-1	4.685198367E-1
1.175929858E1	4.871506989E-2	4.468347728E-1	3.665083554E-3
1.176770160E1	-1.328592747E-2	6.719319820E-1	-4.156815708E-1
1.177610462E1	-6.337540597E-2	7.905890942E-1	-7.527165413E-1
1.178450764E1	-8.124268800E-2	6.644490957E-1	-1.006370902E0
1.179291066E1	-9.239064902E-2	4.734066129E-1	-1.179087877E0
1.180131368E1	-1.007898003E-1	3.020639718E-1	-1.273005724E0
1.180971671E1	-9.620844573E-2	1.180462316E-1	-1.364174604E0
1.181811973E1	-8.078455180E-2	-5.299099907E-2	-1.523300409E0
1.182652275E1	-7.223268598E-2	-1.705790907E-1	-1.677233815E0
1.183492577E1	-7.498150319E-2	-2.002051920E-1	-1.796501756E0
1.184332879E1	-8.399149776E-2	-1.838650256E-1	-1.908134103E0
1.185173181E1	-8.276980370E-2	-1.649287641E-1	-2.027554750E0
1.186013483E1	-7.895200700E-2	-9.941539168E-2	-2.155527353E0
1.186853785E1	-7.986827940E-2	-2.748812549E-3	-2.277391195E0
1.187694087E1	-8.842013776E-2	1.241547018E-1	-2.403378487E0
1.188534389E1	-9.620844573E-2	2.683146596E-1	-2.523715496E0
1.189374691E1	-9.223793447E-2	4.170559645E-1	-2.638707399E0
1.190214994E1	-7.589777559E-2	5.567872524E-1	-2.761182308E0
1.191055296E1	-4.581354558E-2	6.671979427E-1	-2.884268045E0
1.191895598E1	2.137965523E-3	7.542436719E-1	-2.986890316E0
1.192735900E1	5.986303091E-2	8.402203918E-1	-3.059275866E0
1.193576202E1	1.215586066E-1	9.074136019E-1	-3.111961365E0
1.194416504E1	1.852394342E-1	9.510892034E-1	-3.153040886E0
1.195256806E1	2.490729690E-1	9.703308940E-1	-3.181139708E0
1.196097108E1	3.124483824E-1	9.428427219E-1	-3.184346676E0
1.196937410E1	3.677300513E-1	8.880192041E-1	-3.171213627E0
1.197777712E1	4.089622498E-1	8.121214509E-1	-3.156400442E0
1.198618014E1	4.262186885E-1	7.551599145E-1	-3.151971817E0
1.199458316E1	4.275930822E-1	6.983511448E-1	-3.144489050E0
1.200298619E1	4.193466306E-1	6.467345357E-1	-3.136242628E0
1.201138921E1	4.001049399E-1	6.029062271E-1	-3.107838154E0
1.201979223E1	3.701734245E-1	5.548020005E-1	-3.037896156E0
1.202819525E1	3.361186981E-1	5.163186193E-1	-2.917406559E0
1.203659827E1	3.167243004E-1	4.863871336E-1	-2.825932026E0
1.204500129E1	3.170297146E-1	4.262186885E-1	-2.744689465E0
1.205340431E1	3.081724346E-1	2.829749882E-1	-2.593657494E0
1.206180733E1	2.666348219E-1	1.640124917E-1	-2.418955088E0
1.207021035E1	2.434226274E-1	-1.893626526E-2	-2.179808378E0
1.207861337E1	2.531961799E-1	-2.011214644E-1	-1.855143070E0
1.208701639E1	2.009687424E-1	-3.148917556E-1	-1.523453116E0
1.209541941E1	1.178935245E-1	-4.243861437E-1	-1.206270576E0
1.210382244E1	7.253811508E-2	-5.063923597E-1	-8.805363178E-1
1.211222546E1	2.718270384E-2	-5.143333673E-1	-5.755708218E-1
1.212062848E1	-6.719319522E-2	-4.712686539E-1	-2.547233105E-1
1.212903150E1	-1.620272398E-1	-4.395045936E-1	1.385096163E-1
1.213743452E1	-2.518217862E-1	-4.756973088E-1	6.164975762E-1
1.214583754E1	-3.307738006E-1	-6.487197876E-1	1.293621778E0
1.215424056E1	-3.124483824E-1	-8.796200752E-1	2.157359838E0
1.216264358E1	-2.816005945E-1	-5.667135715E-1	2.606485367E0
1.217104660E1	-4.385883212E-1	5.540384650E-1	2.062067747E0
1.217944962E1	-5.954233408E-1	1.439919710E0	1.008814216E0
1.218785264E1	-6.444438696E-1	1.779703498E0	-1.525591016E-1
1.219625566E1	-5.680879354E-1	1.692810416E0	-9.416210651E-1
1.220465868E1	-3.515425920E-1	1.263384819E0	-1.481304616E-1
1.221306171E1	-2.741177082E-1	7.481352091E-1	1.499477267E0
1.222146473E1	-3.461976945E-1	1.832541823E-1	2.566474676E0
1.222986775E1	-5.216635466E-1	-3.614688516E-1	2.743620396E0
1.223827077E1	-5.508314967E-1	-4.398100376E-1	2.400324345E0
1.224667379E1	-3.188622594E-1	-1.501157135E-1	1.880035162E0
1.225507681E1	-2.043284029E-1	3.784198761E-1	1.315459609E0
1.226347983E1	-3.669664860E-1	9.593356252E-1	6.766660213E-1
1.227188285E1	-4.120164812E-1	9.619317055E-1	2.829749882E-1
1.228028587E1	-3.617742956E-1	7.185090780E-1	2.640387416E-1
1.228868889E1	-3.802524209E-1	5.193728805E-1	4.987567961E-1
1.229709191E1	-4.224008918E-1	3.013004065E-1	8.272398710E-1
1.230549494E1	-4.225535989E-1	-4.734066315E-3	1.114796281E0
1.231389796E1	-4.068242610E-1	-2.092151791E-1	1.232689738E0
1.232230098E1	-3.762819171E-1	-2.608317733E-1	1.191152096E0
1.233070400E1	-3.214583695E-1	-2.437280566E-1	1.028514028E0
1.233910702E1	-2.765611112E-1	-1.543916464E-1	8.009734750E-1
1.234751004E1	-2.330382317E-1	-7.482878864E-3	5.751127005E-1
1.235591306E1	-1.740914732E-1	9.926267713E-2	3.994941115E-1
1.236431608E1	-1.269035190E-1	8.200624585E-2	3.223746419E-1
1.237271910E1	-1.078145429E-1	9.009997360E-3	3.654393852E-1
1.238112212E1	-9.743013978E-2	-7.513421029E-2	4.515688419E-1
1.238952514E1	-9.193251282E-2	-1.563768983E-1	5.086830258E-1
1.239792816E1	-8.032641560E-2	-2.098260373E-1	5.065450668E-1
1.240633118E1	-6.887302548E-2	-2.290677279E-1	4.500417113E-1
1.241473421E1	-7.375980914E-2	-1.925695986E-1	3.805578351E-1
1.242313723E1	-6.841489673E-2	-1.215586066E-1	3.329117596E-1
1.243154025E1	-5.512896553E-2	-1.324011385E-1	2.912214398E-1
1.243994327E1	-4.718795046E-2	-1.663031727E-1	2.771719396E-1
1.244834629E1	-3.634541109E-2	-1.533226669E-1	3.130592108E-1
1.245674931E1	-2.458660305E-2	-1.516428292E-1	3.521534503E-1
1.246515233E1	-1.145338640E-2	-1.511846930E-1	3.717005551E-1
1.247355535E1	-0.000000000E0	-1.478250325E-1	3.845283389E-1
1.248195837E1	7.941014133E-3	-9.697200358E-2	3.846810758E-1
1.249036139E1	1.634016447E-2	-4.260659590E-2	3.756710589E-1
1.249876441E1	2.657185495E-2	-2.046338283E-2	3.726168275E-1
1.250716744E1	3.420744836E-2	-3.802524135E-2	3.758237660E-1
1.251557046E1	4.001049697E-2	-6.077930331E-2	3.793361485E-1
1.252397348E1	4.688252881E-2	-7.177454978E-2	3.880407214E-1
1.253237650E1	4.764608666E-2	-8.643488586E-2	4.115583301E-1
1.254077952E1	4.856235534E-2	-9.498675168E-2	4.390464723E-1
1.254918254E1	4.917320609E-2	-9.437590092E-2	4.680617154E-1
1.255758556E1	5.161659420E-2	-9.483403713E-2	5.013529062E-1
1.256598858E1	5.024218559E-2	-9.483403713E-2	5.318952799E-1
1.257439160E1	5.192201585E-2	-9.620844573E-2	5.613686442E-1
1.258279462E1	5.085303262E-2	-1.081199646E-1	5.978667736E-1
1.259119764E1	4.947862774E-2	-1.181989461E-1	6.441384554E-1
1.259960066E1	4.428642616E-2	-1.301104724E-1	6.963658929E-1
1.260800368E1	4.092676565E-2	-1.571404636E-1	7.499676943E-1
1.261640671E1	3.665083647E-2	-1.968455315E-1	8.034168482E-1
1.262480973E1	3.451287001E-2	-2.391466945E-1	8.466343284E-1
1.263321275E1	3.939964995E-2	-2.606790662E-1	8.715263009E-1
1.264161577E1	4.275930673E-2	-2.724378705E-1	8.967237473E-1
1.265001879E1	4.382828996E-2	-2.867927849E-1	9.394831061E-1
1.265842181E1	4.703523964E-2	-2.941229641E-1	9.881981611E-1
1.266682483E1	4.795150831E-2	-2.822114229E-1	1.029888511E0
1.267522785E1	4.428642616E-2	-2.527380586E-1	1.067608237E0
1.268363087E1	4.672981426E-2	-2.330382317E-1	1.114948988E0
1.269203389E1	4.092676565E-2	-2.422009408E-1	1.155112147E0
1.270043691E1	3.649812192E-2	-2.849602401E-1	1.169619799E0
1.270883994E1	3.283303976E-2	-3.602471650E-1	1.184127450E0
1.271724296E1	3.191677108E-2	-4.472928941E-1	1.209782958E0
1.272564598E1	1.572931744E-2	-5.366293192E-1	1.285833478E0
1.273404900E1	1.114796288E-2	-5.735855699E-1	1.426328301E0
1.274245202E1	5.024218559E-2	-4.372139275E-1	1.558118701E0
1.275085504E1	1.101052165E-1	-3.946073353E-1	1.642110109E0
1.275925806E1	1.114796251E-1	-6.026008129E-1	1.701056957E0
1.276766108E1	4.963133857E-2	-7.533273697E-1	1.755727768E0
1.277606410E1	-1.374406368E-2	-6.369609833E-1	1.902178407E0
1.278446712E1	-5.635065958E-2	-4.225535989E-1	2.083447218E0
1.279287014E1	-7.131642103E-2	-2.878617644E-1	2.148349762E0
1.280127316E1	-5.711421743E-2	-2.728960216E-1	2.163162947E0
1.280967618E1	-4.550812021E-2	-1.962346882E-1	2.241962194E0
1.281807921E1	-5.635065958E-2	-1.053711493E-2	2.386580229E0
1.282648223E1	-7.452336699E-2	2.860292196E-1	2.411472321E0
1.283488525E1	-3.405473381E-2	5.615213513E-1	1.983879209E0
1.284328827E1	1.009425074E-1	4.682144225E-1	1.348139882E0
1.285169129E1	1.675248593E-1	2.677038014E-1	9.266552925E-1
1.286009431E1	1.447708011E-1	1.716480851E-1	8.425110579E-1
1.286849733E1	1.302631795E-1	1.252236813E-1	9.533798695E-1
1.287690035E1	1.478250325E-1	-2.916795574E-2	1.053100705E0
1.288530337E1	1.455343664E-1	-1.475196183E-1	1.028972149E0
1.289370639E1	1.197260618E-1	-6.933116168E-2	8.327375054E-1
1.290210941E1	1.023169160E-1	1.394258887E-1	4.468347728E-1
1.291051244E1	7.482878864E-2	3.950654566E-1	-7.192726433E-2
1.291891546E1	4.734066129E-2	5.511369109E-1	-4.772244096E-1
1.292731848E1	4.840964451E-2	6.213843822E-1	-7.262973785E-1
1.293572150E1	6.398624927E-2	5.752654076E-1	-9.576557875E-1
1.294412452E1	8.414421231E-2	4.158342779E-1	-1.166718245E0
1.295252754E1	1.052184403E-1	2.568612695E-1	-1.361120462E0
1.296093056E1	1.336228400E-1	1.047603041E-1	-1.535822749E0
1.296933358E1	1.594311297E-1	-7.788302377E-3	-1.710219622E0
1.297773660E1	1.823379099E-1	-8.093725890E-2	-1.888739705E0
1.298613962E1	2.096733153E-1	-1.643179059E-1	-2.054737568E0
1.299454264E1	2.374668717E-1	-2.342599183E-1	-2.211572409E0
1.300294566E1	2.629697323E-1	-3.014531136E-1	-2.343057394E0
1.301134869E1	2.918322682E-1	-3.565820754E-1	-2.462325335E0
1.301975171E1	3.153499067E-1	-3.724641204E-1	-2.566627502E0
1.302815473E1	3.293993771E-1	-3.744493723E-1	-2.669097185E0
1.303655775E1	3.318427801E-1	-3.429907262E-1	-2.779202223E0
1.304496077E1	3.332171738E-1	-2.780882120E-1	-2.875563383E0
1.305336379E1	3.377985358E-1	-1.904316396E-1	-2.950545073E0
1.306176681E1	3.474193811E-1	-8.307522535E-2	-3.000481844E0
1.307016983E1	3.607053161E-1	3.695625812E-2	-3.033925533E0
1.307857285E1	3.817795515E-1	1.821851879E-1	-3.067064047E0
1.308697587E1	4.066715539E-1	3.162661791E-1	-3.084931374E0
1.309537889E1	4.303418994E-1	4.176668227E-1	-3.086153030E0
1.310378191E1	4.482091665E-1	5.141806602E-1	-3.093330622E0
1.311218494E1	4.537068009E-1	5.974085927E-1	-3.112114191E0
1.312058796E1	4.521796703E-1	6.433748603E-1	-3.135784388E0
1.312899098E1	4.486673176E-1	6.082511544E-1	-3.138533115E0
1.313739400E1	4.355340898E-1	5.312843919E-1	-3.106616497E0
1.314579702E1	4.202629030E-1	4.482091665E-1	-3.043546438E0
1.315420004E1	4.013266563E-1	3.585673273E-1	-2.972229958E0
1.316260306E1	3.752129376E-1	2.241809368E-1	-2.903357029E0
1.317100608E1	3.451287150E-1	3.405473381E-2	-2.819060087E0
1.317940910E1	3.078670204E-1	-1.794363856E-1	-2.693072796E0
1.318781212E1	2.423536479E-1	-3.607053161E-1	-2.522493839E0
1.319621514E1	1.644706279E-1	-5.277720094E-1	-2.318776131E0
1.320461816E1	1.325538605E-1	-6.664343476E-1	-2.129413605E0
1.321302118E1	8.948912472E-2	-7.156075835E-1	-1.983726501E0
1.322142421E1	4.153761268E-2	-7.692093849E-1	-1.815743446E0
1.322982723E1	2.565558441E-2	-8.110524416E-1	-1.634932637E0
1.323823025E1	3.970507067E-3	-7.487460375E-1	-1.378071427E0
1.324663327E1	-4.275931045E-3	-6.644490957E-1	-1.054627776E0
1.325503629E1	-2.825168520E-2	-5.554128885E-1	-8.034168482E-1
1.326343931E1	-8.154810965E-2	-5.328115225E-1	-6.516213417E-1
1.327184233E1	-1.111742035E-1	-5.111264586E-1	-4.708105326E-1
1.328024535E1	-1.009425074E-1	-3.465031087E-1	-1.947075576E-1
1.328864837E1	-1.067455560E-1	-1.404948682E-1	7.116370648E-2
1.329705139E1	-1.302631795E-1	-4.886778072E-3	3.280249834E-1
1.330545441E1	-1.611109674E-1	1.433963925E-1	5.842754245E-1
1.331385744E1	-1.659977436E-1	3.657447994E-1	8.816053271E-1
1.332226046E1	-1.656923145E-1	7.009472251E-1	1.281404853E0
1.333066348E1	-2.631224692E-1	1.057987452E0	1.727476001E0
1.333906650E1	-5.042544007E-1	1.480235577E0	1.841704488E0
1.334746952E1	-8.382351398E-1	1.986628056E0	1.194359064E0
1.335587254E1	-8.638907075E-1	2.015490532E0	1.027750522E-1
1.336427556E1	-5.227325559E-1	1.367381573E0	-6.503996253E-1
1.337267858E1	-2.672456764E-2	6.781931520E-1	2.748812549E-3
1.338108160E1	4.352286831E-2	5.885513425E-1	1.579040170E0
1.338948462E1	-2.174616307E-1	2.243336588E-1	2.573194027E0
1.339788764E1	-4.479037523E-1	-3.216110766E-1	2.633973360E0
1.340629066E1	-6.038225293E-1	-5.964923501E-1	2.189582109E0
1.341469369E1	-5.044071078E-1	-3.709369898E-1	1.729003191E0
1.342309671E1	-2.906105816E-1	1.046075895E-1	1.273463845E0
1.343149973E1	-2.695363462E-1	5.993938446E-1	6.746807694E-1
1.343990275E1	-3.698680103E-1	6.881194115E-1	2.133384049E-1
1.344830577E1	-3.523061574E-1	5.315898061E-1	2.602209449E-1
1.345670879E1	-3.014531136E-1	3.561239541E-1	5.806103349E-1
1.346511181E1	-3.558185399E-1	1.151447073E-1	8.419002295E-1
1.347351483E1	-4.017847776E-1	-1.485885978E-1	9.290986657E-1
1.348191785E1	-3.518480062E-1	-2.994678617E-1	9.303203821E-1
1.349032087E1	-2.819060087E-1	-2.730487287E-1	8.608365059E-1
1.349872389E1	-2.567085624E-1	-1.146865711E-1	7.091936469E-1
1.350712691E1	-2.298312783E-1	1.954711229E-2	5.581616759E-1
1.351552994E1	-1.776038408E-1	7.895200700E-2	4.656183124E-1
1.352393296E1	-1.178935245E-1	9.972081333E-2	4.245388508E-1
1.353233598E1	-1.076618284E-1	8.322793990E-2	4.556920528E-1
1.354073900E1	-1.218640283E-1	4.657710344E-2	5.488462448E-1
1.354914202E1	-1.310267299E-1	1.679830020E-3	6.291726828E-1
1.355754504E1	-1.262926757E-1	-3.268032894E-2	6.386408210E-1
1.356594806E1	-1.134648770E-1	-4.611896724E-2	5.896202922E-1
1.357435108E1	-1.043021679E-1	-3.344388679E-2	5.354076028E-1
1.358275410E1	-1.041494608E-1	7.635590620E-3	5.070032477E-1
1.359115712E1	-9.651386738E-2	9.773556143E-3	4.926483035E-1
1.359956014E1	-1.041494608E-1	-1.817270555E-2	4.921901822E-1
1.360796316E1	-1.036913246E-1	-6.429167092E-2	5.231906772E-1
1.361636618E1	-9.987352788E-2	-1.327065676E-1	5.445703268E-1
1.362476921E1	-9.177979827E-2	-1.792836636E-1	5.610632300E-1
1.363317223E1	-7.849387079E-2	-1.779092699E-1	5.763344169E-1
1.364157525E1	-6.398624927E-2	-1.473668963E-1	5.877877474E-1
1.364997827E1	-5.390727147E-2	-1.229330078E-1	5.963396430E-1
1.365838129E1	-4.169032723E-2	-1.062874198E-1	6.116108298E-1
1.366678431E1	-3.542914242E-2	-1.038440317E-1	6.371136904E-1
1.367518733E1	-2.977880463E-2	-1.548497826E-1	6.707102656E-1
1.368359035E1	-2.076880634E-2	-2.188360244E-1	7.076665759E-1
1.369199337E1	-2.092151903E-2	-2.438807636E-1	7.469134927E-1
1.370039639E1	-2.229592577E-2	-2.522799075E-1	7.731798887E-1
1.370879941E1	-2.321219631E-2	-2.597627938E-1	7.635591030E-1
1.371720244E1	-1.801999472E-2	-2.602209449E-1	7.401941419E-1
1.372560546E1	-1.847812906E-2	-2.258607745E-1	7.206470370E-1
1.373400848E1	-1.389677543E-2	-1.681357026E-1	7.111788988E-1
1.374241150E1	-8.704573847E-3	-1.110214889E-1	7.137750387E-1
1.375081452E1	-1.282779220E-2	-6.368082762E-2	7.334748507E-1
1.375921754E1	-1.374406368E-2	-3.008422814E-2	7.576032877E-1
1.376762056E1	-6.413896102E-3	-2.535016090E-2	7.757760286E-1
1.377602358E1	1.068982761E-3	-4.627167806E-2	8.075400591E-1
1.378442660E1	-5.955760833E-3	-5.253286287E-2	8.301414251E-1
1.379282962E1	-5.192201585E-3	-3.252761811E-2	8.411366940E-1
1.380123264E1	-4.123218823E-3	-2.901524492E-2	8.652651310E-1
1.380963566E1	-8.857285604E-3	-4.352286831E-2	8.926005363E-1
1.381803869E1	-1.343864016E-2	-9.086353332E-2	9.141329527E-1
1.382644171E1	-2.321219631E-2	-1.630962193E-1	9.405520558E-1
1.383484473E1	-4.214845970E-2	-2.597627938E-1	1.019198656E0
1.384324775E1	-6.184828654E-2	-3.113794029E-1	1.110214949E0
1.385165077E1	-7.360709459E-2	-3.191677034E-1	1.189625025E0
1.386005379E1	-8.261708915E-2	-3.069507480E-1	1.266286373E0
1.386845681E1	-8.032641560E-2	-2.625116110E-1	1.338671803E0
1.387685983E1	-5.909947306E-2	-1.756185889E-1	1.414264083E0
1.388526285E1	-2.061609551E-2	-1.200314835E-1	1.518413544E0
1.389366587E1	8.246437646E-3	-2.090624720E-1	1.636459827E0
1.390206889E1	-3.649812192E-2	-3.513898849E-1	1.724116445E0
1.391047191E1	-1.249182671E-1	-3.982724249E-1	1.805969954E0
1.391887494E1	-1.933331639E-1	-3.199312389E-1	1.927070379E0
1.392727796E1	-2.304421216E-1	-2.183778882E-1	2.061304092E0
1.393568098E1	-2.391466945E-1	-1.331647038E-1	2.125137568E0
1.394408400E1	-2.232646793E-1	-8.674030751E-2	2.154458284E0
1.395248702E1	-1.982199401E-1	3.970507067E-3	2.216917515E0
1.396089004E1	-1.925695986E-1	1.432436854E-1	2.319081545E0
1.396929306E1	-1.123958975E-1	1.514901221E-1	2.506764412E0
1.397769608E1	-5.879404768E-2	3.075616062E-1	2.395284891E0
1.398609910E1	-4.046862945E-2	5.372401476E-1	1.744885206E0
1.399450212E1	4.902049154E-2	3.819322586E-1	1.101662993E0
1.400290514E1	1.426328421E-1	7.635590434E-2	8.599202037E-1
1.401130816E1	1.595838517E-1	-1.201841980E-1	1.001484036E0
1.401971118E1	1.065928489E-1	-2.648022771E-1	1.249182701E0
1.402811421E1	5.405998230E-2	-4.385883212E-1	1.408461094E0
1.403651723E1	5.375456065E-2	-5.256340504E-1	1.341725945E0
1.404492025E1	7.406523079E-2	-4.069769979E-1	1.014464617E0
1.405332327E1	3.191677108E-2	-1.627907902E-1	6.574243903E-1
1.406172629E1	-3.206948191E-2	1.327065676E-1	2.660239935E-1
1.407012931E1	-4.352286831E-2	2.832804024E-1	-2.093679011E-1
1.407853233E1	-1.908897609E-2	3.067980409E-1	-5.908420086E-1
1.408693535E1	1.099525020E-2	2.017323077E-1	-8.055548072E-1
1.409533837E1	2.672456764E-2	6.139015034E-2	-9.164236188E-1
1.410374139E1	3.527642787E-2	-3.848337755E-2	-9.987352490E-1
1.411214441E1	6.597150117E-2	-1.566823274E-1	-1.146254897E0
1.412054744E1	1.072036922E-1	-3.054236174E-1	-1.357760787E0
1.412895046E1	1.314848661E-1	-4.246915579E-1	-1.571862698E0
1.413735348E1	1.406475753E-1	-4.944808483E-1	-1.757560253E0
1.414575650E1	1.543916464E-1	-5.699204803E-1	-1.906759739E0
1.415415952E1	1.705790907E-1	-6.325323582E-1	-2.030456305E0
1.416256254E1	1.867665499E-1	-6.826218367E-1	-2.138728857E0
1.417096556E1	2.015796006E-1	-7.055285573E-1	-2.247001648E0
1.417936858E1	2.119639963E-1	-6.844543815E-1	-2.367338657E0
1.418777160E1	2.112004459E-1	-6.193991303E-1	-2.502488613E0
1.419617462E1	2.055501044E-1	-5.251759291E-1	-2.630919218E0
1.420457764E1	2.173089087E-1	-4.233171642E-1	-2.731556177E0
1.421298066E1	2.403683960E-1	-2.987042964E-1	-2.814173222E0
1.422138369E1	2.689255178E-1	-1.539335102E-1	-2.880755663E0
1.422978671E1	3.008422852E-1	8.399149403E-3	-2.926721811E0
1.423818973E1	3.407000601E-1	1.760767251E-1	-2.948865175E0
1.424659275E1	3.868190348E-1	3.348970115E-1	-2.958333254E0
1.425499577E1	4.382829070E-1	4.590517282E-1	-2.968717575E0
1.426339879E1	4.799732268E-1	5.537330508E-1	-2.985363245E0
1.427180181E1	5.056288242E-1	6.155813336E-1	-2.997732878E0
1.428020483E1	5.079194903E-1	6.239804626E-1	-2.984599590E0
1.428860785E1	4.949389994E-1	5.613686442E-1	-2.961998463E0
1.429701087E1	4.781406820E-1	4.469874799E-1	-2.926874638E0
1.430541389E1	4.596625566E-1	3.126010895E-1	-2.853878498E0
1.431381691E1	4.408790171E-1	2.105895877E-1	-2.778133392E0
1.432221994E1	4.227063060E-1	1.159082651E-1	-2.719491959E0
1.433062296E1	4.023956358E-1	9.773556143E-3	-2.655505657E0
1.433902598E1	3.759764731E-1	-9.880454093E-2	-2.574568510E0
1.434742900E1	3.353551328E-1	-2.043284029E-1	-2.457896709E0
1.435583202E1	2.797680497E-1	-3.101576865E-1	-2.307322741E0
1.436423504E1	2.124221325E-1	-4.028537571E-1	-2.135369301E0
1.437263806E1	1.598892659E-1	-4.472928941E-1	-1.976396322E0
1.438104108E1	1.322484314E-1	-4.909684956E-1	-1.849034667E0
1.438944410E1	1.201841980E-1	-5.636593103E-1	-1.734653473E0
1.439784712E1	1.099525094E-1	-6.707102656E-1	-1.602557778E0
1.440625014E1	8.750387281E-2	-8.105943203E-1	-1.422357798E0
1.441465316E1	4.260659590E-2	-9.179506898E-1	-1.216807723E0
1.442305618E1	-1.832541777E-3	-1.004843712E0	-1.000262380E0
1.443145921E1	-1.695101149E-2	-1.098150611E0	-7.766922712E-1
1.443986223E1	-2.993151546E-2	-1.163816690E0	-5.683933496E-1
1.444826525E1	-5.299099907E-2	-1.090973258E0	-3.483356535E-1
1.445666827E1	-7.986827940E-2	-9.573503733E-1	-1.180462316E-1
1.446507129E1	-9.788827598E-2	-8.896990418E-1	6.734590977E-2
1.447347431E1	-1.185043678E-1	-8.486195803E-1	2.130329758E-1
1.448187733E1	-1.412584335E-1	-7.748597264E-1	3.915531039E-1
1.449028035E1	-1.368297935E-1	-5.784723759E-1	5.978667736E-1
1.449868337E1	-1.470614821E-1	-3.584146202E-1	7.869240046E-1
1.450708639E1	-1.585148573E-1	-1.801999360E-1	9.776610136E-1
1.451548941E1	-1.356080920E-1	8.842013776E-2	1.135259628E0
1.452389244E1	-1.553079188E-1	4.014793634E-1	1.212226391E0
1.453229546E1	-2.525853515E-1	8.241856694E-1	9.933903813E-1
1.454069848E1	-3.979669809E-1	1.338824511E0	2.884726226E-1
1.454910150E1	-7.586722970E-1	1.675859451E0	-7.973083854E-1
1.455750452E1	-1.105175376E0	1.744427085E0	-1.526507258E0
1.456590754E1	-1.162289619E0	1.610193372E0	-7.675296068E-1
1.457431056E1	-7.901309133E-1	1.026528835E0	1.190541267E0
1.458271358E1	-1.956238300E-1	1.559187621E-1	2.773246527E0
1.459111660E1	2.272351831E-1	-4.245388508E-1	3.370349646E0
1.459951962E1	2.396048307E-1	-3.466558158E-1	2.931303263E0
1.460792264E1	-2.151709497E-1	7.727217674E-2	1.842468023E0
1.461632566E1	-7.982246280E-1	4.466820657E-1	9.498674870E-1
1.462472869E1	-9.127585292E-1	8.197570443E-1	6.345176101E-1
1.463313171E1	-5.506787896E-1	1.109604001E0	6.862868667E-1
1.464153473E1	-8.765657991E-2	1.175881028E0	7.721109390E-1
1.464993775E1	7.299624383E-2	1.071884274E0	8.376243114E-1
1.465834077E1	-1.275143623E-1	7.627955079E-1	1.091584086E0
1.466674379E1	-4.636330605E-1	3.825430870E-1	1.423426867E0
1.467514681E1	-5.471664071E-1	8.948912472E-2	1.561020136E0
1.468354983E1	-3.561239541E-1	-6.536065787E-2	1.399756551E0
1.469195285E1	-1.805053651E-1	-3.710897267E-2	1.085475564E0
1.470035587E1	-1.725643575E-1	2.327328026E-1	8.438854814E-1
1.470875889E1	-2.192941606E-1	4.957025647E-1	7.689039707E-1
1.471716191E1	-2.012741715E-1	5.488462448E-1	7.496622801E-1
1.472556494E1	-1.601946950E-1	4.425588250E-1	7.110261917E-1
1.473396796E1	-1.374406368E-1	3.663556576E-1	6.998782754E-1
1.474237098E1	-1.388150454E-1	2.942756712E-1	7.779139876E-1
1.475077400E1	-1.421747059E-1	2.066190839E-1	8.674030900E-1
1.475917702E1	-1.605001241E-1	1.400367320E-1	9.110786915E-1
1.476758004E1	-1.685938388E-1	1.061347127E-1	8.747332692E-1
1.477598306E1	-1.502684206E-1	1.127013192E-1	7.936432958E-1
1.478438608E1	-1.267508119E-1	1.574458778E-1	7.310314775E-1
1.479278910E1	-1.220167428E-1	1.762294322E-1	6.835380793E-1
1.480119212E1	-1.204896197E-1	1.276670843E-1	6.277982593E-1
1.480959514E1	-1.032331884E-1	7.574506104E-2	6.018372774E-1
1.481799816E1	-8.567132801E-2	3.665083647E-2	6.255075932E-1
1.482640119E1	-7.299624383E-2	-1.206423342E-2	6.523848772E-1
1.483480421E1	-6.383354217E-2	-7.299624383E-2	6.583406329E-1
1.484320723E1	-4.398100078E-2	-1.035386100E-1	6.591041684E-1
1.485161025E1	-2.336490713E-2	-9.880454093E-2	6.647545099E-1
1.486001327E1	-2.046338283E-2	-1.029277667E-1	6.665870547E-1
1.486841629E1	-2.153236605E-2	-1.055238619E-1	6.626165509E-1
1.487681931E1	-1.695101149E-2	-8.490777016E-2	6.676560640E-1
1.488522233E1	-1.924168877E-2	-6.917845458E-2	6.646018028E-1
1.489362535E1	-1.725643501E-2	-7.620319724E-2	6.505523324E-1
1.490202837E1	-7.177455351E-3	-9.956810623E-2	6.514685750E-1
1.491043139E1	1.985253533E-3	-1.218640283E-1	6.603258848E-1
1.491883441E1	1.175880991E-2	-1.499630064E-1	6.620057225E-1
1.492723744E1	1.985253580E-2	-1.815743446E-1	6.633801460E-1
1.493564046E1	2.977880463E-2	-2.058555335E-1	6.791094542E-1
1.494404348E1	2.840439789E-2	-2.183778882E-1	7.108734846E-1
1.495244650E1	2.779355086E-2	-2.119639963E-1	7.542436719E-1
1.496084952E1	3.298575059E-2	-1.873773932E-1	8.060129285E-1
1.496925254E1	3.634541109E-2	-1.756185889E-1	8.619054556E-1
1.497765556E1	4.428642616E-2	-1.847812980E-1	9.255862832E-1
1.498605858E1	4.062134400E-2	-1.976090819E-1	9.877400398E-1
1.499446160E1	3.451287001E-2	-1.806580722E-1	1.032179117E0
1.500286462E1	1.527118124E-2	-1.890572309E-1	1.109756708E0
1.501126764E1	-1.985253533E-3	-2.276933193E-1	1.192068458E0
1.501967066E1	-1.389677543E-2	-3.042019308E-1	1.272853017E0
1.502807368E1	-3.970507160E-2	-4.008685052E-1	1.367992401E0
1.503647671E1	-8.338065445E-2	-4.430169761E-1	1.473210931E0
1.504487973E1	-1.275143623E-1	-4.537068009E-1	1.594464064E0
1.505328275E1	-1.640124917E-1	-4.292729199E-1	1.729919434E0
1.506168577E1	-2.049392611E-1	-3.930802047E-1	1.891641259E0
1.507008879E1	-2.640387416E-1	-3.510844707E-1	2.080851078E0
1.507849181E1	-2.276933193E-1	-1.276670843E-1	2.216001034E0
1.508689483E1	-1.024696305E-1	1.276670843E-1	2.252193928E0
1.509529785E1	-1.466033421E-2	2.199050039E-2	2.121625185E0
1.510370087E1	-3.909422457E-2	-4.074351192E-1	1.888892412E0
1.511210389E1	-1.174353883E-1	-7.672241330E-1	1.817423344E0
1.512050691E1	-1.716480851E-1	-8.379297256E-1	1.947381020E0
1.512890994E1	-1.956238300E-1	-7.771504521E-1	2.175837994E0
1.513731296E1	-1.794363856E-1	-7.456917763E-1	2.332978487E0
1.514571598E1	-1.235438585E-1	-7.090409398E-1	2.390703440E0
1.515411900E1	-1.282779220E-2	-6.317687631E-1	2.542651653E0
1.516252202E1	6.413896102E-3	-4.978405312E-2	2.317249060E0
1.517092504E1	5.207473040E-2	4.112529159E-1	1.510014415E0
1.517932806E1	2.284568697E-1	2.255553454E-1	5.913001299E-1
1.518773108E1	4.483618736E-1	-3.200839758E-1	1.601946950E-1
1.519613410E1	5.728220344E-1	-6.035171151E-1	3.733803928E-1
1.520453712E1	5.099047422E-1	-4.143071473E-1	8.762603998E-1
1.521294014E1	3.721587062E-1	-1.058292910E-1	1.270104170E0
1.522134316E1	3.623851240E-1	1.644706279E-1	1.269340634E0
1.522974619E1	3.979669809E-1	5.890094638E-1	9.017632604E-1
1.523814921E1	4.030064642E-1	1.140757203E0	2.948864996E-1
1.524655223E1	3.752129376E-1	1.663031697E0	-3.574983478E-1
1.525495525E1	3.463504016E-1	1.966775417E0	-8.947384953E-1
1.526335827E1	3.338280320E-1	2.037481070E0	-1.249793530E0
1.527176129E1	3.356605768E-1	1.945548534E0	-1.416860223E0
1.528016431E1	3.292466700E-1	1.711746693E0	-1.468934894E0
1.528856733E1	3.336753249E-1	1.368450522E0	-1.508945465E0
1.529697035E1	3.552076817E-1	9.938485026E-1	-1.594769478E0
1.530537337E1	3.753656447E-1	6.429167390E-1	-1.711135864E0
1.531377639E1	3.897205591E-1	3.483356535E-1	-1.835290551E0
1.532217941E1	4.083513916E-1	1.145338640E-1	-1.964179397E0
1.533058244E1	4.384356141E-1	-9.849911928E-2	-2.098871231E0
1.533898546E1	4.544703662E-1	-2.786990702E-1	-2.230814219E0
1.534738848E1	4.532486796E-1	-3.900259733E-1	-2.339392185E0
1.535579150E1	4.422534108E-1	-4.581354558E-1	-2.427201509E0
1.536419452E1	4.291202128E-1	-4.775298536E-1	-2.516996145E0
1.537259754E1	4.170559645E-1	-4.527905285E-1	-2.622825384E0
1.538100056E1	4.071297050E-1	-3.877353072E-1	-2.747743607E0
1.538940358E1	3.987305462E-1	-2.841966748E-1	-2.875868797E0
1.539780660E1	3.930802047E-1	-1.443126649E-1	-2.985210657E0
1.540620962E1	4.019374847E-1	3.665083554E-3	-3.065689564E0
1.541461264E1	4.237752855E-1	1.333174109E-1	-3.124178410E0
1.542301566E1	4.433223903E-1	2.359397560E-1	-3.165410519E0
1.543141868E1	4.500417113E-1	2.857238054E-1	-3.208933353E0
1.543982171E1	4.602734149E-1	2.728960216E-1	-3.247111320E0
1.544822473E1	4.827220440E-1	2.043284029E-1	-3.259480953E0
1.545662775E1	5.131117105E-1	8.750387281E-2	-3.228327751E0
1.546503077E1	5.248705149E-1	-6.169557199E-2	-3.170908213E0
1.547343379E1	5.016583204E-1	-2.460187376E-1	-3.118069887E0
1.548183681E1	4.611896873E-1	-4.747810364E-1	-3.074241638E0
1.549023983E1	4.185830951E-1	-7.125533223E-1	-3.022166729E0
1.549864285E1	3.883461356E-1	-9.309312105E-1	-2.947490692E0
1.550704587E1	3.588727713E-1	-1.117392302E0	-2.845173836E0
1.551544889E1	3.168770075E-1	-1.257887244E0	-2.700555801E0
1.552385191E1	2.728960216E-1	-1.323706031E0	-2.501724958E0
1.553225494E1	2.415900975E-1	-1.329509020E0	-2.300297976E0
1.554065796E1	2.079934925E-1	-1.306449533E0	-2.133842230E0
1.554906098E1	1.557660550E-1	-1.270104170E0	-1.975174665E0
1.555746400E1	1.082726792E-1	-1.195733547E0	-1.799861431E0
1.556586702E1	7.910472155E-2	-1.077076435E0	-1.623479247E0
1.557427004E1	5.696150661E-2	-9.970554113E-1	-1.439919710E0
1.558267306E1	5.161659420E-2	-9.897252917E-1	-1.218182087E0
1.559107608E1	3.817795217E-2	-9.923213720E-1	-1.020267606E0
1.559947910E1	2.137965336E-2	-1.015075445E0	-8.138012886E-1
1.560788212E1	2.596100792E-3	-1.031568289E0	-5.763344169E-1
1.561628514E1	-1.511846948E-2	-9.973608851E-1	-3.330644667E-1
1.562468816E1	-2.626643144E-2	-9.617789984E-1	-9.407047927E-2
1.563309119E1	-5.421269313E-2	-9.077190161E-1	1.444653720E-1
1.564149421E1	-7.605048269E-2	-7.469134927E-1	4.369085133E-1
1.564989723E1	-7.177454978E-2	-5.650337338E-1	7.177455425E-1
1.565830025E1	-8.658760041E-2	-4.259132445E-1	9.019159675E-1
1.566670327E1	-1.953184158E-1	-4.133908749E-1	1.130525589E0
1.567510629E1	-3.605526090E-1	-2.571666837E-1	1.266133666E0
1.568350931E1	-7.203416228E-1	2.429644912E-1	8.014315963E-1
1.569191233E1	-1.082726717E0	8.054021001E-1	-4.978405312E-2
1.570031535E1	-1.041494608E0	1.233911514E0	-4.350759685E-1
1.570871837E1	-4.475983381E-1	1.264606595E0	5.267030597E-1
1.571712139E1	9.804098308E-2	8.785510659E-1	1.849645495E0
1.572552441E1	1.357607991E-1	3.101576865E-1	2.478665352E0
1.573392744E1	-1.840177327E-1	-8.261708915E-2	2.436364174E0
1.574233046E1	-5.813738704E-1	-9.620844573E-2	1.928902984E0
1.575073348E1	-8.302941322E-1	2.525853515E-1	1.259719729E0
1.575913650E1	-6.804838181E-1	5.595360994E-1	8.829796910E-1
1.576753952E1	-2.945810854E-1	7.444701195E-1	6.650599241E-1
1.577594254E1	-7.360709459E-2	7.178982496E-1	4.714213610E-1
1.578434556E1	-1.334701329E-1	5.173876286E-1	4.859289825E-1
1.579274858E1	-3.675773442E-1	3.248180151E-1	8.716790676E-1
1.580115160E1	-5.418215394E-1	2.338017821E-1	1.263690233E0
1.580955462E1	-5.581616759E-1	1.351499557E-1	1.344627500E0
1.581795764E1	-4.359922409E-1	9.849911928E-2	1.108076930E0
1.582636066E1	-2.973299026E-1	1.812689304E-1	8.055548072E-1
1.583476368E1	-2.098260373E-1	3.286358118E-1	6.064186096E-1
1.584316671E1	-1.827960461E-1	3.872771561E-1	5.390726924E-1
1.585156973E1	-1.803526580E-1	3.092414141E-1	5.615213513E-1
1.585997275E1	-1.713426560E-1	2.000524700E-1	6.256603003E-1
1.586837577E1	-1.743968874E-1	1.246128380E-1	6.829272509E-1
1.587677879E1	-1.798945218E-1	7.864658535E-2	6.981984377E-1
1.588518181E1	-1.772984117E-1	5.879404768E-2	6.876612902E-1
1.589358483E1	-1.692046970E-1	5.039490014E-2	6.316160560E-1
1.590198785E1	-1.507265568E-1	4.474456236E-2	5.541911721E-1
1.591039087E1	-1.415638477E-1	1.969982497E-2	5.015056133E-1
1.591879389E1	-1.369825006E-1	-1.832541777E-3	4.769189954E-1
1.592719691E1	-1.259872466E-1	-4.504998401E-2	4.588989913E-1
1.593559994E1	-1.137702987E-1	-1.214058921E-1	4.546230733E-1
1.594400296E1	-1.088835225E-1	-1.852394342E-1	4.854708612E-1
1.595240598E1	-1.044548824E-1	-2.309002578E-1	5.392253995E-1
1.596080900E1	-1.007898003E-1	-2.246390730E-1	5.897729993E-1
1.596921202E1	-1.090362370E-1	-1.605001241E-1	6.169557571E-1
1.597761504E1	-1.072036922E-1	-1.264453828E-1	6.365028620E-1
1.598601806E1	-9.208522737E-2	-1.224748790E-1	6.430694461E-1
1.599442108E1	-8.338065445E-2	-1.317902952E-1	6.259657145E-1
1.600282410E1	-8.017370105E-2	-1.466033459E-1	6.277982593E-1
1.601122712E1	-6.948387623E-2	-1.458397806E-1	6.644490957E-1
1.601963014E1	-6.704048812E-2	-1.172826737E-1	7.030851841E-1
1.602803316E1	-8.185353130E-2	-6.749862432E-2	7.302678823E-1
1.603643618E1	-7.818844914E-2	-3.466558084E-2	7.624900937E-1
1.604483921E1	-5.757235363E-2	-2.794626169E-2	7.812736630E-1
1.605324223E1	-5.528167635E-2	-1.130067464E-2	7.976137996E-1
1.606164525E1	-5.589252338E-2	6.719320081E-3	8.405258060E-1
1.607004827E1	-5.528167635E-2	-1.908897609E-2	8.713735938E-1
1.607845129E1	-5.482354015E-2	-8.597674966E-2	8.790091872E-1
1.608685431E1	-6.215370819E-2	-1.276670843E-1	8.817580342E-1
1.609525733E1	-6.887302548E-2	-1.073564067E-1	8.754968047E-1
1.610366035E1	-6.704048812E-2	-6.948387623E-2	8.608365059E-1
1.611206337E1	-6.826218218E-2	-5.070032179E-2	8.432746530E-1
1.612046639E1	-6.062658876E-2	-7.070557028E-2	8.402203918E-1
1.612886941E1	-5.421269313E-2	-9.636115283E-2	8.469397426E-1
1.613727244E1	-4.459185153E-2	-1.104106456E-1	8.617527485E-1
1.614567546E1	-3.176405653E-2	-1.218640283E-1	8.962656260E-1
1.615407848E1	-1.939439960E-2	-1.461452097E-1	9.297095537E-1
1.616248150E1	-6.413896102E-3	-1.841704547E-1	9.501729012E-1
1.617088452E1	6.108472589E-4	-2.370087355E-1	9.639169574E-1
1.617928754E1	3.359660041E-3	-3.229855001E-1	9.849911928E-1
1.618769056E1	2.443389036E-3	-4.184303582E-1	1.023474574E0
1.619609358E1	-1.328592747E-2	-4.744756222E-1	1.064095974E0
1.620449660E1	-4.123219103E-2	-5.115845799E-1	1.105328083E0
1.621289962E1	-7.055285573E-2	-5.563291311E-1	1.145644069E0
1.622130264E1	-1.023169160E-1	-6.152759194E-1	1.207339644E0
1.622970566E1	-1.240019947E-1	-6.500942111E-1	1.290414810E0
1.623810868E1	-1.316375881E-1	-6.180247068E-1	1.386012435E0
1.624651171E1	-9.040539712E-2	-5.027272701E-1	1.453969240E0
1.625491473E1	-1.099525020E-2	-5.604523420E-1	1.539029717E0
1.626331775E1	1.298050396E-2	-8.637380004E-1	1.620425105E0
1.627172077E1	-2.229592577E-2	-1.196038961E0	1.704111099E0
1.628012379E1	-7.238540053E-2	-1.259414315E0	1.826891422E0
1.628852681E1	-1.113269106E-1	-1.135259628E0	1.995332599E0
1.629692983E1	-1.162136942E-1	-9.671239257E-1	2.148960590E0
1.630533285E1	-7.773031294E-2	-8.240329623E-1	2.181335449E0
1.631373587E1	-2.947338112E-2	-6.850652099E-1	2.166827917E0
1.632213889E1	2.550287358E-2	-4.805840850E-1	2.075200796E0
1.633054191E1	6.734590977E-2	-2.522799075E-1	2.001441002E0
1.633894494E1	6.673506647E-2	9.895725548E-2	1.855754018E0
1.634734796E1	1.004843712E-1	4.828747511E-1	1.365090966E0
1.635575098E1	2.261662036E-1	5.042544007E-1	6.452074051E-1
1.636415400E1	3.768927455E-1	1.641651988E-1	2.832804024E-1
1.637255702E1	4.285093546E-1	-6.108472589E-3	4.030064642E-1
1.638096004E1	3.866663277E-1	5.955760926E-2	6.835380793E-1
1.638936306E1	3.914003670E-1	7.009471953E-2	7.618792653E-1
1.639776608E1	4.582881629E-1	5.115845799E-2	5.636593103E-1
1.640616910E1	4.691306949E-1	2.519744933E-1	2.780882120E-1
1.641457212E1	4.372139275E-1	5.969504714E-1	4.398100078E-2
1.642297514E1	3.884988427E-1	1.017060637E0	-3.617742956E-1
1.643137816E1	3.791834414E-1	1.116781473E0	-8.064711094E-1
1.643978118E1	3.970507085E-1	1.049130201E0	-1.104564548E0
1.644818421E1	3.823903799E-1	1.051573515E0	-1.299119353E0
1.645658723E1	3.706315756E-1	9.023740888E-1	-1.378987670E0
1.646499025E1	3.767400384E-1	6.945333481E-1	-1.457176089E0
1.647339327E1	3.938437700E-1	5.013529062E-1	-1.551246643E0
1.648179629E1	4.149180055E-1	3.486410677E-1	-1.642568231E0
1.649019931E1	4.314108789E-1	2.501419485E-1	-1.749771953E0
1.649860233E1	4.396573007E-1	1.649287641E-1	-1.873773932E0
1.650700535E1	4.396573007E-1	8.185353130E-2	-1.993805408E0
1.651540837E1	4.298837483E-1	1.908897609E-2	-2.096427679E0
1.652381139E1	4.091149569E-1	-2.489202656E-2	-2.189734697E0
1.653221441E1	3.814741075E-1	-6.291726977E-2	-2.278154850E0
1.654061744E1	3.520007432E-1	-9.773556143E-2	-2.371461868E0
1.654902046E1	3.202366829E-1	-1.157555580E-1	-2.471793413E0
1.655742348E1	2.925958335E-1	-1.143811494E-1	-2.553647041E0
1.656582650E1	2.690782249E-1	-1.041494608E-1	-2.594115496E0
1.657422952E1	2.643441558E-1	-7.055285573E-2	-2.609234095E0
1.658263254E1	2.608317733E-1	-9.468132630E-3	-2.605568886E0
1.659103556E1	2.576248348E-1	8.231166750E-2	-2.592130423E0
1.659943858E1	2.594573796E-1	1.740914732E-1	-2.590297699E0
1.660784160E1	2.710634768E-1	2.406738251E-1	-2.607554197E0
1.661624462E1	2.901524603E-1	2.829749882E-1	-2.628933907E0
1.662464764E1	3.098522723E-1	2.933593988E-1	-2.636569500E0
1.663305066E1	3.205420971E-1	2.692309320E-1	-2.628017664E0
1.664145369E1	3.205420971E-1	2.139492482E-1	-2.594268322E0
1.664985671E1	3.087832928E-1	1.394258887E-1	-2.545858622E0
1.665825973E1	2.915268540E-1	6.184828654E-2	-2.516537905E0
1.666666275E1	2.776300907E-1	-4.459185153E-2	-2.505695343E0
1.667506577E1	2.574721277E-1	-1.678302884E-1	-2.476374865E0
1.668346879E1	2.293731421E-1	-2.829749882E-1	-2.417428017E0
1.669187181E1	1.991362125E-1	-3.684936166E-1	-2.326259136E0
1.670027483E1	1.733279079E-1	-4.254551232E-1	-2.213252306E0
1.670867785E1	1.511846930E-1	-4.561502039E-1	-2.098718405E0
1.671708087E1	1.430909634E-1	-4.752391577E-1	-1.986017108E0
1.672548389E1	1.291942000E-1	-4.475983381E-1	-1.906301618E0
1.673388691E1	8.093725890E-2	-4.052971601E-1	-1.817270637E0
1.674228994E1	4.932591692E-2	-3.984251320E-1	-1.686091185E0
1.675069296E1	5.085303262E-2	-3.999522328E-1	-1.560103893E0
1.675909598E1	3.680354729E-2	-3.909422457E-1	-1.405559540E0
1.676749900E1	1.007897966E-2	-3.710896969E-1	-1.196802497E0
1.677590202E1	1.068982761E-3	-3.668137789E-1	-9.834640622E-1
1.678430504E1	1.679830020E-3	-3.494046330E-1	-8.089144826E-1
1.679270806E1	-4.428642802E-3	-3.402419090E-1	-5.981721878E-1
1.680111108E1	-2.122694254E-2	-3.112266660E-1	-3.633013964E-1
1.680951410E1	-4.413371533E-2	-2.545706034E-1	-1.440072358E-1
1.681791712E1	-9.468132257E-2	-2.389939874E-1	5.543438718E-2
1.682632014E1	-1.082726792E-1	-1.985253543E-1	3.008422852E-1
