"Time (s)"	"Acceleration x (m/s^2)"	"Acceleration y (m/s^2)"	"Acceleration z (m/s^2)"
2.648989500E-2	1.178465188E-1	9.760323524E0	2.518445849E-1
3.489291500E-2	3.050848842E-2	9.799206734E0	2.482553422E-1
4.329593600E-2	-1.375873014E-2	9.803394318E0	2.081755698E-1
5.169895700E-2	-3.170489892E-2	9.812965393E0	1.854437590E-1
6.010197800E-2	-3.708875179E-2	9.838089943E0	1.567298770E-1
6.850499900E-2	-9.990034252E-2	9.799206734E0	1.746760458E-1
7.690802000E-2	-1.483550072E-1	9.725627899E0	2.081755698E-1
8.531104000E-2	-1.160518974E-1	9.665208817E0	2.225325108E-1
9.371406100E-2	-6.221338734E-2	9.667601585E0	2.572284341E-1
1.021170820E-1	-1.136590727E-2	9.741779327E0	2.769692242E-1
1.105201030E-1	3.349951655E-2	9.809974670E0	2.620140910E-1
1.189231240E-1	3.349951655E-2	9.820742607E0	2.835494876E-1
1.273261450E-1	-9.391828626E-2	9.764511108E0	3.272185028E-1
1.357291650E-1	-1.316052526E-1	9.731609344E0	2.554338276E-1
1.441321860E-1	-8.494520187E-2	9.744770050E0	2.327020019E-1
1.525352070E-1	-1.615155302E-2	9.777671814E0	2.506481707E-1
1.609382280E-1	3.828516230E-2	9.803394318E0	2.225325108E-1
1.693412490E-1	3.409772366E-2	9.803394318E0	2.482553422E-1
1.777442700E-1	-1.016949583E-2	9.753145218E0	2.602194548E-1
1.861472900E-1	-1.794617064E-2	9.722636223E0	1.986042857E-1
1.945503110E-1	2.572284266E-2	9.786644936E0	1.710868180E-1
2.029533320E-1	3.529413417E-2	9.835099220E0	1.310070455E-1
2.113563530E-1	5.623133108E-2	9.818349838E0	1.411765367E-1
2.197593740E-1	4.067798331E-2	9.779465675E0	2.285145670E-1
2.281623950E-1	9.571290575E-3	9.725028992E0	2.745763958E-1
2.365654150E-1	1.435693540E-2	9.719645500E0	3.409772217E-1
2.449684360E-1	2.691925503E-2	9.750752449E0	3.212364316E-1
2.533714570E-1	2.333002165E-2	9.794421196E0	2.578266263E-1
2.617744780E-1	1.375873014E-2	9.803992271E0	2.458625287E-1
2.701774990E-1	-2.273181453E-2	9.782457352E0	2.273181528E-1
2.785805200E-1	-6.699903309E-2	9.787242889E0	2.703889608E-1
2.869835400E-1	-1.310070455E-1	9.823733330E0	3.092723191E-1
2.953865610E-1	-1.902294010E-1	9.828518867E0	3.481557071E-1
3.037895820E-1	-2.219343036E-1	9.790832520E0	3.110669553E-1
3.121926030E-1	-2.195414752E-1	9.765109062E0	2.805584669E-1
3.205956240E-1	-1.836491376E-1	9.798010826E0	2.991028428E-1
3.289986450E-1	-1.471585929E-1	9.822537422E0	4.534398913E-1
3.374016650E-1	-8.614161611E-2	9.786644936E0	4.618147612E-1
3.458046860E-1	-8.733802289E-2	9.730413437E0	5.335994363E-1
3.542077070E-1	-1.262213886E-1	9.744770050E0	5.898307562E-1
3.626107280E-1	-1.752742529E-1	9.769296646E0	4.737788737E-1
3.710137490E-1	-1.591227055E-1	9.790832520E0	4.031906128E-1
3.794167700E-1	-8.315058798E-2	9.802796364E0	3.672982752E-1
3.878197900E-1	1.375873014E-2	9.790832520E0	3.649054468E-1
3.962228110E-1	4.905286431E-2	9.763314247E0	3.206382394E-1
4.046258320E-1	2.871387079E-2	9.736993790E0	2.919243574E-1
4.130288530E-1	2.632104978E-2	9.733404160E0	3.230310678E-1
4.214318740E-1	5.503492057E-2	9.729815483E0	3.469592929E-1
4.298348950E-1	5.742774159E-2	9.746564865E0	3.098705411E-1
4.382379150E-1	3.948157281E-2	9.818947792E0	3.116651475E-1
4.466409360E-1	4.965107143E-2	9.919445992E0	3.278166950E-1
4.550439570E-1	-5.084748194E-2	9.900303841E0	3.565305769E-1
4.634469780E-1	-2.063809484E-1	9.816555023E0	3.655036688E-1
4.718499990E-1	-3.278166950E-1	9.767501831E0	3.696911037E-1
4.802530200E-1	-4.247260094E-1	9.756733894E0	3.696911037E-1
4.886560400E-1	-4.504488707E-1	9.941579819E0	2.757728100E-1
4.970590610E-1	-1.627119333E-1	9.981060982E0	2.715853751E-1
5.054620820E-1	-1.938186288E-1	9.439684868E0	3.134597540E-1
5.138651030E-1	-9.690931439E-2	9.516854286E0	2.650051117E-1
5.222681240E-1	4.965107143E-2	9.841081619E0	2.596212626E-1
5.306711450E-1	9.511470050E-2	9.986445427E0	3.702892959E-1
5.390741650E-1	2.033899166E-2	9.838089943E0	4.229314029E-1
5.474771860E-1	-8.733802289E-2	9.690931320E0	4.163511395E-1
5.558802070E-1	-1.555334777E-1	9.724431038E0	4.594219327E-1
5.642832280E-1	-1.914258152E-1	9.780662537E0	4.091726840E-1
5.726862490E-1	-1.986042857E-1	9.765109062E0	3.601198196E-1
5.810892700E-1	-1.094716340E-1	9.765707016E0	3.062812984E-1
5.894922900E-1	-8.135596663E-2	9.739386559E0	2.428714931E-1
5.978953110E-1	-2.691925503E-2	9.748957634E0	2.895315289E-1
6.062983320E-1	2.691925503E-2	9.763314247E0	3.379862010E-1
6.147013530E-1	1.495514158E-2	9.767501831E0	3.822534084E-1
6.231043740E-1	-4.845465720E-2	9.769296646E0	3.978067636E-1
6.315073950E-1	-9.092725813E-2	9.765707016E0	3.655036688E-1
6.399104150E-1	-9.810572863E-2	9.769296646E0	3.499503136E-1
6.483134360E-1	-1.250249892E-1	9.779465675E0	4.109672904E-1
6.567164570E-1	-1.543370634E-1	9.757930756E0	4.881358147E-1
6.651194780E-1	-1.250249892E-1	9.745368004E0	3.786641955E-1
6.735224990E-1	-1.112662554E-1	9.802198410E0	3.080759048E-1
6.819255200E-1	-1.417747438E-1	9.844670296E0	2.117647976E-1
6.903285400E-1	-1.800599098E-1	9.804591179E0	1.052841991E-1
6.987315610E-1	-2.033899277E-1	9.776474953E0	5.024927482E-2
7.071345820E-1	-1.926222295E-1	9.782457352E0	3.708875179E-2
7.155376030E-1	-1.375873089E-1	9.788438797E0	4.067798331E-2
7.239406240E-1	-4.426721856E-2	9.768698692E0	1.663011760E-1
7.323436450E-1	6.340979785E-2	9.780064583E0	3.146561682E-1
7.407466650E-1	1.160518974E-1	9.769894600E0	3.768695593E-1
7.491496860E-1	1.250249892E-1	9.763913155E0	5.030909777E-1
7.575527070E-1	6.281159073E-2	9.762716293E0	5.730810165E-1
7.659557280E-1	-3.589234129E-2	9.784850121E0	5.497509837E-1
7.743587490E-1	-1.166501045E-1	9.802796364E0	5.359922647E-1
7.827617700E-1	-1.722832322E-1	9.785448074E0	5.000999570E-1
7.911647900E-1	-1.238285750E-1	9.806385040E0	3.457628787E-1
7.995678110E-1	-3.649054468E-2	9.836894035E0	2.530409992E-1
8.079708320E-1	-5.982056609E-4	9.798010826E0	2.315055877E-1
8.163738530E-1	4.187439568E-3	9.741181374E0	2.315055877E-1
8.247768740E-1	0.000000000E0	9.753743172E0	3.152543902E-1
8.331798950E-1	1.316052489E-2	9.781859398E0	4.444667995E-1
8.415829150E-1	-6.221338734E-2	9.757332802E0	4.420739710E-1
8.499859360E-1	-1.453639716E-1	9.766903877E0	4.576273263E-1
8.583889570E-1	-2.093719840E-1	9.751948357E0	5.246263742E-1
8.667919780E-1	-2.428714931E-1	9.714262009E0	5.222335458E-1
8.751949990E-1	-3.529413342E-1	9.712467194E0	4.342973232E-1
8.835980200E-1	-3.978067636E-1	9.795019150E0	3.529413342E-1
8.920010400E-1	-3.607180119E-1	9.839286804E0	2.763710022E-1
9.004040610E-1	-2.967100143E-1	9.844670296E0	2.464607358E-1
9.088070820E-1	-2.584248483E-1	9.790233612E0	2.093719840E-1
9.172101030E-1	-2.189432681E-1	9.781260490E0	1.818545163E-1
9.256131240E-1	-1.453639716E-1	9.816555023E0	1.333998591E-1
9.340161450E-1	-1.052841991E-1	9.811769485E0	1.298106313E-1
9.424191650E-1	-1.010967568E-1	9.767501831E0	2.213360965E-1
9.508221860E-1	-1.202393398E-1	9.718449593E0	3.320041299E-1
9.592252070E-1	-1.136590764E-1	9.710074425E0	3.661018610E-1
9.676282280E-1	-5.503492057E-2	9.732208252E0	4.283152521E-1
9.760312490E-1	8.374879137E-3	9.735796928E0	4.133601189E-1
9.844342700E-1	6.400800496E-2	9.733404160E0	3.002992272E-1
9.928372900E-1	8.135596663E-2	9.730413437E0	2.201396823E-1
1.001240311E0	8.554340899E-2	9.775279045E0	2.757728100E-1
1.009643332E0	1.513460279E-1	9.834501266E0	3.367897868E-1
1.018046353E0	2.428714931E-1	9.841679573E0	3.876372576E-1
1.026449374E0	2.273181528E-1	9.747760773E0	5.114658475E-1
1.034852395E0	1.304088384E-1	9.650852203E0	5.700899959E-1
1.043255415E0	-0.000000000E0	9.588638306E0	5.712863803E-1
1.051658436E0	-2.051845491E-1	9.601201057E0	5.258227587E-1
1.060061457E0	-3.762713671E-1	9.696913719E0	4.067798555E-1
1.068464478E0	-4.474578202E-1	9.746564865E0	3.242274821E-1
1.076867499E0	-3.864408433E-1	9.752547264E0	4.007977843E-1
1.085270520E0	-2.590230405E-1	9.683155060E0	4.959124923E-1
1.093673540E0	-1.567298770E-1	9.672985077E0	5.545366406E-1
1.102076561E0	-1.884347796E-1	9.735198975E0	6.819544435E-1
1.110479582E0	-2.608176768E-1	9.777671814E0	6.065805554E-1
1.118882603E0	-1.920240223E-1	9.756135941E0	4.067798555E-1
1.127285624E0	-2.123630047E-1	9.695717812E0	4.067798555E-1
1.135688645E0	-3.589234054E-1	9.707681656E0	4.019941986E-1
1.144091665E0	-3.517449200E-1	9.765707016E0	3.343969584E-1
1.152494686E0	-2.285145670E-1	9.782457352E0	2.799602449E-1
1.160897707E0	-1.226321608E-1	9.720243454E0	6.999006122E-2
1.169300728E0	7.776673418E-3	9.662816048E0	-1.280160099E-1
1.177703749E0	1.489532143E-1	9.655637741E0	-2.051845491E-1
1.186106770E0	1.776670814E-1	9.690333366E0	-2.237289101E-1
1.194509790E0	1.112662554E-1	9.744172096E0	-2.249253243E-1
1.202912811E0	-6.939185411E-2	9.862018585E0	-2.219343036E-1
1.211315832E0	-1.375873089E-1	1.001037312E1	-3.613162339E-1
1.219718853E0	7.776673418E-3	1.004207802E1	-4.630111754E-1
1.228121874E0	1.651047617E-1	9.968499184E0	-2.907279432E-1
1.236524895E0	2.225325108E-1	9.865608215E0	-1.130608693E-1
1.244927915E0	3.343969584E-1	9.831509590E0	8.434699476E-2
1.253330936E0	4.516452849E-1	9.795019150E0	2.847459018E-1
1.261733957E0	5.694918036E-1	9.740582466E0	2.697907388E-1
1.270136978E0	6.562315822E-1	9.685547829E0	1.022931710E-1
1.278539999E0	6.424728632E-1	9.665208817E0	-7.298108935E-2
1.286943020E0	6.801598072E-1	9.760323524E0	-2.231307179E-1
1.295346040E0	7.226324677E-1	9.895518303E0	-1.944168359E-1
1.303749061E0	6.209374666E-1	9.912865639E0	-6.041877344E-2
1.312152082E0	5.515456200E-1	9.829715729E0	-4.187439568E-3
1.320555103E0	6.011967063E-1	9.795618057E0	-1.196411345E-2
1.328958124E0	6.149554253E-1	9.805189133E0	1.286142170E-1
1.337361145E0	6.239284873E-1	9.774082184E0	4.175475538E-1
1.345764165E0	5.772684813E-1	9.729216576E0	4.001995921E-1
1.354167186E0	4.701896608E-1	9.804591179E0	2.267199457E-1
1.362570207E0	3.822534084E-1	9.909874916E0	1.519442350E-1
1.370973228E0	2.105683982E-1	9.781859398E0	1.196411327E-1
1.379376249E0	2.895315289E-1	9.598808289E0	4.905286431E-2
1.387779270E0	4.887340367E-1	9.623932838E0	2.440679073E-1
1.396182290E0	7.262216806E-1	9.744172096E0	3.984049559E-1
1.404585311E0	8.243274093E-1	9.761520386E0	4.576273263E-1
1.412988332E0	7.579265833E-1	9.704689980E0	4.031906128E-1
1.421391353E0	5.455635786E-1	9.678369522E0	2.428714931E-1
1.429794374E0	3.565305769E-1	9.692128181E0	5.503492057E-2
1.438197395E0	2.662015259E-1	9.647860527E0	-8.135596663E-2
1.446600415E0	3.260220885E-1	9.588040352E0	-1.752742529E-1
1.455003436E0	3.236292601E-1	9.632308006E0	-1.525424421E-1
1.463406457E0	2.614158690E-1	9.644271851E0	-6.161518395E-2
1.471809478E0	1.830509305E-1	9.657432556E0	-6.580262445E-3
1.480212499E0	8.973085135E-2	9.750752449E0	8.973085321E-3
1.488615520E0	-4.666004330E-2	9.857831001E0	1.016949639E-1
1.497018540E0	-7.597211748E-2	9.856635094E0	1.429711580E-1
1.505421561E0	-2.033899166E-2	9.634101868E0	1.453639716E-1
1.513824582E0	1.405783296E-1	9.617950439E0	4.187439755E-2
1.522227603E0	2.781656384E-1	9.735198975E0	1.046859920E-1
1.530630624E0	3.098705411E-1	9.762716293E0	2.225325108E-1
1.539033645E0	2.937189937E-1	9.695717812E0	3.224328458E-1
1.547436665E0	1.950150430E-1	9.690931320E0	2.937189937E-1
1.555839686E0	9.571290575E-3	9.726823807E0	7.178468257E-2
1.564242707E0	-8.015955985E-2	9.748957634E0	-2.440679073E-1
1.572645728E0	1.555334777E-1	9.866206169E0	-3.260220885E-1
1.581048749E0	4.761717021E-1	9.957731247E0	-2.805584669E-1
1.589451770E0	7.411768436E-1	9.917053223E0	-1.974078715E-1
1.597854790E0	8.787640929E-1	9.769296646E0	1.992024779E-1
1.606257811E0	9.272187948E-1	9.745966911E0	3.349951804E-1
1.614660832E0	7.393822074E-1	9.748359680E0	2.261217386E-1
1.623063853E0	5.898307562E-1	9.742377281E0	5.503492057E-2
1.631466874E0	6.149554253E-1	9.796216011E0	-1.914258115E-2
1.639869895E0	7.088736892E-1	9.796216011E0	4.307080805E-2
1.648272915E0	7.956135273E-1	9.753145218E0	3.230310604E-2
1.656675936E0	8.650053740E-1	9.745966911E0	-6.460621208E-2
1.665078957E0	8.811569214E-1	9.786644936E0	-8.015955985E-2
1.673481978E0	9.014959335E-1	9.827322960E0	-2.093719877E-2
1.681884999E0	9.146564603E-1	9.818349838E0	6.400800496E-2
1.690288020E0	9.523434043E-1	9.717252731E0	1.040877849E-1
1.698691040E0	9.038887620E-1	9.645467758E0	1.477568001E-1
1.707094061E0	8.350951076E-1	9.734601021E0	2.045863420E-1
1.715497082E0	8.404789567E-1	9.852447510E0	1.274178028E-1
1.723900103E0	7.471588850E-1	9.878170013E0	-1.262213886E-1
1.732303124E0	8.967102766E-1	9.792626381E0	-5.347958803E-1
1.740706145E0	1.180858016E0	9.789635658E0	-4.432703853E-1
1.749109165E0	1.302891970E0	9.782457352E0	-1.459621787E-1
1.757512186E0	1.245464206E0	9.723833084E0	1.423729509E-1
1.765915207E0	1.227517962E0	9.694520950E0	2.638086975E-1
1.774318228E0	1.246660590E0	9.655039787E0	-7.956135273E-2
1.782721249E0	1.267597795E0	9.692726135E0	-2.338984162E-1
1.791124270E0	1.182652593E0	9.746564865E0	-2.679961324E-1
1.799527290E0	1.036092162E0	9.750154495E0	-4.217349887E-1
1.807930311E0	7.328019142E-1	9.784252167E0	-3.912265003E-1
1.816333332E0	6.628118753E-1	9.864411354E0	-3.696911037E-1
1.824736353E0	9.828519225E-1	9.763913155E0	-3.595215976E-1
1.833139374E0	1.328016520E0	9.711869240E0	-1.148554832E-1
1.841542395E0	1.435693622E0	9.806385040E0	1.298106313E-1
1.849945415E0	1.219741344E0	9.678369522E0	-4.187439568E-3
1.858348436E0	9.349954724E-1	9.614959717E0	-5.264209956E-2
1.866751457E0	5.150550604E-1	9.761520386E0	2.494517565E-1
1.875154478E0	2.835494876E-1	9.904491425E0	-2.650051117E-1
1.883557499E0	6.616154313E-1	9.932008743E0	-7.549355626E-1
1.891960520E0	1.339382529E0	9.844670296E0	-7.621139884E-1
1.900363540E0	1.773679733E0	9.723833084E0	-4.360919297E-1
1.908766561E0	1.843071699E0	9.715457916E0	-1.698904037E-1
1.917169582E0	1.664806366E0	9.705886841E0	1.974078640E-2
1.925572603E0	1.500898004E0	9.756135941E0	2.428714931E-1
1.933975624E0	1.494317770E0	9.713663101E0	3.128615618E-1
1.942378645E0	1.828116536E0	9.632905960E0	2.327020019E-1
1.950781665E0	2.120040894E0	9.595816612E0	4.019941986E-1
1.959184686E0	2.155933142E0	9.640682220E0	4.474578202E-1
1.967587707E0	2.144567251E0	9.630513191E0	4.420739710E-1
1.975990728E0	2.023131609E0	9.596415520E0	3.236292601E-1
1.984393749E0	1.671386600E0	9.680762291E0	8.195417374E-2
1.992796770E0	1.317248821E0	9.778867722E0	-5.563312769E-2
2.001199790E0	1.395015597E0	9.723235130E0	-1.280160099E-1
2.009602811E0	1.779661894E0	9.565906525E0	-7.776673883E-2
2.018005832E0	2.146361828E0	9.500103951E0	1.459621787E-1
2.026408853E0	2.391626120E0	9.431908607E0	2.482553422E-1
2.034811874E0	2.459821701E0	9.404989243E0	3.774677813E-1
2.043214895E0	2.314457655E0	9.378069878E0	3.439682424E-1
2.051617915E0	2.130210400E0	9.358927727E0	3.834498227E-1
2.060020936E0	2.004587173E0	9.372088432E0	2.165504545E-1
2.068423957E0	1.913061738E0	9.446864128E0	1.196411327E-1
2.076826978E0	1.816750646E0	9.474979401E0	1.226321608E-1
2.085229999E0	1.764706731E0	9.425926208E0	6.281159073E-2
2.093633020E0	1.797009826E0	9.424132347E0	-2.392822690E-2
2.102036040E0	1.854437590E0	9.464211464E0	-8.255238086E-2
2.110439061E0	1.884347796E0	9.506086349E0	-2.057827413E-1
2.118842082E0	1.796411633E0	9.485149384E0	-8.793623000E-2
2.127245103E0	1.752742529E0	9.433105469E0	1.088734269E-1
2.135648124E0	1.799402595E0	9.425926208E0	2.380858511E-1
2.144051145E0	1.859223247E0	9.406186104E0	1.513460279E-1
2.152454165E0	1.954936147E0	9.393623352E0	8.255238086E-2
2.160857186E0	1.969891191E0	9.405587196E0	1.142572835E-1
2.169260207E0	1.865803480E0	9.413364410E0	-5.503492057E-2
2.177663228E0	1.949552298E0	9.544969559E0	-3.661018610E-1
2.186066249E0	2.139183521E0	9.687342644E0	-4.241278172E-1
2.194469270E0	2.115853310E0	9.753145218E0	-4.301098585E-1
2.202872290E0	1.884347796E0	9.794421196E0	-4.474578202E-1
2.211275311E0	1.796411633E0	9.690931320E0	-4.695914388E-1
2.219678332E0	1.958525300E0	9.549755096E0	-4.241278172E-1
2.228081353E0	2.129612207E0	9.508479118E0	-3.248256743E-1
2.236484374E0	2.167299032E0	9.509077072E0	-3.014956415E-1
2.244887395E0	2.201995134E0	9.519247055E0	-2.877369225E-1
2.253290415E0	2.240280151E0	9.504291534E0	-3.038884699E-1
2.261693436E0	2.336591244E0	9.435498238E0	-3.906283081E-1
2.270096457E0	2.425125837E0	9.443872452E0	-4.504488707E-1
2.278499478E0	2.361117840E0	9.498908043E0	-4.779663086E-1
2.286902499E0	2.227119684E0	9.515059471E0	-4.552344978E-1
2.295305520E0	2.173879385E0	9.437891006E0	-4.779663086E-1
2.303708540E0	2.134397745E0	9.560523033E0	-4.660021961E-1
2.312111561E0	1.982453585E0	9.766305923E0	-5.066801906E-1
2.320514582E0	1.840080619E0	9.710672379E0	-5.485545993E-1
2.328917603E0	1.801197290E0	9.587442398E0	-5.670989752E-1
2.337320624E0	1.822732687E0	9.575477600E0	-6.735795736E-1
2.345723645E0	1.916650891E0	9.569496155E0	-6.813562512E-1
2.354126665E0	2.140978098E0	9.619147301E0	-4.857429862E-1
2.362529686E0	2.364108801E0	9.787242889E0	-2.356930375E-1
2.370932707E0	2.428714991E0	1.004746246E1	9.690931439E-2
2.379335728E0	2.580060959E0	1.029870892E1	3.367897868E-1
2.387738749E0	2.860619545E0	1.030528927E1	4.031906128E-1
2.396141770E0	3.081357241E0	9.915857315E0	1.621137410E-1
2.404544790E0	3.098107100E0	9.323633194E0	-3.266202807E-1
2.412947811E0	2.807977438E0	8.916254997E0	-7.968099117E-1
2.421350832E0	2.446063042E0	9.064012527E0	-1.131805062E0
2.429753853E0	2.159522533E0	9.552745819E0	-1.336989641E0
2.438156874E0	2.065006018E0	9.939785004E0	-1.435693622E0
2.446559895E0	2.143969059E0	1.003789139E1	-1.258624673E0
2.454962915E0	2.294716835E0	1.021256733E1	-1.045065284E0
2.463365936E0	2.228316069E0	1.044826031E1	-9.649057388E-1
2.471768957E0	2.122433662E0	1.066122150E1	-9.367900491E-1
2.480171978E0	2.005783558E0	1.083350468E1	-1.021137118E0
2.488574999E0	1.728216171E0	1.067318535E1	-1.007976532E0
2.496978020E0	1.963310957E0	9.945767403E0	-1.998006940E0
2.505381040E0	2.228316069E0	1.041117096E1	-7.627122402E-1
2.513784061E0	1.116251707E0	9.999606133E0	-6.747759581E-1
2.522187082E0	1.377069473E0	1.004626560E1	-1.598405480E0
2.530590103E0	1.330409408E0	1.037707329E1	-1.358525038E0
2.538993124E0	7.172485590E-1	1.021017456E1	-1.764706731E0
2.547396145E0	6.329016089E-1	1.012642574E1	-2.003390789E0
2.555799165E0	9.332008362E-1	1.012403297E1	-1.958525300E0
2.564202186E0	1.053440213E0	1.006720352E1	-1.978266120E0
2.572605207E0	1.102493048E0	9.990633011E0	-2.032104731E0
2.581008228E0	1.204187989E0	9.979267120E0	-2.007578135E0
2.589411249E0	1.311864972E0	9.967901230E0	-1.994417667E0
2.597814270E0	1.468594909E0	9.926026344E0	-2.038684845E0
2.606217290E0	1.578066587E0	9.880562782E0	-1.967498422E0
2.614620311E0	1.630110383E0	9.814162254E0	-1.887937069E0
2.623023332E0	1.724626899E0	9.741779327E0	-1.899901152E0
2.631426353E0	1.907677889E0	9.669396400E0	-1.898704767E0
2.639829374E0	2.145763636E0	9.647262573E0	-1.732403636E0
2.648232395E0	2.304288149E0	9.538987160E0	-1.692323804E0
2.656635415E0	2.514856577E0	9.354740143E0	-1.718644857E0
2.665038436E0	2.595016241E0	9.254241943E0	-1.516451359E0
2.673441457E0	2.647658348E0	9.218349457E0	-1.440479279E0
2.681844478E0	2.837887764E0	9.266803741E0	-1.569093466E0
2.690247499E0	2.986242771E0	9.425926208E0	-1.545165181E0
2.698650520E0	3.068196774E0	9.520442963E0	-1.441077471E0
2.707053540E0	3.150749207E0	9.413962364E0	-1.357926846E0
2.715456561E0	3.221935749E0	9.237491608E0	-1.314856052E0
2.723859582E0	3.181257725E0	9.045467377E0	-1.237089276E0
2.732262603E0	3.112463951E0	8.859425545E0	-1.112662554E0
2.740665624E0	3.038884640E0	8.813364029E0	-9.230313301E-1
2.749068645E0	3.027518749E0	9.071788788E0	-8.279166222E-1
2.757471665E0	2.951546669E0	9.534799576E0	-7.680960894E-1
2.765874686E0	2.290529490E0	9.994221687E0	-4.289134443E-1
2.774277707E0	9.511470199E-1	1.004626560E1	2.859423161E-1
2.782680728E0	-9.990034252E-2	9.690931320E0	2.398804724E-1
2.791083749E0	-5.084748268E-1	9.431310654E0	-4.552344978E-1
2.799486770E0	-6.747759581E-1	9.311669350E0	-1.140778184E0
2.807889790E0	-5.982056856E-1	9.296713829E0	-1.482353687E0
2.816292811E0	-2.147558331E-1	9.332606316E0	-1.582253933E0
2.824695832E0	1.824527234E-1	9.361320496E0	-1.391426325E0
2.833098853E0	3.702892959E-1	9.222537041E0	-1.088734269E0
2.841501874E0	6.125625968E-1	9.029914856E0	-1.256231904E0
2.849904895E0	8.763712645E-1	9.031708717E0	-1.359123230E0
2.858307915E0	1.025324464E0	9.208778381E0	-1.254437327E0
2.866710936E0	1.110867858E0	9.334999084E0	-1.271187067E0
2.875113957E0	1.229312658E0	9.306883812E0	-1.441675663E0
2.883516978E0	1.220339537E0	9.245866776E0	-1.502692580E0
2.891919999E0	1.155733347E0	9.250054359E0	-1.425524116E0
2.900323020E0	1.278963685E0	9.393623352E0	-1.345364571E0
2.908726040E0	1.450648785E0	9.595218658E0	-1.271187067E0
2.917129061E0	1.445863128E0	9.718449593E0	-1.290329576E0
2.925532082E0	1.217348576E0	9.681360245E0	-1.221535921E0
2.933935103E0	1.000199914E0	9.573683739E0	-1.192223907E0
2.942338124E0	9.224331379E-1	9.555138588E0	-1.258026481E0
2.950741145E0	9.499505758E-1	9.601201057E0	-1.426720500E0
2.959144165E0	9.888339639E-1	9.678967476E0	-1.508076429E0
2.967547186E0	1.012762189E0	9.735198975E0	-1.503290772E0
2.975950207E0	1.079761267E0	9.757930756E0	-1.527817249E0
2.984353228E0	1.243669510E0	9.772287369E0	-1.562513232E0
2.992756249E0	1.390828133E0	9.810572624E0	-1.654636860E0
3.001159270E0	1.436291814E0	9.880562782E0	-1.738983870E0
3.009562290E0	1.317847013E0	9.909276962E0	-1.737787485E0
3.017965311E0	1.283151150E0	9.809974670E0	-1.660618901E0
3.026368332E0	1.472782373E0	9.684949875E0	-1.729412556E0
3.034771353E0	1.649851203E0	9.677172661E0	-1.794018745E0
3.043174374E0	1.691725612E0	9.796813965E0	-1.781456470E0
3.051577395E0	1.718046665E0	9.856036186E0	-1.876571178E0
3.059980415E0	1.669592023E0	9.858428955E0	-1.832902193E0
3.068383436E0	1.586441398E0	9.808179855E0	-1.843071699E0
3.076786457E0	1.514058471E0	9.854242325E0	-1.938186288E0
3.085189478E0	1.291526079E0	9.831509590E0	-1.966900229E0
3.093592499E0	1.095314622E0	9.774082184E0	-2.041675806E0
3.101995520E0	9.194421172E-1	9.684949875E0	-2.016551256E0
3.110398540E0	8.865407705E-1	9.559326172E0	-2.167299032E0
3.118801561E0	8.901300430E-1	9.525228500E0	-2.303091764E0
3.127204582E0	8.566305041E-1	9.596415520E0	-2.257030010E0
3.135607603E0	8.494520187E-1	9.620343208E0	-2.199003935E0
3.144010624E0	1.039083242E0	9.623932838E0	-2.158924341E0
3.152413645E0	1.527817249E0	9.578469276E0	-2.407777786E0
3.160816665E0	1.986042738E0	9.744770050E0	-2.439482689E0
3.169219686E0	2.117049932E0	9.844670296E0	-2.188834429E0
3.177622707E0	2.231905222E0	9.878170013E0	-2.383251429E0
3.186025728E0	2.603390932E0	1.008455086E1	-2.875574589E0
3.194428749E0	2.948555708E0	1.036810017E1	-2.833700180E0
3.202831770E0	3.170490026E0	1.031127071E1	-2.671586514E0
3.211234790E0	3.727419376E0	1.015214825E1	-3.071187973E0
3.219637811E0	4.514657974E0	1.017547798E1	-4.116253376E0
3.228040832E0	5.394618511E0	1.044167995E1	-3.689134359E0
3.236443853E0	5.513063431E0	9.751350403E0	-2.629113913E0
3.244846874E0	5.005186558E0	8.870791435E0	-2.606382132E0
3.253249895E0	3.954737663E0	8.749356270E0	-2.893520832E0
3.261652915E0	3.136392355E0	9.443274498E0	-2.999403238E0
3.270055936E0	2.706880569E0	1.010130119E1	-2.468196630E0
3.278458957E0	1.984248161E0	1.010728264E1	-1.813759565E0
3.286861978E0	1.139581800E0	9.681958199E0	-1.337587833E0
3.295264999E0	5.694918036E-1	9.235098839E0	-9.978070259E-1
3.303668020E0	2.931207716E-1	8.931808472E0	-8.889335990E-1
3.312071040E0	3.493520916E-1	8.896514893E0	-1.006181955E0
3.320474061E0	6.454638839E-1	9.082556725E0	-1.313061476E0
3.328877082E0	8.913264275E-1	9.146564484E0	-1.574477315E0
3.337280103E0	1.033101201E0	9.077172279E0	-1.615155339E0
3.345683124E0	1.343569875E0	8.937790871E0	-1.545763373E0
3.354086145E0	2.210968018E0	8.526823044E0	-1.604387641E0
3.362489165E0	3.365504980E0	8.093722343E0	-1.698904037E0
3.370892186E0	4.099503517E0	8.035098076E0	-1.250848055E0
3.379295207E0	3.639483213E0	8.322834969E0	9.571290761E-2
3.387698228E0	2.507678032E0	8.456833839E0	1.022931695E0
3.396101249E0	1.601396561E0	8.380861282E0	1.116251707E0
3.404504270E0	9.062815905E-1	8.353343964E0	7.136593461E-1
3.412907290E0	4.115654826E-1	8.781659126E0	1.633101404E-1
3.421310311E0	6.969096065E-1	9.549755096E0	-7.172485590E-1
3.429713332E0	1.840080619E0	1.044885826E1	-1.936391711E0
3.438116353E0	2.654238462E0	1.105723381E1	-2.528017044E0
3.446519374E0	1.880758643E0	1.114636612E1	-1.812563181E0
3.454922395E0	4.151547253E-1	1.093340492E1	-1.065404296E0
3.463325415E0	-2.901297510E-1	1.083470058E1	-1.445264935E0
3.471728436E0	-4.965107143E-2	1.112004471E1	-2.212164640E0
3.480131457E0	7.196413875E-1	1.146879864E1	-2.472383976E0
3.488534478E0	1.266999602E0	1.126720333E1	-1.826920033E0
3.496937499E0	1.316650629E0	1.035015392E1	-1.171286702E0
3.505340520E0	1.312463164E0	9.480362892E0	-4.624129832E-1
3.513743540E0	1.311864972E0	9.044869423E0	-1.196411345E-2
3.522146561E0	1.472782373E0	9.154939651E0	-3.649054468E-1
3.530549582E0	1.782652855E0	9.322437286E0	-5.198407173E-1
3.538952603E0	2.149951220E0	9.283554077E0	-3.421736360E-1
3.547355624E0	2.602792740E0	9.145966530E0	-2.446661144E-1
3.555758645E0	2.938386202E0	9.170493126E0	-2.159522474E-1
3.564161665E0	2.766103029E0	9.345169067E0	-2.895315289E-1
3.572564686E0	2.281556368E0	9.647262573E0	-3.499503136E-1
3.580967707E0	1.615155339E0	9.881759644E0	-3.924229145E-1
3.589370728E0	1.222732425E0	1.000917721E1	-7.674978375E-1
3.597773749E0	1.048654556E0	1.012702370E1	-9.655039310E-1
3.606176770E0	9.367900491E-1	1.009771156E1	-1.051645517E0
3.614579790E0	1.119242787E0	1.003609657E1	-1.164706469E0
3.622982811E0	1.425524116E0	1.016411209E1	-1.060618639E0
3.631385832E0	1.560120344E0	1.017906761E1	-8.099704385E-1
3.639788853E0	1.598405480E0	9.949954987E0	-6.299105883E-1
3.648191874E0	1.773679733E0	9.720243454E0	-4.534398913E-1
3.656594895E0	1.881356835E0	9.619147301E0	-2.835494876E-1
3.664997915E0	1.839482427E0	9.644869804E0	-2.865405083E-1
3.673400936E0	1.829911113E0	9.760323524E0	-3.750749528E-1
3.681803957E0	1.872981906E0	9.763913155E0	-5.605186820E-1
3.690206978E0	2.024926186E0	9.736993790E0	-6.233302951E-1
3.698609999E0	2.181057930E0	9.645467758E0	-6.699903607E-1
3.707013020E0	2.355135679E0	9.556933403E0	-7.094719410E-1
3.715416040E0	2.505883455E0	9.629914284E0	-7.190431952E-1
3.723819061E0	2.407179594E0	9.710672379E0	-6.490531564E-1
3.732222082E0	2.254039049E0	9.662816048E0	-5.778666735E-1
3.740625103E0	2.183450699E0	9.616754532E0	-4.588237405E-1
3.749028124E0	2.212762833E0	9.559326172E0	-4.103690982E-1
3.757431145E0	2.346162558E0	9.434301376E0	-3.726821244E-1
3.765834165E0	2.507079840E0	9.225527763E0	-3.218346536E-1
3.774237186E0	2.568096876E0	9.061619759E0	-1.992024779E-1
3.782640207E0	2.594418049E0	9.077172279E0	-1.722832322E-1
3.791043228E0	2.583052158E0	9.201599121E0	-2.045863420E-1
3.799446249E0	2.487339020E0	9.279964447E0	-2.404786795E-1
3.807849270E0	2.358126640E0	9.312267303E0	-2.524427772E-1
3.816252290E0	2.285743713E0	9.308678627E0	-3.732803464E-1
3.824655311E0	2.252842426E0	9.342177391E0	-4.689932466E-1
3.833058332E0	2.233700037E0	9.323633194E0	-3.864408433E-1
3.841461353E0	2.280958176E0	9.279964447E0	-3.206382394E-1
3.849864374E0	2.377867460E0	9.290732384E0	-3.086741269E-1
3.858267395E0	2.486142635E0	9.361918449E0	-4.624129832E-1
3.866670415E0	2.417349100E0	9.482157707E0	-5.455635786E-1
3.875073436E0	2.305484533E0	9.594620705E0	-5.114658475E-1
3.883476457E0	2.293520451E0	9.625727654E0	-6.532405615E-1
3.891879478E0	2.394019127E0	9.696315765E0	-7.938188910E-1
3.900282499E0	2.379662037E0	9.716055870E0	-7.118647099E-1
3.908685520E0	2.297109842E0	9.613164902E0	-5.617151260E-1
3.917088540E0	2.294118643E0	9.502496719E0	-4.564309120E-1
3.925491561E0	2.361716032E0	9.491130829E0	-5.563312769E-1
3.933894582E0	2.347358942E0	9.511469841E0	-5.940182209E-1
3.942297603E0	2.338984251E0	9.525228500E0	-6.843472719E-1
3.950700624E0	2.401795626E0	9.499505997E0	-7.543373108E-1
3.959103645E0	2.417947292E0	9.524630547E0	-7.680960894E-1
3.967506665E0	2.322832584E0	9.547362328E0	-7.800601721E-1
3.975909686E0	2.260020971E0	9.552745819E0	-8.476574421E-1
3.984312707E0	2.311466694E0	9.608379364E0	-1.000199914E0
3.992715728E0	2.363510609E0	9.705886841E0	-1.150349498E0
4.001118749E0	2.381456852E0	9.748359680E0	-9.972088337E-1
4.009521770E0	2.395813704E0	9.646066666E0	-7.794619799E-1
4.017924790E0	2.583650351E0	9.635298729E0	-7.082754970E-1
4.026327811E0	2.715255499E0	9.733404160E0	-6.987041831E-1
4.034730832E0	2.785843849E0	9.896116257E0	-7.052844763E-1
4.043133853E0	2.840878725E0	1.000139999E1	-7.519445419E-1
4.051536874E0	2.780459881E0	1.008814049E1	-7.519445419E-1
4.059939895E0	2.729612350E0	1.017846966E1	-7.495517135E-1
4.068342915E0	2.874378204E0	1.026700401E1	-9.732806087E-1
4.076745936E0	2.984447956E0	1.016889763E1	-1.142572761E0
4.085148957E0	2.941377163E0	9.938589096E0	-1.223330617E0
4.093551978E0	2.959921598E0	9.653244972E0	-1.360917926E0
4.101954999E0	3.038884640E0	9.435498238E0	-1.505085468E0
4.110358020E0	3.197409153E0	9.346963882E0	-1.533799291E0
4.118761040E0	3.378665686E0	9.376275063E0	-1.585843205E0
4.127164061E0	3.628715515E0	9.547960281E0	-1.532602906E0
4.135567082E0	3.774079561E0	9.670592308E0	-1.490130305E0
4.143970103E0	3.771088600E0	9.860223770E0	-1.422533035E0
4.152373124E0	3.663411379E0	1.004267693E1	-1.424925923E0
4.160776145E0	3.450450182E0	1.000917721E1	-1.495514154E0
4.169179165E0	3.304488182E0	9.838688850E0	-1.505683661E0
4.177582186E0	3.178266764E0	9.592825890E0	-1.540977836E0
4.185985207E0	3.022135019E0	9.385248184E0	-1.560120344E0
4.194388228E0	2.889931440E0	9.319445610E0	-1.637288928E0
4.202791249E0	2.784049034E0	9.429515839E0	-1.658226132E0
4.211194270E0	2.621935368E0	9.540184021E0	-1.657029629E0
4.219597290E0	2.476571321E0	9.547960281E0	-1.715653777E0
4.228000311E0	2.408375978E0	9.562317848E0	-1.712662816E0
4.236403332E0	2.364108801E0	9.664012909E0	-1.613958836E0
4.244806353E0	2.349751949E0	9.820143700E0	-1.643869162E0
4.253209374E0	2.295315027E0	9.890133858E0	-1.587039590E0
4.261612395E0	2.225325108E0	9.767501831E0	-1.563709617E0
4.270015415E0	2.245065928E0	9.619745255E0	-1.522433400E0
4.278418436E0	2.522035122E0	9.545567513E0	-1.486541033E0
4.286821457E0	2.883351326E0	9.516255379E0	-1.537388563E0
4.295224478E0	3.186641455E0	9.512666702E0	-1.534397483E0
4.303627499E0	3.460619688E0	9.495318413E0	-1.599003673E0
4.312030520E0	3.595814228E0	9.559326172E0	-1.564906001E0
4.320433540E0	3.470789194E0	9.726225853E0	-1.404586911E0
4.328836561E0	3.007179976E0	9.931410789E0	-1.143769264E0
4.337239582E0	2.144567251E0	1.000678444E1	-6.041877270E-1
4.345642603E0	1.157527924E0	9.672387123E0	-3.894318938E-1
4.354045624E0	5.712863803E-1	9.231510162E0	-6.131607890E-1
4.362448645E0	3.798605800E-1	8.970093727E0	-9.104689956E-1
4.370851665E0	1.531406492E-1	8.964710236E0	-1.091725349E0
4.379254686E0	-9.571290761E-2	9.058628082E0	-1.112662554E0
4.387657707E0	-1.519442350E-1	9.089137077E0	-1.046859860E0
4.396060728E0	6.640082598E-2	8.982057571E0	-1.069591761E0
4.404463749E0	2.368894368E-1	8.942576408E0	-1.077966571E0
4.412866770E0	1.884347796E-1	8.952147484E0	-1.061815023E0
4.421269790E0	3.170489892E-2	8.900702477E0	-1.096511006E0
4.429672811E0	7.896314561E-2	8.823533058E0	-1.280758262E0
4.438075832E0	3.768695593E-1	8.978468895E0	-1.423729420E0
4.446478853E0	5.820540786E-1	9.234500885E0	-1.322632670E0
4.454881874E0	7.064808607E-1	9.346364975E0	-1.292722464E0
4.463290706E0	9.200403094E-1	9.381061554E0	-1.345364571E0
4.471693726E0	9.206385016E-1	9.378069878E0	-1.211964726E0
4.480096747E0	8.697910309E-1	9.332008362E0	-1.230509043E0
4.488499768E0	9.379864931E-1	9.437292099E0	-1.271187067E0
4.496902789E0	9.397810698E-1	9.529416084E0	-1.211964726E0
4.505305810E0	1.067198873E0	9.626325607E0	-1.366301775E0
4.513708831E0	1.219741344E0	9.866206169E0	-1.485344648E0
4.522111851E0	1.220339537E0	1.014197922E1	-1.463211060E0
4.530514872E0	1.311864972E0	1.027896786E1	-1.507478237E0
4.538917893E0	1.472782373E0	1.029870892E1	-1.657029629E0
4.547320914E0	1.539781332E0	1.034836006E1	-1.597209096E0
4.555723935E0	1.526620865E0	1.037767220E1	-1.539183140E0
4.564126956E0	1.646860242E0	1.042792130E1	-1.621735573E0
4.572529976E0	1.705484390E0	1.054158020E1	-1.644467354E0
4.580932997E0	1.737189293E0	1.055055332E1	-1.660020709E0
4.589336018E0	1.935195327E0	1.060080242E1	-1.794018745E0
4.597739039E0	2.182852507E0	1.072582722E1	-1.947159410E0
4.606142060E0	2.350350142E0	1.085862923E1	-2.042872429E0
4.614545081E0	2.226521492E0	1.084726334E1	-1.919043779E0
4.622948101E0	1.899302959E0	1.066062355E1	-1.801795483E0
4.631351122E0	1.741974831E0	1.045484066E1	-1.941775560E0
4.639754143E0	1.847857237E0	1.043809032E1	-2.050648928E0
4.648157164E0	2.078764677E0	1.052841949E1	-1.951346874E0
4.656560185E0	2.151745796E0	1.055773163E1	-1.872383714E0
4.664963206E0	2.054238319E0	1.056132126E1	-1.900499344E0
4.673366226E0	1.991426587E0	1.046022415E1	-1.996212244E0
4.681769247E0	2.043470621E0	1.046082211E1	-2.140379906E0
4.690172268E0	1.959721804E0	1.043749237E1	-2.091326952E0
4.698575289E0	1.798804402E0	1.021376324E1	-2.069193363E0
4.706978310E0	2.031506538E0	9.917651176E0	-1.931007862E0
4.715381331E0	2.519642353E0	9.708877563E0	-1.845464468E0
4.723784351E0	2.804388046E0	9.670592308E0	-1.681556106E0
4.732187372E0	2.660818815E0	9.659825325E0	-1.689931035E0
4.740590393E0	2.180459738E0	9.492925644E0	-1.882553220E0
4.748993414E0	1.704287887E0	9.249456406E0	-1.983649969E0
4.757396435E0	1.439880967E0	9.050253868E0	-2.123031855E0
4.765799456E0	1.191625714E0	8.982057571E0	-2.285145521E0
4.774202476E0	1.186241865E0	8.967103004E0	-2.428714991E0
4.782605497E0	1.275374413E0	8.961718559E0	-2.489133835E0
4.791008518E0	1.254437327E0	9.002396584E0	-2.501097918E0
4.799411539E0	1.223330617E0	9.103493690E0	-2.520838737E0
4.807814560E0	1.304088354E0	9.004191399E0	-2.532204628E0
4.816217581E0	1.624726534E0	8.655437469E0	-2.397010088E0
4.824620601E0	2.377867460E0	8.138587952E0	-2.458027124E0
4.833023622E0	3.645465374E0	7.826922894E0	-2.937189817E0
4.841426643E0	4.801198483E0	8.039285660E0	-2.988037348E0
4.849829664E0	5.291727066E0	8.745766640E0	-1.634896040E0
4.858232685E0	4.692325115E0	9.017950058E0	-7.369893789E-1
4.866635706E0	3.574877024E0	8.656036377E0	-1.228116274E0
4.875038726E0	2.664407969E0	8.260024071E0	-2.023729801E0
4.883441747E0	2.280359983E0	8.176275253E0	-2.554338217E0
4.891844768E0	2.398804665E0	8.401200294E0	-2.673381090E0
4.900247789E0	2.623131752E0	8.685347557E0	-2.513660192E0
4.908650810E0	2.847458839E0	8.827122688E0	-2.246262312E0
4.917053831E0	3.158525944E0	8.836095810E0	-1.883749604E0
4.925456851E0	3.477369547E0	8.733802795E0	-1.784447432E0
4.933859872E0	3.769293785E0	8.741579056E0	-1.868196249E0
4.942262893E0	3.824927092E0	9.150154114E0	-1.753340840E0
4.950665914E0	2.927618504E0	9.910472870E0	-1.135394335E0
4.959068935E0	1.068993568E0	1.101715374E1	-1.435693540E-2
4.967471956E0	-1.582253933E0	1.253958702E1	1.241874933E0
4.975874976E0	-4.202394962E0	1.423908901E1	2.633899450E0
4.984277997E0	-6.345167637E0	1.519262886E1	3.442075491E0
4.992681018E0	-7.428517818E0	1.480738449E1	2.779861689E0
5.001084039E0	-6.696314335E0	1.291765308E1	6.711867452E-1
5.009487060E0	-2.633301258E0	1.094836044E1	-1.121037364E0
5.017890081E0	4.187439755E-2	9.226723671E0	-2.428116798E0
5.026293101E0	1.123430252E0	8.187042236E0	-3.031108141E0
5.034696122E0	9.774680734E-1	7.825726509E0	-2.218744755E0
5.043099143E0	7.154539824E-1	7.974081516E0	-5.802595019E-1
5.051502164E0	9.433703423E-1	8.718249321E0	5.641079545E-1
5.059905185E0	1.412363529E0	9.635298729E0	7.836494446E-1
5.068308206E0	1.534995675E0	1.024606609E1	8.003991842E-1
5.076711226E0	1.101894855E0	1.045663452E1	9.601200819E-1
5.085114247E0	4.444667995E-1	1.031246758E1	1.200598717E0
5.093517268E0	5.204389244E-2	9.922437668E0	1.152144074E0
5.101920289E0	1.256231815E-1	9.629316330E0	7.286145091E-1
5.110323310E0	3.966103494E-1	9.608379364E0	3.044866920E-1
5.118726331E0	6.101697683E-1	9.844072342E0	8.315058798E-2
5.127129351E0	6.077769399E-1	1.011805058E1	9.810572863E-2
5.135532372E0	2.973082066E-1	1.026161957E1	1.692921966E-1
5.143935393E0	-2.476571500E-1	1.018026352E1	3.613162339E-1
5.152338414E0	-6.933203340E-1	1.003908730E1	3.672982752E-1
5.160741435E0	-6.610172391E-1	9.990633011E0	6.879365444E-2
5.169144456E0	-2.297109663E-1	9.914660454E0	-2.488535494E-1
5.177547476E0	2.213360965E-1	9.844072342E0	-3.936193287E-1
5.185950497E0	4.731806815E-1	9.871589661E0	-1.387837082E-1
5.194353518E0	5.617151260E-1	9.891330719E0	2.207378894E-1
5.202756539E0	5.132604837E-1	9.817152977E0	4.737788737E-1
5.211159560E0	3.014956415E-1	9.667003632E0	5.874379873E-1
5.219562581E0	9.152546525E-2	9.652048111E0	6.340979934E-1
5.227965601E0	-3.230310604E-2	9.712467194E0	5.557330847E-1
5.236368622E0	-1.333998591E-1	9.776474953E0	4.025924206E-1
5.244771643E0	-1.812563092E-1	9.777671814E0	2.548356056E-1
5.253174664E0	-1.441675574E-1	9.754940033E0	-6.281159073E-2
5.261577685E0	-1.190429255E-1	9.815957069E0	-1.483550072E-1
5.269980706E0	-2.530409992E-1	9.855438232E0	6.520441920E-2
5.278383726E0	-3.960121572E-1	9.867402077E0	4.145565331E-1
5.286786747E0	-7.914260626E-1	9.784252167E0	9.625129104E-1
5.295189768E0	-1.383649707E0	9.762716293E0	1.127019525E0
5.303592789E0	-9.026923180E-1	9.766903877E0	5.856433511E-1
5.311995810E0	2.805584669E-1	9.717252731E0	-2.410768867E-1
5.320398831E0	1.290927768E0	9.791430473E0	-4.199403822E-1
5.328801851E0	1.661815286E0	9.811170578E0	6.819544733E-2
5.337204872E0	1.415354609E0	9.672985077E0	5.318048596E-1
5.345607893E0	1.164108157E0	9.628120422E0	4.695914388E-1
5.354010914E0	9.607182741E-1	9.736394882E0	3.020938635E-1
5.362413935E0	7.890332937E-1	9.857233047E0	8.494520187E-2
5.370816956E0	8.243274093E-1	9.894919395E0	-1.645065546E-1
5.379219976E0	1.051047325E0	9.851250648E0	-1.824527234E-1
5.387622997E0	1.241276741E0	9.751350403E0	-1.016949639E-1
5.396026018E0	1.250249863E0	9.688538551E0	-2.578266263E-1
5.404429039E0	1.180858016E0	9.781260490E0	-3.667000830E-1
5.412832060E0	1.006181955E0	9.893723488E0	-2.919243574E-1
5.421235081E0	8.847461939E-1	9.932008743E0	-2.548356056E-1
5.429638101E0	8.991031051E-1	9.848857880E0	-3.200400174E-1
5.438041122E0	1.070189953E0	9.755537987E0	-1.938186288E-1
5.446444143E0	1.234696507E0	9.692726135E0	-1.794617064E-2
5.454847164E0	1.252044439E0	9.687940598E0	1.142572835E-1
5.463250185E0	1.135992527E0	9.669396400E0	1.926222295E-1
5.471653206E0	1.013958573E0	9.685547829E0	2.763710022E-1
5.480056226E0	8.793623447E-1	9.715457916E0	3.188436031E-1
5.488459247E0	7.244270444E-1	9.756135941E0	3.296113312E-1
5.496862268E0	6.430711150E-1	9.757930756E0	3.020938635E-1
5.505265289E0	7.842476368E-1	9.709476471E0	2.297109663E-1
5.513668310E0	1.043270707E0	9.662816048E0	2.207378894E-1
5.522071331E0	1.232303619E0	9.623334885E0	1.998006850E-1
5.530474351E0	1.261017561E0	9.595816612E0	2.219343036E-1
5.538877372E0	1.165902853E0	9.643074989E0	3.212364316E-1
5.547280393E0	1.173081279E0	9.631111145E0	2.356930375E-1
5.555683414E0	1.126421213E0	9.628120422E0	1.980060786E-1
5.564086435E0	9.493523836E-1	9.704689980E0	3.595215976E-1
5.572489456E0	8.476574421E-1	9.712467194E0	2.482553422E-1
5.580892476E0	8.291130662E-1	9.717252731E0	4.881358147E-1
5.589295497E0	7.609176040E-1	9.732208252E0	4.983053207E-1
5.597698518E0	9.726824164E-1	9.684949875E0	4.845465720E-2
5.606101539E0	1.338186026E0	9.633503914E0	-4.785645381E-2
5.614504560E0	1.518245935E0	9.606584549E0	7.597211748E-2
5.622907581E0	1.581057549E0	9.603593826E0	2.602194548E-1
5.631310601E0	1.600200176E0	9.628120422E0	3.026920557E-1
5.639713622E0	1.626521230E0	9.640084267E0	2.955136001E-1
5.648116643E0	1.655235052E0	9.622735977E0	2.231307179E-1
5.656519664E0	1.646860242E0	9.589835167E0	1.310070455E-1
5.664922685E0	1.552343726E0	9.584450722E0	1.543370634E-1
5.673325706E0	1.374676585E0	9.666405678E0	3.565305769E-1
5.681728726E0	1.284945726E0	9.734002113E0	2.344966233E-1
5.690131747E0	1.420738459E0	9.751948357E0	-1.579262912E-1
5.698534768E0	1.734198213E0	9.690931320E0	-1.956132501E-1
5.706937789E0	1.973480463E0	9.621540070E0	-5.024927482E-2
5.715340810E0	2.055434704E0	9.570094109E0	6.340979785E-2
5.723743831E0	2.049452543E0	9.549755096E0	1.238285750E-1
5.732146851E0	1.948953986E0	9.515657425E0	1.746760458E-1
5.740549872E0	1.863410592E0	9.494122505E0	1.752742529E-1
5.748952893E0	1.842473388E0	9.509675026E0	1.082752272E-1
5.757355914E0	1.833500385E0	9.519845009E0	8.255238086E-2
5.765758935E0	1.879562140E0	9.496515274E0	7.238288224E-2
5.774161956E0	1.888535261E0	9.476774216E0	1.603191197E-1
5.782564976E0	1.804786444E0	9.605986595E0	2.057827413E-1
5.790967997E0	1.811964989E0	9.728020668E0	-7.298108935E-2
5.799371018E0	1.957927108E0	9.738189697E0	-2.763710022E-1
5.807774039E0	2.114058733E0	9.638289452E0	-3.553341627E-1
5.816177060E0	2.316850424E0	9.583254814E0	-3.433700502E-1
5.824580081E0	2.353341103E0	9.557532310E0	-3.708875179E-1
5.832983101E0	2.385046005E0	9.518648148E0	-5.264210105E-1
5.841386122E0	2.457428932E0	9.460622787E0	-6.478567123E-1
5.849789143E0	2.438286304E0	9.445667267E0	-7.513462901E-1
5.858192164E0	2.387438774E0	9.462417603E0	-7.686942816E-1
5.866595185E0	2.364706993E0	9.451649666E0	-8.356932998E-1
5.874998206E0	2.435893536E0	9.456435204E0	-9.122636318E-1
5.883401226E0	2.547159672E0	9.486345291E0	-8.578268886E-1
5.891804247E0	2.697309256E0	9.500701904E0	-7.878368497E-1
5.900207268E0	2.906681299E0	9.501300812E0	-7.070791125E-1
5.908610289E0	3.051447153E0	9.549157143E0	-5.814558864E-1
5.917013310E0	3.134597778E0	9.670592308E0	-4.241278172E-1
5.925416331E0	3.241078377E0	1.006660461E1	-2.261217386E-1
5.933819351E0	3.282952785E0	1.052064323E1	-6.520441920E-2
5.942222372E0	3.443271875E0	1.077787113E1	1.166501045E-1
5.950625393E0	3.715455294E0	1.061276627E1	-4.247260094E-2
5.959028414E0	3.693919897E0	9.932606697E0	-3.571287692E-1
5.967431435E0	3.425923824E0	9.147162437E0	-5.676971674E-1
5.975834456E0	3.075973511E0	8.847461700E0	-9.469595551E-1
5.984237476E0	2.786442041E0	9.062815666E0	-1.254437327E0
5.992640497E0	2.659024239E0	9.459425926E0	-1.522433400E0
6.001043518E0	2.721835852E0	9.654440880E0	-1.639083505E0
6.009446539E0	2.824727058E0	9.735796928E0	-1.412961721E0
6.017849560E0	2.827120066E0	9.912267685E0	-1.232303619E0
6.026252581E0	2.836092949E0	1.013420200E1	-1.195214868E0
6.034655601E0	2.776272535E0	1.017129040E1	-1.174875975E0
6.043058622E0	2.581257343E0	1.000259686E1	-1.142572761E0
6.051461643E0	2.346760750E0	9.856635094E0	-1.161117196E0
6.059864664E0	2.174477577E0	9.885947227E0	-1.222134113E0
6.068267685E0	2.069193363E0	1.000618649E1	-1.230509043E0
6.076670706E0	2.021337032E0	1.015454102E1	-1.262812138E0
6.085073726E0	1.913061738E0	1.028076267E1	-1.310070395E0
6.093476747E0	1.897508383E0	1.049910736E1	-1.362114310E0
6.101879768E0	1.776072621E0	1.064148045E1	-1.459023595E0
6.110282789E0	1.552343726E0	1.058764172E1	-1.400997639E0
6.118685810E0	1.402194023E0	1.054098225E1	-1.392024517E0
6.127088831E0	1.365105271E0	1.049850941E1	-1.476969719E0
6.135491851E0	1.347159147E0	1.044706345E1	-1.509272933E0
6.143894872E0	1.275972724E0	1.033160973E1	-1.348953724E0
6.152297893E0	1.220937729E0	1.022632599E1	-1.233500123E0
6.160700914E0	1.192223907E0	1.017428207E1	-1.254437327E0
6.169103935E0	1.250848055E0	1.021974564E1	-1.235294700E0
6.177506956E0	1.322632670E0	1.021735287E1	-1.056431174E0
6.185909976E0	1.518844128E0	1.017787075E1	-9.577272534E-1
6.194312997E0	1.842473388E0	1.011206818E1	-8.841479421E-1
6.202716018E0	2.201396942E0	9.921838760E0	-9.278169870E-1
6.211119039E0	2.616551638E0	9.720842361E0	-9.990034699E-1
6.219522060E0	2.898904562E0	9.576076508E0	-9.439685345E-1
6.227925081E0	2.930609465E0	9.347561836E0	-7.495517135E-1
6.236328101E0	2.911466837E0	9.262616158E0	-7.298108935E-1
6.244731122E0	2.725425005E0	9.351749420E0	-5.682953596E-1
6.253134143E0	2.298306227E0	9.393623352E0	-2.494517565E-1
6.261537164E0	1.715653777E0	9.324830055E0	1.345962733E-1
6.269940185E0	1.202991605E0	9.086145401E0	8.374879509E-2
6.278343206E0	8.350951076E-1	8.834300995E0	-2.626122832E-1
6.286746226E0	6.323033571E-1	8.721240044E0	-5.042873621E-1
6.295149247E0	5.796613097E-1	8.797810555E0	-5.401797295E-1
6.303552268E0	4.983053207E-1	8.890532494E0	-5.192425251E-1
6.311955289E0	3.846462369E-1	8.846863747E0	-7.016952634E-1
6.320358310E0	3.559323549E-1	8.758329391E0	-8.662018180E-1
6.328761331E0	4.348955154E-1	8.697312355E0	-9.314061999E-1
6.337164351E0	4.797609448E-1	8.715258598E0	-9.092726111E-1
6.345567372E0	3.864408433E-1	8.724231720E0	-8.524430394E-1
6.353970393E0	3.266202807E-1	8.691927910E0	-9.655039310E-1
6.362373414E0	3.876372576E-1	8.724231720E0	-1.037288666E0
6.370776435E0	4.037888348E-1	8.719446182E0	-9.786644578E-1
6.379179456E0	5.850451589E-1	8.741579056E0	-1.130010486E0
6.387582476E0	7.968099117E-1	8.908478737E0	-1.147358418E0
6.395985497E0	9.702895880E-1	9.061619759E0	-1.134197950E0
6.404388518E0	1.182652593E0	9.236893654E0	-1.286142230E0
6.412791539E0	1.269990563E0	9.435498238E0	-1.240678549E0
6.421194560E0	1.270588875E0	9.513862610E0	-1.252044439E0
6.429597581E0	1.430907965E0	9.591629982E0	-1.374676585E0
6.438000601E0	1.584048629E0	9.655039787E0	-1.430907965E0
6.446403622E0	1.733600020E0	9.690931320E0	-1.531406522E0
6.454806643E0	1.838884234E0	9.787840843E0	-1.507478237E0
6.463209664E0	1.936989903E0	9.859027863E0	-1.521237016E0
6.471612685E0	2.134397745E0	9.931410789E0	-1.709073544E0
6.480015706E0	2.419741869E0	1.001216793E1	-1.890928149E0
6.488418726E0	2.709871531E0	1.014975548E1	-2.050050735E0
6.496821747E0	2.894717216E0	1.026221848E1	-2.091326952E0
6.505224768E0	2.978466034E0	1.020479012E1	-2.200798512E0
6.513627789E0	3.020340443E0	1.008156013E1	-2.333600283E0
6.522030810E0	2.992822886E0	1.002951622E1	-2.445464849E0
6.530433831E0	2.977867842E0	1.008036327E1	-2.589632273E0
6.538836851E0	2.727219582E0	1.019701385E1	-2.548356056E0
6.547239872E0	2.446661234E0	1.015394306E1	-2.391027927E0
6.555642893E0	2.426322222E0	1.005165005E1	-2.142772675E0
6.564045914E0	2.672782898E0	9.902098656E0	-2.003390789E0
6.572448935E0	3.117249727E0	9.807581902E0	-2.069791555E0
6.580851956E0	3.276970625E0	9.869196892E0	-1.959123492E0
6.589254976E0	2.895315409E0	9.954142570E0	-1.636690736E0
6.597657997E0	2.213959217E0	9.844670296E0	-1.594816327E0
6.606061018E0	1.682154298E0	9.674779892E0	-1.692921996E0
6.614464039E0	1.359721422E0	9.616754532E0	-1.840678811E0
6.622867060E0	1.189232826E0	9.838089943E0	-1.878963947E0
6.631270081E0	1.172483087E0	1.003549862E1	-1.766501307E0
6.639673101E0	1.231705427E0	1.001097202E1	-1.619342685E0
6.648076122E0	1.177268744E0	9.893723488E0	-1.384846091E0
6.656479143E0	9.930213690E-1	9.779465675E0	-1.224527001E0
6.664882164E0	7.794619799E-1	9.707083702E0	-1.227517962E0
6.673285185E0	6.041877270E-1	9.648459435E0	-1.293320656E0
6.681688206E0	4.935196638E-1	9.664610863E0	-1.414756417E0
6.690091226E0	3.912265003E-1	9.781859398E0	-1.691725612E0
6.698494247E0	3.403790295E-1	9.960722923E0	-1.845464468E0
6.706897268E0	3.254238665E-1	1.003968525E1	-1.769492388E0
6.715300289E0	3.786641955E-1	1.000319481E1	-1.634896040E0
6.723703310E0	5.784648657E-1	9.839286804E0	-1.609173179E0
6.732106331E0	8.356932998E-1	9.632905960E0	-1.511665702E0
6.740509351E0	1.109671474E0	9.491728783E0	-1.292124271E0
6.748912372E0	1.365105271E0	9.384052277E0	-1.240678549E0
6.757315393E0	1.536790371E0	9.386445045E0	-1.310668588E0
6.765718414E0	1.582253933E0	9.427721024E0	-1.402792215E0
6.774121435E0	1.638485312E0	9.477970123E0	-1.605584025E0
6.782524456E0	1.828714728E0	9.373284340E0	-1.948953986E0
6.790927476E0	2.016551256E0	9.410373688E0	-2.003988981E0
6.799330497E0	2.284547329E0	9.341579437E0	-1.858026743E0
6.807733518E0	2.624926329E0	9.179466248E0	-1.719841242E0
6.816136539E0	3.103491068E0	9.004191399E0	-1.631905079E0
6.824539560E0	3.478565931E0	8.926424980E0	-1.631306887E0
6.832942581E0	3.757927895E0	8.910273552E0	-1.705484390E0
6.841345601E0	4.098307133E0	8.951549530E0	-1.837687731E0
6.849748622E0	4.369892120E0	8.806783676E0	-2.035095692E0
6.858151643E0	4.650450706E0	8.590831757E0	-2.154736757E0
6.866554664E0	4.945964336E0	8.455636978E0	-2.077568293E0
6.874957685E0	5.255835056E0	8.613563538E0	-1.954936147E0
6.883360706E0	5.178068161E0	9.136395454E0	-1.488335729E0
6.891763726E0	3.504886866E0	9.494720459E0	-4.857429862E-1
6.900166747E0	9.056833982E-1	9.754940033E0	7.004988194E-1
6.908569768E0	-1.695913076E0	1.027836990E1	1.905285001E0
6.916972789E0	-4.106083870E0	1.107338524E1	2.807379246E0
6.925375810E0	-5.922235966E0	1.196949673E1	3.110071182E0
6.933778831E0	-7.285546780E0	1.257428265E1	2.134397745E0
6.942181851E0	-6.897311211E0	1.276271820E1	1.381855011E-1
6.950584872E0	-3.684946775E0	1.245464230E1	-1.819741607E0
6.958987893E0	-4.205385745E-1	1.129591751E1	-3.189632654E0
6.967390914E0	1.386640668E0	9.795019150E0	-3.533002615E0
6.975793935E0	2.234896421E0	8.691329956E0	-2.577668190E0
6.984196956E0	2.468794823E0	8.209176064E0	-8.787640929E-1
6.992599976E0	2.250449657E0	8.331210136E0	2.877369225E-1
7.001002997E0	2.242672920E0	8.882157326E0	5.036891699E-1
7.009406018E0	2.348555326E0	9.634101868E0	2.506481707E-1
7.017809039E0	2.032104731E0	1.027298546E1	1.154536903E-1
7.026212060E0	1.274776220E0	1.056191921E1	4.313062727E-1
7.034615081E0	5.395814776E-1	1.044766140E1	7.387840152E-1
7.043018101E0	-1.615155302E-2	1.010967541E1	6.544370055E-1
7.051421122E0	-3.050848842E-1	9.823733330E0	-4.725824669E-2
7.059824143E0	-4.037888348E-1	9.784850121E0	-7.686942816E-1
7.068227164E0	-4.019941986E-1	9.946963310E0	-1.012163997E0
7.076630185E0	-1.579262912E-1	1.018265629E1	-8.847461939E-1
7.085033206E0	2.919243574E-1	1.031366348E1	-8.153542876E-1
7.093436226E0	7.645068169E-1	1.027178955E1	-8.859425783E-1
7.101839247E0	1.109671474E0	1.015693378E1	-8.297112584E-1
7.110242268E0	1.359123230E0	9.978070259E0	-5.216353536E-1
7.118645289E0	1.398006678E0	9.790233612E0	-1.848455518E-1
7.127048310E0	1.080957651E0	9.684949875E0	1.525424421E-1
7.135451331E0	4.522434771E-1	9.707681656E0	1.142572835E-1
7.143854351E0	2.691925503E-2	9.739984512E0	-7.657032460E-2
7.152257372E0	-2.446661144E-1	9.798010826E0	-2.075773627E-1
7.160660393E0	-2.811566591E-1	9.863214493E0	-2.907279432E-1
7.169063414E0	-1.118644550E-1	9.855438232E0	-3.134597540E-1
7.177466435E0	2.422732860E-1	9.769296646E0	-3.224328458E-1
7.185869456E0	5.371887088E-1	9.718449593E0	-4.552344978E-1
7.194272476E0	6.358926296E-1	9.733404160E0	-5.084748268E-1
7.202675497E0	6.125625968E-1	9.792028427E0	-2.482553422E-1
7.211078518E0	4.438686073E-1	9.823135376E0	-5.144568533E-2
7.219481539E0	3.158525825E-1	9.911071777E0	-9.451649338E-2
7.227884560E0	4.199403822E-1	9.866804123E0	-2.249253243E-1
7.236287581E0	5.826523304E-1	9.783653259E0	-6.819544733E-2
7.244690601E0	7.908278704E-1	9.810572624E0	1.016949639E-1
7.253093622E0	1.009771109E0	9.742975235E0	5.084748194E-2
7.261496643E0	1.353141189E0	9.685547829E0	-1.680957973E-1
7.269899664E0	1.649253011E0	9.702896118E0	-1.956132501E-1
7.278302685E0	1.718644857E0	9.702896118E0	-2.548356056E-1
7.286705706E0	1.696511269E0	9.742377281E0	-3.445664644E-1
7.295108726E0	1.670788407E0	9.864411354E0	-1.561316848E-1
7.303511747E0	1.693520188E0	9.806385040E0	-6.999006122E-2
7.311914768E0	1.836491346E0	9.687342644E0	-5.563312769E-2
7.320317789E0	1.938186288E0	9.622735977E0	4.606183618E-2
7.328720810E0	1.801795483E0	9.604191780E0	3.050848842E-2
7.337123831E0	1.701895118E0	9.685547829E0	3.110669367E-2
7.345526851E0	1.734796405E0	9.707681656E0	1.974078640E-2
7.353929872E0	1.966900229E0	9.598808289E0	-2.279163599E-1
7.362332893E0	2.199003935E0	9.573084831E0	-1.651047617E-1
7.370735914E0	2.233700037E0	9.580862045E0	9.571290575E-3
7.379138935E0	2.170888424E0	9.487542152E0	-2.333002165E-2
7.387541956E0	2.138585329E0	9.488738060E0	-1.142572835E-1
7.395944976E0	2.098505497E0	9.582656860E0	-1.465603858E-1
7.404347997E0	1.990828395E0	9.644271851E0	-1.286142170E-1
7.412751018E0	1.844866276E0	9.614959717E0	-4.546362907E-2
7.421154039E0	1.866999865E0	9.557532310E0	3.649054468E-2
7.429557060E0	2.057827473E0	9.490532875E0	1.196411345E-2
7.437960081E0	2.220539331E0	9.479166985E0	4.666004330E-2
7.446363101E0	2.169093609E0	9.521639824E0	1.453639716E-1
7.454766122E0	2.048256159E0	9.573084831E0	1.136590764E-1
7.463169143E0	1.908874273E0	9.568299294E0	4.127619043E-2
7.471572164E0	1.828714728E0	9.652048111E0	-1.698904037E-1
7.479975185E0	1.786242127E0	9.748359680E0	-2.117647976E-1
7.488378206E0	1.814955950E0	9.711869240E0	-2.327020019E-1
7.496781226E0	1.913061738E0	9.614959717E0	-2.667997181E-1
7.505184247E0	1.922633052E0	9.610772133E0	-2.249253243E-1
7.513587268E0	1.961516380E0	9.479764938E0	-3.134597540E-1
7.521990289E0	2.052443504E0	9.361320496E0	-4.091726840E-1
7.530393310E0	2.100300074E0	9.422337532E0	-3.882354796E-1
7.538796331E0	2.197807550E0	9.486943245E0	-3.361915946E-1
7.547199351E0	2.333600283E0	9.445069313E0	-2.566302419E-1
7.555602372E0	2.375474691E0	9.376873970E0	-2.494517565E-1
7.564005393E0	2.307877541E0	9.372088432E0	-2.877369225E-1
7.572408414E0	2.210968018E0	9.394820213E0	-3.649054468E-1
7.580811435E0	2.139183521E0	9.421140671E0	-3.708875179E-1
7.589214456E0	2.097309113E0	9.525228500E0	-4.307080805E-1
7.597617476E0	2.114058733E0	9.627521515E0	-4.444667995E-1
7.606020497E0	2.196611166E0	9.653842926E0	-4.396811724E-1
7.614423518E0	2.333600283E0	9.582057953E0	-3.122633696E-1
7.622826539E0	2.438884497E0	9.439684868E0	-3.361915946E-1
7.631229560E0	2.466402054E0	9.413962364E0	-3.032902777E-1
7.639632581E0	2.431107759E0	9.446864128E0	-3.128615618E-1
7.648035601E0	2.432902336E0	9.382257462E0	-3.714857101E-1
7.656438622E0	2.514856577E0	9.338588715E0	-4.127618968E-1
7.664841643E0	2.560320139E0	9.442676544E0	-3.726821244E-1
7.673244664E0	2.532204628E0	9.553344727E0	-2.344966233E-1
7.681647685E0	2.550150633E0	9.527023315E0	-2.135594189E-1
7.690050706E0	2.606382132E0	9.425926208E0	-1.752742529E-1
7.698453726E0	2.619542599E0	9.344570160E0	-3.044866920E-1
7.706856747E0	2.600399971E0	9.345767021E0	-3.655036688E-1
7.715259768E0	2.674577475E0	9.330811501E0	-4.049852192E-1
7.723662789E0	2.808575630E0	9.334999084E0	-4.169493318E-1
7.732065810E0	2.921636343E0	9.375079155E0	-4.606183469E-1
7.740468831E0	2.994617462E0	9.440881729E0	-4.971089065E-1
7.748871851E0	2.989831924E0	9.466604233E0	-5.335994363E-1
7.757274872E0	2.891128063E0	9.509077072E0	-6.287141442E-1
7.765677893E0	2.779263496E0	9.552745819E0	-7.603194118E-1
7.774080914E0	2.645265341E0	9.482755661E0	-8.668000102E-1
7.782483935E0	2.493919373E0	9.444471359E0	-8.650053740E-1
7.790886956E0	2.410170555E0	9.483354568E0	-8.626125455E-1
7.799289976E0	2.354537487E0	9.574281693E0	-8.835497499E-1
7.807692997E0	2.178664923E0	9.596415520E0	-9.487541914E-1
7.816096018E0	2.102094650E0	9.585049629E0	-9.140582681E-1
7.824499039E0	2.024327993E0	9.563513756E0	-8.745766878E-1
7.832902060E0	1.927418590E0	9.661021233E0	-7.429714203E-1
7.841305081E0	1.875374794E0	1.010548782E1	-4.498506486E-1
7.849708101E0	2.009970903E0	1.146760273E1	-1.196411345E-2
7.858111122E0	2.453241348E0	1.357508087E1	4.540380836E-1
7.866514143E0	3.155534744E0	1.485763359E1	2.123630047E-1
7.874917164E0	3.692125320E0	1.402911949E1	-5.132604837E-1
7.883320185E0	3.448057413E0	1.189531994E1	-1.077368379E0
7.891723206E0	2.249851465E0	1.023769188E1	-1.692323804E0
7.900126226E0	1.110867858E0	9.878170013E0	-2.035693884E0
7.908529247E0	6.466603279E-1	9.952347755E0	-2.475973129E0
7.916932268E0	3.014956415E-1	1.041535854E1	-2.118246317E0
7.925335289E0	-4.342973232E-1	1.025743294E1	-2.067398787E0
7.933738310E0	-1.316052489E-2	1.026760197E1	-2.242672920E0
7.942141331E0	8.949156404E-1	1.083290672E1	-2.044667006E0
7.950544351E0	1.413560033E0	1.121994495E1	-1.590628862E0
7.958947372E0	1.794018745E0	1.092084217E1	-1.277169108E0
7.967350393E0	2.192423820E0	1.034536839E1	-1.076171994E0
7.975753414E0	2.251047850E0	9.878767967E0	-9.355936646E-1
7.984156435E0	2.109273195E0	9.650253296E0	-8.309076428E-1
7.992559456E0	2.092523336E0	9.598808289E0	-8.045865893E-1
8.000962476E0	2.174477577E0	9.586843491E0	-8.787640929E-1
8.009365497E0	2.255235434E0	9.588638306E0	-9.672985673E-1
8.017768518E0	2.364108801E0	9.684351921E0	-1.006181955E0
8.026171539E0	2.436491728E0	9.815358162E0	-7.842476368E-1
8.034574560E0	2.285145521E0	9.783653259E0	-3.684946895E-1
8.042977581E0	1.984846354E0	9.637691498E0	2.512463741E-2
8.051380601E0	1.667199135E0	9.571290970E0	2.548356056E-1
8.059783622E0	1.424327731E0	9.615557671E0	4.671986103E-1
8.068186643E0	1.204786181E0	9.628120422E0	5.246263742E-1
8.076589664E0	8.961120844E-1	9.632308006E0	3.643072546E-1
8.084992685E0	4.677968323E-1	9.614959717E0	2.195414752E-1
8.093395706E0	1.986042857E-1	9.444471359E0	7.298108935E-2
8.101798726E0	1.232303679E-1	9.198608398E0	-1.363908947E-1
8.110201747E0	5.204389244E-2	8.954540253E0	-1.698904037E-1
8.118604768E0	3.194418252E-1	8.733802795E0	-3.792623878E-1
8.127007789E0	8.428717852E-1	8.675178528E0	-5.742774606E-1
8.135410810E0	1.084546804E0	8.706285477E0	-3.014956415E-1
8.143813831E0	1.296909928E0	8.645268440E0	-3.367897868E-1
8.152216851E0	1.329811215E0	8.752346992E0	-3.738785386E-1
8.160619872E0	5.401797295E-1	8.589036942E0	1.399801224E-1
8.169022893E0	2.847459018E-1	8.148757935E0	-2.554338276E-1
8.177425914E0	5.569294691E-1	8.181658745E0	-5.527420044E-1
8.185828935E0	7.543373108E-1	8.504690170E0	-4.803591371E-1
8.194231956E0	1.156929731E0	8.913862228E0	-6.658028960E-1
8.202634976E0	1.409970760E0	9.354142189E0	-7.764709592E-1
8.211037997E0	1.269392371E0	9.355937004E0	-5.473581553E-1
8.219441018E0	1.399203062E0	9.176474571E0	-8.805587292E-1
8.227844039E0	1.375274777E0	9.416953087E0	-8.081758618E-1
8.236247060E0	8.973084688E-1	9.573084831E0	-6.496513486E-1
8.244650081E0	7.579265833E-1	9.600004196E0	-9.613165259E-1
8.253053101E0	9.828519225E-1	9.680164337E0	-1.327418327E0
8.261456122E0	1.027717352E0	9.844072342E0	-1.265803218E0
8.269859143E0	1.005583763E0	1.002831936E1	-1.091725349E0
8.278262164E0	1.210170031E0	1.015214825E1	-1.152742267E0
8.286665185E0	1.497906923E0	1.025623608E1	-1.296311617E0
8.295068206E0	1.679163337E0	1.028734303E1	-1.293918848E0
8.303471226E0	1.755733609E0	1.028375340E1	-1.384846091E0
8.311874247E0	1.881955028E0	1.032502937E1	-1.503290772E0
8.320277268E0	1.930409670E0	1.042014408E1	-1.427916884E0
8.328680289E0	1.835893154E0	1.036869907E1	-1.251446247E0
8.337083310E0	1.801197290E0	1.021137047E1	-1.515254974E0
8.345486331E0	1.870589137E0	1.022154045E1	-1.913061738E0
8.353889351E0	1.714457393E0	1.039681435E1	-2.005783558E0
8.362292372E0	1.403988719E0	1.043091202E1	-1.951945066E0
8.370695393E0	1.196411371E0	1.029272652E1	-2.011765718E0
8.379098414E0	1.246660590E0	1.016710377E1	-2.018345833E0
8.387501435E0	1.475773335E0	1.013958549E1	-1.896910191E0
8.395904456E0	1.792224169E0	1.026580715E1	-1.820339799E0
8.404307476E0	2.022533417E0	1.043988514E1	-1.757528186E0
8.412710497E0	2.051247120E0	1.062293625E1	-1.797608018E0
8.421113518E0	1.886142492E0	1.072343445E1	-1.898704767E0
8.429516539E0	1.509272933E0	1.067976570E1	-1.932204247E0
8.437919560E0	1.168893814E0	1.063908768E1	-1.753939033E0
8.446322581E0	9.834501147E-1	1.054875851E1	-1.664208174E0
8.454725601E0	8.985049129E-1	1.050030422E1	-1.805384636E0
8.463128622E0	8.787640929E-1	1.045005512E1	-1.874776483E0
8.471531643E0	8.656035662E-1	1.036151981E1	-1.791625977E0
8.479934664E0	8.877372146E-1	1.025623608E1	-1.623530149E0
8.488337685E0	1.021137118E0	1.015214825E1	-1.637887120E0
8.496740706E0	1.224527001E0	9.962516785E0	-1.702493310E0
8.505143726E0	1.492523074E0	9.667003632E0	-1.631306887E0
8.513546747E0	1.791027784E0	9.352945328E0	-1.753340840E0
8.521949768E0	2.105085611E0	9.189037323E0	-2.127219439E0
8.530352789E0	2.265404940E0	9.247661591E0	-2.135594130E0
8.538755810E0	2.213361025E0	9.254241943E0	-1.908874273E0
8.547158831E0	2.021935225E0	9.073583603E0	-1.968694806E0
8.555561851E0	1.849651933E0	8.886942863E0	-2.107478619E0
8.563964872E0	1.798206210E0	8.739784241E0	-2.206182480E0
8.572367893E0	1.794018745E0	8.673981667E0	-2.163709879E0
8.580770914E0	1.922034740E0	8.720044136E0	-2.131406784E0
8.589173935E0	2.009372711E0	8.820542336E0	-2.170888424E0
8.597576956E0	2.088934183E0	8.949754715E0	-2.239681959E0
8.605979976E0	2.240280151E0	9.026923180E0	-2.340180635E0
8.614382997E0	2.481955290E0	8.944969177E0	-2.321038008E0
8.622786018E0	2.725425005E0	8.784051895E0	-2.394019127E0
8.631189039E0	3.111865759E0	8.719446182E0	-2.329412937E0
8.639592060E0	3.503092289E0	8.581260681E0	-2.233700037E0
8.647995081E0	3.855435371E0	8.413763046E0	-2.001596212E0
8.656398101E0	4.033102512E0	8.332406998E0	-1.924427629E0
8.664801122E0	4.254438877E0	8.514859200E0	-2.020738840E0
8.673204143E0	4.545166492E0	8.987442017E0	-1.851446509E0
8.681607164E0	4.500301361E0	9.655637741E0	-1.198205948E0
8.690010185E0	3.018545866E0	1.025204849E1	-1.794617064E-2
8.698413206E0	4.390829504E-1	1.096570778E1	1.305284739E0
8.706816226E0	-2.665006161E0	1.231884956E1	2.512463808E0
8.715219247E0	-5.864808083E0	1.419063473E1	3.756133318E0
8.723622268E0	-9.150154114E0	1.532483292E1	4.374678135E0
8.732025289E0	-1.083829021E1	1.472602844E1	2.732005358E0
8.740428310E0	-6.401398659E0	1.291526031E1	-7.214360237E-1
8.748831331E0	-6.394818425E-1	1.086939716E1	-3.952344894E0
8.757234351E0	2.830709219E0	9.069993973E0	-5.456831932E0
8.765637372E0	4.215555191E0	8.190033913E0	-3.981058598E0
8.774040393E0	3.068794966E0	7.825128078E0	-6.448656917E-1
8.782443414E0	1.642074585E0	8.113463402E0	1.748555183E0
8.790846435E0	2.036890268E0	9.190233231E0	1.933998942E0
8.799249456E0	2.775674343E0	1.024307537E1	7.369893789E-1
8.807652476E0	2.234896421E0	1.075693417E1	4.528416991E-1
8.816055497E0	6.508477330E-1	1.061994553E1	1.163509965E0
8.824458518E0	-9.637092948E-1	1.001755238E1	1.700698733E0
8.832861539E0	-1.392024517E0	9.514460564E0	1.301695466E0
8.841264560E0	-8.847461939E-1	9.483952522E0	1.040877849E-1
8.849667581E0	-7.357929647E-2	9.836296082E0	-1.021137118E0
8.858070601E0	4.366901219E-1	1.022931671E1	-9.361918569E-1
8.866473622E0	6.849454641E-1	1.037946606E1	-3.164508045E-1
8.874876643E0	6.664010882E-1	1.027537823E1	9.571290761E-2
8.883279664E0	4.905286431E-1	9.977472305E0	4.606183618E-2
8.891682685E0	3.373879790E-1	9.690931320E0	-2.482553422E-1
8.900085706E0	2.614158690E-1	9.590433121E0	-6.550351977E-1
8.908488726E0	2.177468538E-1	9.789037704E0	-5.096712112E-1
8.916891747E0	9.750752151E-2	9.955338478E0	-9.750752151E-2
8.925294768E0	-1.046859920E-1	9.929615974E0	-7.597211748E-2
8.933697789E0	-2.225325108E-1	9.828518867E0	1.136590764E-1
8.942100810E0	-2.626122832E-1	9.665208817E0	2.536391914E-1
8.950503831E0	-6.101697683E-2	9.640084267E0	1.004985496E-1
8.958906851E0	2.632105052E-1	9.845867157E0	-9.032905847E-2
8.967309872E0	6.299105883E-1	1.005045319E1	-1.232303679E-1
8.975712893E0	9.170492887E-1	1.004925728E1	5.982056726E-3
8.984115914E0	1.045065284E0	9.828518867E0	7.118647546E-2
8.992518935E0	1.173081279E0	9.648459435E0	1.722832322E-1
9.000921956E0	1.316650629E0	9.650852203E0	2.099701911E-1
9.009324976E0	1.355534077E0	9.738189697E0	1.369891018E-1
9.017727997E0	1.132403374E0	9.771689415E0	2.811566554E-2
9.026131018E0	8.811569214E-1	9.757332802E0	-1.519442350E-1
9.034534039E0	7.280163169E-1	9.763913155E0	-3.702892959E-1
9.042937060E0	7.495517135E-1	9.744770050E0	-5.850451589E-1
9.051340081E0	9.978070259E-1	9.795618057E0	-6.305087805E-1
9.059743101E0	1.338186026E0	9.925428391E0	-2.512463629E-1
9.068146122E0	1.473978758E0	9.896116257E0	1.070788130E-1
9.076549143E0	1.523031592E0	9.784850121E0	2.823530734E-1
9.084952164E0	1.412961721E0	9.659226418E0	5.186443329E-1
9.093355185E0	1.096511006E0	9.586843491E0	7.459624410E-1
9.101758206E0	7.758727670E-1	9.562915802E0	6.574280262E-1
9.110161226E0	8.321040869E-1	9.588040352E0	5.347958803E-1
9.118564247E0	1.185643673E0	9.513264656E0	3.888336942E-2
9.126967268E0	1.460219979E0	9.521040916E0	-1.573280841E-1
9.135370289E0	1.436890006E0	9.629316330E0	5.144568533E-2
9.143773310E0	1.556531072E0	9.629914284E0	-4.845465720E-2
9.152176331E0	1.802991867E0	9.556335449E0	-4.498506486E-1
9.160579351E0	1.892722726E0	9.555737495E0	-4.953143001E-1
9.168982372E0	1.752144337E0	9.649057388E0	-3.906283081E-1
9.177385393E0	1.527817249E0	9.750752449E0	-4.600201547E-1
9.185788414E0	1.356730461E0	9.813564301E0	-5.252245665E-1
9.194191435E0	1.214955688E0	9.760921478E0	-5.665007830E-1
9.202594456E0	1.191625714E0	9.700503349E0	-4.325026870E-1
9.210997476E0	1.314856052E0	9.667601585E0	-2.679961324E-1
9.219400497E0	1.507478237E0	9.637093544E0	-2.333002090E-1
9.227803518E0	1.620539188E0	9.607182503E0	-4.546362907E-2
9.236206539E0	1.607976794E0	9.615557671E0	1.435693651E-1
9.244609560E0	1.552343726E0	9.711270332E0	1.692921966E-1
9.253012581E0	1.479362607E0	9.791430473E0	2.021935135E-1
9.261415601E0	1.492523074E0	9.723833084E0	2.063809484E-1
9.269818622E0	1.545763373E0	9.625128746E0	4.247260094E-2
9.278221643E0	1.549352646E0	9.640084267E0	-5.982056633E-2
9.286624664E0	1.468594909E0	9.573084831E0	-3.050848842E-2
9.295027685E0	1.443470240E0	9.381061554E0	-1.573280841E-1
9.303430706E0	1.533201098E0	9.335597992E0	-3.367897868E-1
9.311833726E0	1.599003673E0	9.541379929E0	-3.768695593E-1
9.320236747E0	1.632503271E0	9.745966911E0	-3.080759048E-1
9.328639768E0	1.676770449E0	9.747162819E0	-3.349951804E-1
9.337042789E0	1.688734531E0	9.611968994E0	-3.559323549E-1
9.345445810E0	1.738385677E0	9.530014038E0	-2.416750938E-1
9.353848831E0	1.718644857E0	9.511469841E0	-7.956135273E-2
9.362251851E0	1.816750646E0	9.454640388E0	-2.422732860E-1
9.370654872E0	1.942971945E0	9.448060036E0	-4.540380836E-1
9.379057893E0	1.996212244E0	9.519845009E0	-5.527420044E-1
9.387460914E0	1.981257200E0	9.595816612E0	-4.971089065E-1
9.395863935E0	2.062014818E0	9.613164902E0	-4.229314029E-1
9.404266956E0	2.157129526E0	9.658030510E0	-5.533402562E-1
9.412669976E0	2.114058733E0	9.764511108E0	-5.162515044E-1
9.421072997E0	1.945364833E0	9.792626381E0	-4.743770957E-1
9.429476018E0	1.882553220E0	9.722038269E0	-6.029912829E-1
9.437879039E0	1.948355794E0	9.724431038E0	-7.220342159E-1
9.446282060E0	1.956730723E0	9.790832520E0	-8.632107973E-1
9.454685081E0	1.926820397E0	9.772886276E0	-8.632107973E-1
9.463088101E0	1.988435626E0	9.714262009E0	-8.416753411E-1
9.471491122E0	2.197209358E0	9.823733330E0	-7.537391186E-1
9.479894143E0	2.344367981E0	1.013898754E1	-6.035895348E-1
9.488297164E0	2.312064886E0	1.040459061E1	-3.667000830E-1
9.496700185E0	2.379063845E0	1.044467068E1	-1.298106313E-1
9.505103206E0	2.501097918E0	1.040937710E1	-1.184447184E-1
9.513506226E0	2.545365095E0	1.023769188E1	-2.961117923E-1
9.521909247E0	2.562114954E0	9.782457352E0	-6.155536175E-1
9.530312268E0	2.585444927E0	9.390632629E0	-8.697910309E-1
9.538715289E0	2.514856577E0	9.224929810E0	-1.051047325E0
9.547118310E0	2.454437733E0	9.419346809E0	-1.167697430E0
9.555521331E0	2.580659151E0	9.694520950E0	-1.627717614E0
9.563924351E0	2.777468920E0	1.003789139E1	-1.707278967E0
9.572327372E0	2.498705149E0	1.012941647E1	-1.546361685E0
9.580730393E0	2.142174482E0	1.002592659E1	-1.543370605E0
9.589133414E0	1.996810555E0	1.024487019E1	-1.502094388E0
9.597536435E0	1.801197290E0	1.049432182E1	-1.531406522E0
9.605939456E0	1.636690736E0	1.056610680E1	-1.494915962E0
9.614342476E0	1.610967875E0	1.050150013E1	-1.319043517E0
9.622745497E0	1.633101463E0	1.042253685E1	-1.257428288E0
9.631148518E0	1.625324726E0	1.049432182E1	-1.271785259E0
9.639551539E0	1.540977836E0	1.081615639E1	-1.188634634E0
9.647954560E0	1.390229940E0	1.106082249E1	-1.259222865E0
9.656357581E0	1.286142230E0	1.109850979E1	-1.351346612E0
9.664760601E0	1.197607756E0	1.109372425E1	-1.273579836E0
9.673163622E0	1.147956610E0	1.117508030E1	-1.110867858E0
9.681566643E0	1.048654556E0	1.113081264E1	-9.876375198E-1
9.689969664E0	9.182456732E-1	1.091605663E1	-7.280163169E-1
9.698372685E0	8.374879360E-1	1.047159004E1	-6.125625968E-1
9.706775706E0	1.001994491E0	1.021974564E1	-7.489534616E-1
9.715178726E0	1.302891970E0	1.023290634E1	-8.901300430E-1
9.723581747E0	1.601396561E0	1.031067276E1	-1.031306505E0
9.731984768E0	1.887338877E0	1.017667484E1	-1.127019525E0
9.740387789E0	2.117049932E0	9.880562782E0	-1.063609719E0
9.748790810E0	2.200200319E0	9.637691498E0	-8.315058947E-1
9.757193831E0	2.141576290E0	9.556933403E0	-6.233302951E-1
9.765596851E0	1.793420553E0	9.623932838E0	-3.619144261E-1
9.773999872E0	1.080359459E0	9.665208817E0	3.649054468E-2
9.782402893E0	2.775674164E-1	9.488140106E0	2.159522474E-1
9.790805914E0	-2.213360965E-1	9.156734467E0	1.405783296E-1
9.799208935E0	-4.157529473E-1	8.937790871E0	-5.503492057E-2
9.807611956E0	-4.809573591E-1	8.898308754E0	-7.238288224E-2
9.816014976E0	-4.893322289E-1	8.947959900E0	-1.543370634E-1
9.824417997E0	-6.107679605E-1	8.979066849E0	-1.369891018E-1
9.832821018E0	-8.195417523E-1	8.914461136E0	-1.722832322E-1
9.841224039E0	-9.068797827E-1	8.819346428E0	-2.374876440E-1
9.849627060E0	-8.811569214E-1	8.880363464E0	-4.001995921E-1
9.858030081E0	-9.445667267E-1	9.043673515E0	-4.576273263E-1
9.866433101E0	-9.523434043E-1	9.130413055E0	-4.707878530E-1
9.874836122E0	-6.568298340E-1	9.183054924E0	-5.587241054E-1
9.883239143E0	-1.100698411E-1	9.407979965E0	-8.285148144E-1
9.891642164E0	1.872383654E-1	9.710672379E0	-6.664010882E-1
9.900045185E0	1.585244983E-1	9.796813965E0	-5.856433511E-1
9.908448206E0	1.639083475E-1	9.659825325E0	-7.920243144E-1
9.916851226E0	3.750749528E-1	9.558728218E0	-1.003789067E0
9.925254247E0	6.658028960E-1	9.665806770E0	-1.140778184E0
9.933657268E0	8.919246197E-1	9.897313118E0	-1.225723386E0
9.942060289E0	1.051645517E0	1.004327488E1	-1.379462242E0
9.950463310E0	1.219741344E0	1.012164021E1	-1.502692580E0
9.958866331E0	1.348953724E0	1.013240719E1	-1.610967875E0
9.967269351E0	1.434497118E0	1.016530895E1	-1.735992789E0
9.975672372E0	1.435693622E0	1.026401234E1	-1.771885157E0
9.984075393E0	1.431506157E0	1.032562828E1	-1.713859200E0
9.992478414E0	1.530210137E0	1.027358437E1	-1.722234130E0
1.000088144E1	1.716850281E0	1.018385315E1	-1.826920033E0
1.000928446E1	1.749751568E0	1.026401234E1	-1.738385677E0
1.001768748E1	1.568495274E0	1.026401234E1	-1.709073544E0
1.002609050E1	1.408774376E0	1.016650486E1	-1.812563181E0
1.003449352E1	1.329811215E0	1.014377308E1	-1.929213285E0
1.004289654E1	1.219741344E0	1.026879883E1	-2.000998020E0
1.005129956E1	1.095912814E0	1.034477043E1	-1.877767563E0
1.005970258E1	1.264606714E0	1.018983555E1	-1.638485312E0
1.006810560E1	1.540379524E0	9.872786522E0	-1.643270969E0
1.007650862E1	1.743769526E0	9.676574707E0	-1.822732687E0
1.008491164E1	1.713859200E0	9.753145218E0	-1.874178290E0
1.009331466E1	1.561316729E0	9.986445427E0	-1.681556106E0
1.010171768E1	1.345364571E0	1.004506969E1	-1.535593987E0
1.011012071E1	1.138385415E0	9.893125534E0	-1.474576950E0
1.011852373E1	1.025324464E0	9.717850685E0	-1.396211982E0
1.012692675E1	1.055234790E0	9.562317848E0	-1.477568030E0
1.013532977E1	1.228116274E0	9.496515274E0	-1.692921996E0
1.014373279E1	1.356730461E0	9.501898766E0	-1.685743570E0
1.015213581E1	1.351944804E0	9.456435204E0	-1.635494232E0
1.016053883E1	1.307677627E0	9.463015556E0	-1.753939033E0
1.016894185E1	1.225125194E0	9.536594391E0	-1.689931035E0
1.017734487E1	1.030110121E0	9.585049629E0	-1.532602906E0
1.018574789E1	7.507480979E-1	9.604789734E0	-1.624128342E0
1.019415091E1	5.910272002E-1	9.544371605E0	-1.651047587E0
1.020255394E1	7.495517135E-1	9.351749420E0	-1.738385677E0
1.021095696E1	1.159920812E0	9.167501450E0	-1.870589137E0
1.021935998E1	1.465603828E0	9.069396019E0	-1.925624013E0
1.022776300E1	1.572682738E0	8.962915421E0	-1.925624013E0
1.023616602E1	1.685743570E0	8.749954224E0	-1.791027784E0
1.024456904E1	1.877169371E0	8.452047348E0	-1.788634896E0
1.025297206E1	2.037488461E0	8.260024071E0	-1.962712765E0
1.026137508E1	2.130210400E0	8.172087669E0	-2.000399828E0
1.026977810E1	2.261815548E0	8.130212784E0	-1.964507341E0
1.027818112E1	2.410768747E0	8.222336769E0	-2.076371908E0
1.028658414E1	2.566900492E0	8.435895920E0	-2.283350945E0
1.029498716E1	2.820539713E0	8.715258598E0	-2.495115757E0
1.030339019E1	3.168097258E0	8.970691681E0	-2.634497643E0
1.031179321E1	3.546761274E0	9.167501450E0	-2.876172781E0
1.032019623E1	3.887140274E0	9.411569595E0	-3.282952785E0
1.032859925E1	5.010570526E0	1.053858948E1	-3.806382656E0
1.033700227E1	5.093721390E0	1.204068375E1	-3.123231649E0
1.034540529E1	2.087737799E0	1.260239887E1	-1.441675663E0
1.035380831E1	-1.403988719E0	1.298883915E1	8.189435601E-1
1.036221133E1	-4.694119930E0	1.326820183E1	3.382853031E0
1.037061435E1	-7.919046402E0	1.268734360E1	5.172086239E0
1.037901737E1	-8.867800713E0	1.144606686E1	4.937589645E0
1.038742039E1	-5.359922886E0	1.043629551E1	2.453839540E0
1.039582341E1	-1.039083242E0	1.004207802E1	-2.488535494E-1
1.040422644E1	1.560120344E0	9.712467194E0	-2.151745796E0
1.041262946E1	2.810968399E0	9.241081238E0	-2.724826813E0
1.042103248E1	3.099901676E0	8.478368759E0	-1.155135155E0
1.042943550E1	2.818745136E0	7.984251022E0	1.435693622E0
1.043783852E1	3.163909674E0	8.476573944E0	2.314457655E0
1.044624154E1	3.404986620E0	9.351150513E0	1.560718536E0
1.045464456E1	2.732005358E0	9.996614456E0	8.757730722E-1
1.046304758E1	1.351346612E0	1.029990482E1	5.018945336E-1
1.047145060E1	4.707878530E-1	1.051884842E1	-1.441675574E-1
1.047985362E1	4.438686073E-1	1.072642612E1	-6.933203340E-1
1.048825664E1	6.526423693E-1	1.061994553E1	-1.677368641E0
1.049665966E1	4.803591371E-1	1.004088211E1	-2.402393818E0
1.050506268E1	1.962114573E-1	9.410971642E0	-1.996810555E0
1.051346571E1	1.531406492E-1	9.305686951E0	-1.378265858E0
1.052186873E1	3.158525825E-1	9.701101303E0	-1.816750646E0
1.053027175E1	5.036891699E-1	1.020718288E1	-2.304288149E0
1.053867477E1	5.976074338E-1	1.049551868E1	-2.399402857E0
1.054707779E1	5.413761139E-1	1.045902824E1	-1.796411633E0
1.055548081E1	2.512463629E-1	1.026879883E1	-1.058225870E0
1.056388383E1	9.810572863E-2	1.010249710E1	-8.063812256E-1
1.057228685E1	3.343969584E-1	9.974481583E0	-6.867401004E-1
1.058068987E1	8.440681696E-1	9.878767967E0	-5.036891699E-1
1.058909289E1	1.354337573E0	9.769894600E0	-3.134597540E-1
1.059749591E1	1.810170293E0	9.687940598E0	3.768695518E-2
1.060589894E1	2.119442701E0	9.644271851E0	1.304088384E-1
1.061430196E1	2.298904419E0	9.668199539E0	2.991028363E-3
1.062270498E1	2.303689957E0	9.698708534E0	-1.501496136E-1
1.063110800E1	2.197209358E0	9.694520950E0	-8.614161611E-2
1.063951102E1	2.045863390E0	9.616155624E0	-2.003988922E-1
1.064791404E1	1.948355794E0	9.619147301E0	-3.505485058E-1
1.065631706E1	1.868794441E0	9.671789169E0	-2.751746178E-1
1.066472008E1	1.738385677E0	9.705886841E0	-4.247260094E-2
1.067312310E1	1.704287887E0	9.714262009E0	2.620140910E-1
1.068152612E1	1.785643935E0	9.605986595E0	4.719842672E-1
1.068992914E1	1.994417667E0	9.381061554E0	4.546363056E-1
1.069833216E1	2.196611166E0	9.239286423E0	4.504488707E-1
1.070673519E1	2.268994093E0	9.175876617E0	5.796613097E-1
1.071513821E1	2.328814745E0	9.065806389E0	5.641079545E-1
1.072354123E1	2.346760750E0	9.002995491E0	5.647061467E-1
1.073194425E1	2.206780672E0	9.132207870E0	5.886343718E-1
1.074034727E1	1.974676847E0	9.314062119E0	6.293123364E-1
1.074875029E1	1.720439434E0	9.422337532E0	7.280163169E-1
1.075715331E1	1.523629785E0	9.487542152E0	6.023930907E-1
1.076555633E1	1.599601984E0	9.585049629E0	3.433700502E-1
1.077395935E1	1.777867198E0	9.672387123E0	1.878365725E-1
1.078236237E1	2.002194405E0	9.482157707E0	-2.691925503E-2
1.079076539E1	2.182254314E0	9.297910690E0	-6.101697683E-2
1.079916841E1	2.326421738E0	9.270393372E0	-1.663011760E-1
1.080757144E1	2.431107759E0	9.354142189E0	-3.487538993E-1
1.081597446E1	2.389233351E0	9.403194427E0	-2.913261652E-1
1.082437748E1	2.286940336E0	9.436694145E0	-1.998006850E-1
1.083278050E1	2.295913219E0	9.494122505E0	-2.147558331E-1
1.084118352E1	2.374278307E0	9.615557671E0	-1.148554832E-1
1.084958654E1	2.343171597E0	9.641879082E0	-3.397808075E-1
1.085798956E1	2.273181438E0	9.573683739E0	-4.474578202E-1
1.086639258E1	2.241476536E0	9.511469841E0	-5.036891699E-1
1.087479560E1	2.372483730E0	9.680164337E0	-4.408775866E-1
1.088319862E1	2.569293261E0	9.937990189E0	-5.144568682E-1
1.089160164E1	2.712264538E0	1.001216793E1	-5.425725579E-1
1.090000466E1	2.762513638E0	9.865009308E0	-5.024927258E-1
1.090840768E1	2.627917528E0	9.604191780E0	-4.594219327E-1
1.091681071E1	2.510071039E0	9.464810371E0	-3.882354796E-1
1.092521373E1	2.520838737E0	9.525228500E0	-2.853440940E-1
1.093361675E1	2.580060959E0	9.667003632E0	-4.247260094E-1
1.094201977E1	2.585444927E0	9.771689415E0	-5.485545993E-1
1.095042279E1	2.413759947E0	9.707083702E0	-5.413761139E-1
1.095882581E1	2.320439816E0	9.546165466E0	-6.927221417E-1
1.096722883E1	2.410170555E0	9.541978836E0	-9.720842242E-1
1.097563185E1	2.307877541E0	9.642477036E0	-1.096511006E0
1.098403487E1	2.082952023E0	9.643074989E0	-1.037288666E0
1.099243789E1	2.146361828E0	9.587442398E0	-1.195214868E0
1.100084091E1	2.444866419E0	9.550951958E0	-1.402194023E0
1.100924394E1	2.512463808E0	9.509077072E0	-1.249651670E0
1.101764696E1	2.534597397E0	9.536594391E0	-1.001994491E0
1.102604998E1	2.814557552E0	9.854242325E0	-8.009973764E-1
1.103445300E1	3.166302681E0	1.050867844E1	-7.310073376E-1
1.104285602E1	3.399602890E0	1.128993511E1	-6.293123364E-1
1.105125904E1	3.517449379E0	1.198744297E1	-5.814558864E-1
1.105966206E1	3.566502094E0	1.203709412E1	-9.128618240E-1
1.106806508E1	3.518047571E0	1.132941723E1	-1.323829174E0
1.107646810E1	3.312264681E0	1.040877819E1	-1.542772412E0
1.108487112E1	2.963510752E0	9.833903313E0	-1.585843205E0
1.109327414E1	2.740380049E0	9.793225288E0	-1.433898926E0
1.110167716E1	2.715853691E0	1.021795082E1	-1.456032634E0
1.111008019E1	2.760120869E0	1.061216831E1	-1.569691658E0
1.111848321E1	2.782254457E0	1.058584690E1	-1.700100541E0
1.112688623E1	2.906681299E0	1.052483082E1	-1.612762451E0
1.113528925E1	3.030509949E0	1.054397297E1	-1.502692580E0
1.114369227E1	3.150749207E0	1.036451149E1	-1.465005636E0
1.115209529E1	3.349353552E0	9.776474953E0	-1.403390527E0
1.116049831E1	3.541975737E0	9.120243073E0	-1.327418327E0
1.116890133E1	3.775275946E0	8.648857117E0	-1.339382529E0
1.117730435E1	4.077968121E0	8.447261810E0	-1.344766378E0
1.118570737E1	4.362115860E0	8.236693382E0	-1.430309772E0
1.119411039E1	4.641477585E0	8.087740898E0	-1.620539188E0
1.120251341E1	4.921437740E0	8.176873207E0	-1.647458434E0
1.121091644E1	4.999204636E0	8.387441635E0	-1.414158225E0
1.121931946E1	4.636094093E0	8.760722160E0	-1.102493048E0
1.122772248E1	3.501297712E0	9.115457535E0	-5.569294691E-1
1.123612550E1	1.797009826E0	9.046066284E0	-2.644068897E-1
1.124452852E1	7.124629617E-1	8.657830238E0	-8.554341197E-1
1.125293154E1	6.646065116E-1	8.513663292E0	-1.802991867E0
1.126133456E1	1.066002488E0	8.736793518E0	-2.057827473E0
1.126973758E1	1.387837172E0	8.975478172E0	-1.780858278E0
1.127814060E1	1.788036704E0	9.041878700E0	-1.470987678E0
1.128654362E1	2.230708838E0	8.888737679E0	-1.257428288E0
1.129494664E1	2.745764017E0	8.820542336E0	-1.383051515E0
1.130334966E1	2.721237659E0	9.152546883E0	-1.082154036E0
1.131175268E1	1.886142492E0	9.245268822E0	-6.406782866E-1
1.132015571E1	1.168295622E0	8.944969177E0	-8.057830334E-1
1.132855873E1	1.139581800E0	8.606385231E0	-1.318445325E0
1.133696175E1	1.247258782E0	8.629117012E0	-1.478764415E0
1.134536477E1	1.170090318E0	8.860024452E0	-1.320239902E0
1.135376779E1	1.209571838E0	8.984451294E0	-1.281356573E0
1.136217081E1	1.517049551E0	8.963513374E0	-1.300499082E0
1.137057383E1	1.797608018E0	9.046664238E0	-1.362114310E0
1.137897685E1	2.045863390E0	9.144769669E0	-1.311266780E0
1.138737987E1	2.587837696E0	9.335597992E0	-1.729412556E0
1.139578289E1	2.657229662E0	9.765109062E0	-1.564906001E0
1.140418591E1	1.972882271E0	9.792028427E0	-9.379864931E-1
1.141258894E1	1.460818172E0	9.313464165E0	-1.116251707E0
1.142099196E1	1.610967875E0	9.174081802E0	-1.573879123E0
1.142939498E1	1.611566067E0	9.372088432E0	-1.484746456E0
1.143779800E1	1.646261930E0	9.580862045E0	-1.382453322E0
1.144620102E1	1.854437590E0	9.677771568E0	-1.296909928E0
1.145460404E1	1.919641972E0	9.589835167E0	-1.406979680E0
1.146300706E1	1.703091502E0	9.501300812E0	-1.459621787E0
1.147141008E1	1.509272933E0	9.437292099E0	-1.490728498E0
1.147981310E1	1.486541033E0	9.448060036E0	-1.486541033E0
1.148821612E1	1.554736495E0	9.562317848E0	-1.512862086E0
1.149661914E1	1.611566067E0	9.662218094E0	-1.555932879E0
1.150502216E1	1.667797327E0	9.678967476E0	-1.646261930E0
1.151342519E1	1.619342685E0	9.622735977E0	-1.598405480E0
1.152182821E1	1.585245013E0	9.637691498E0	-1.468594909E0
1.153023123E1	1.673181176E0	9.732208252E0	-1.480558991E0
1.153863425E1	1.791027784E0	9.893723488E0	-1.548754454E0
1.154703727E1	1.883151412E0	1.006421185E1	-1.656431437E0
1.155544029E1	1.945364833E0	1.021555805E1	-1.788036704E0
1.156384331E1	1.929811478E0	1.029452133E1	-1.871785522E0
1.157224633E1	1.871187329E0	1.029272652E1	-1.873580098E0
1.158064935E1	1.759322882E0	1.019880867E1	-1.815554142E0
1.158905237E1	1.661815286E0	1.006480980E1	-1.721037745E0
1.159745539E1	1.627717614E0	9.954740524E0	-1.704886079E0
1.160585841E1	1.647458434E0	9.877572060E0	-1.666600943E0
1.161426144E1	1.704287887E0	9.887143135E0	-1.667797327E0
1.162266446E1	1.734796405E0	9.969097137E0	-1.750947952E0
1.163106748E1	1.637887120E0	1.005583763E1	-1.717448473E0
1.163947050E1	1.384247899E0	1.004985523E1	-1.654038668E0
1.164787352E1	1.144367456E0	9.984052658E0	-1.559522152E0
1.165627654E1	1.126421213E0	9.912267685E0	-1.439880967E0
1.166467956E1	1.429711580E0	9.916455269E0	-1.596610904E0
1.167308258E1	1.631306887E0	1.001695347E1	-1.786242127E0
1.168148560E1	1.545763373E0	1.011386299E1	-1.721635938E0
1.168988862E1	1.316650629E0	9.997811317E0	-1.553540111E0
1.169829164E1	1.311266780E0	9.807581902E0	-1.663011789E0
1.170669466E1	1.295713425E0	9.728020668E0	-1.821536183E0
1.171509768E1	1.106680512E0	9.681958199E0	-1.821536183E0
1.172350071E1	8.548358679E-1	9.537791252E0	-1.863410592E0
1.173190373E1	7.298108935E-1	9.339186668E0	-1.898106575E0
1.174030675E1	6.556333899E-1	9.223732948E0	-1.835294962E0
1.174870977E1	5.838487148E-1	9.360722542E0	-1.786840320E0
1.175711279E1	5.258227587E-1	9.616754532E0	-1.744367719E0
1.176551581E1	5.581258535E-1	9.730413437E0	-1.664208174E0
1.177391883E1	7.100701332E-1	9.667003632E0	-1.625324726E0
1.178232185E1	7.495517135E-1	9.471988678E0	-1.801795483E0
1.179072487E1	7.465606928E-1	9.246464729E0	-1.820339799E0
1.179912789E1	7.956135273E-1	8.985647202E0	-1.735394597E0
1.180753091E1	8.985049129E-1	8.709874153E0	-1.734198213E0
1.181593394E1	9.355936646E-1	8.576474190E0	-1.539781332E0
1.182433696E1	9.655039310E-1	8.498109818E0	-1.415952802E0
1.183273998E1	1.022333503E0	8.435895920E0	-1.603789330E0
1.184114300E1	9.565308690E-1	8.382058144E0	-1.721635938E0
1.184954602E1	8.793623447E-1	8.366504669E0	-1.782054663E0
1.185794904E1	9.732806087E-1	8.452047348E0	-1.683948994E0
1.186635206E1	1.241874933E0	8.606385231E0	-1.499103427E0
1.187475508E1	1.624128342E0	8.776275635E0	-1.499701619E0
1.188315810E1	1.938186288E0	8.950352669E0	-1.488335729E0
1.189156112E1	2.091925144E0	9.075976372E0	-1.430907965E0
1.189996414E1	2.189432621E0	9.143573761E0	-1.454836130E0
1.190836716E1	2.197209358E0	9.208778381E0	-1.616351724E0
1.191677018E1	2.609373093E0	9.629914284E0	-1.698305845E0
1.192517321E1	3.010170937E0	1.023888779E1	-1.712662816E0
1.193357623E1	2.261217356E0	1.101655579E1	-1.088734269E0
1.194197925E1	2.315055877E-1	1.199701500E1	6.580262445E-3
1.195038227E1	-2.309073925E0	1.342672634E1	1.480558991E0
1.195878529E1	-5.099703312E0	1.443649769E1	3.701696634E0
1.196718831E1	-7.507481098E0	1.411884975E1	5.094917774E0
1.197559133E1	-7.080960274E0	1.257188988E1	4.253242016E0
1.198399435E1	-2.948555708E0	1.069172955E1	1.430309772E0
1.199239737E1	3.355933726E-1	9.396016121E0	-1.759921074E0
1.200080039E1	2.190629244E0	8.841479301E0	-3.701098442E0
1.200920341E1	2.950948477E0	8.712865829E0	-3.580260992E0
1.201760644E1	2.411965132E0	8.340781212E0	-1.692921996E0
1.202600946E1	1.424327731E0	8.273183823E0	8.554340899E-2
1.203441248E1	1.298704505E0	9.116056442E0	7.268198729E-1
1.204281550E1	1.540379524E0	1.018385315E1	5.880361795E-1
1.205121852E1	1.172483087E0	1.082692432E1	1.006780148E0
1.205962154E1	-1.950150430E-1	1.066540909E1	1.685145378E0
1.206802456E1	-1.271187067E0	1.005105114E1	1.339980721E0
1.207642758E1	-9.373882413E-1	9.665806770E0	9.511470050E-2
1.208483060E1	3.457628787E-1	9.748957634E0	-1.202991605E0
1.209323362E1	1.359123230E0	1.002413273E1	-1.674975872E0
1.210163664E1	1.319043517E0	1.007258701E1	-8.584251404E-1
1.211003966E1	4.342973232E-1	9.772886276E0	5.054838061E-1
1.211844269E1	1.854437590E-2	9.646066666E0	1.004387259E0
1.212684571E1	4.642075896E-1	9.832706451E0	8.787640929E-1
1.213524873E1	1.237089276E0	1.000618649E1	3.463610709E-1
1.214365175E1	1.694118381E0	9.987043381E0	-1.974078640E-2
1.215205477E1	1.621137381E0	9.809376717E0	5.324030295E-2
1.216045779E1	1.218544960E0	9.667003632E0	2.368894368E-1
1.216886081E1	8.889335990E-1	9.704092026E0	4.504488707E-1
1.217726383E1	7.058826685E-1	9.726823807E0	1.495514214E-1
1.218566685E1	7.369893789E-1	9.806983948E0	-3.583251834E-1
1.219406987E1	9.780662656E-1	9.909276962E0	-8.350951076E-1
1.220247289E1	1.241874933E0	9.914660454E0	-1.045663476E0
1.221087591E1	1.320239902E0	9.847063065E0	-9.672985673E-1
1.221927894E1	1.372283816E0	9.793225288E0	-7.214360237E-1
1.222768196E1	1.524227977E0	9.754341125E0	-3.978067636E-1
1.223608498E1	1.722832322E0	9.770493507E0	-4.259224236E-1
1.224448800E1	1.823330879E0	9.809974670E0	-1.489532143E-1
1.225289102E1	1.710868239E0	9.811769485E0	2.697907388E-1
1.226129404E1	1.569093466E0	9.646664619E0	-7.537391037E-2
1.226969706E1	1.619342685E0	9.535398483E0	-2.656033039E-1
1.227810008E1	1.677368641E0	9.459425926E0	-2.775674164E-1
1.228650310E1	1.687538147E0	9.516854286E0	-3.284149170E-1
1.229490612E1	1.764706731E0	9.729815483E0	-1.668993831E-1
1.230330914E1	1.884347796E0	9.829116821E0	-1.651047617E-1
1.231171216E1	2.145165443E0	9.809974670E0	-1.896311939E-1
1.232011518E1	2.195414782E0	9.677771568E0	-1.345962733E-1
1.232851821E1	1.936391711E0	9.555737495E0	-1.375873014E-2
1.233692123E1	1.655833244E0	9.531808853E0	1.196411327E-1
1.234532425E1	1.421336651E0	9.542576790E0	1.196411327E-1
1.235372727E1	1.357926846E0	9.496515274E0	-1.818545163E-1
1.236213029E1	1.500898004E0	9.493523598E0	-4.743770957E-1
1.237053331E1	1.661815286E0	9.509675026E0	-4.121637046E-1
1.237893633E1	1.715055585E0	9.582057953E0	-6.101697683E-2
1.238733935E1	1.677966833E0	9.621540070E0	-1.423729509E-1
1.239574237E1	1.705484390E0	9.625128746E0	-2.967100143E-1
1.240414539E1	1.679163337E0	9.591629982E0	-3.284149170E-1
1.241254841E1	1.712064624E0	9.575477600E0	-3.601198196E-1
1.242095144E1	1.859821439E0	9.598808289E0	-3.314059377E-1
1.242935446E1	1.874776483E0	9.594620705E0	-1.968096644E-1
1.243775748E1	1.791027784E0	9.531210899E0	-4.725824669E-2
1.244616050E1	1.725823283E0	9.446864128E0	-2.572284266E-2
1.245456352E1	1.852642894E0	9.436096191E0	-1.172483116E-1
1.246296654E1	1.911267042E0	9.423533440E0	-8.973085135E-2
1.247136956E1	1.903490424E0	9.391230583E0	-4.007977992E-2
1.247977258E1	1.921436548E0	9.405587196E0	4.606183618E-2
1.248817560E1	1.838884234E0	9.476176262E0	6.520441920E-2
1.249657862E1	1.745564103E0	9.571888924E0	-1.680957973E-1
1.250498164E1	1.813161373E0	9.552147865E0	-2.961117923E-1
1.251338466E1	1.953739643E0	9.407979965E0	-3.188436031E-1
1.252178769E1	1.957328916E0	9.336793900E0	-2.775674164E-1
1.253019071E1	1.861616015E0	9.424132347E0	-2.177468538E-1
1.253859373E1	1.676172256E0	9.593423843E0	-3.218346536E-1
1.254699675E1	1.654038668E0	9.684351921E0	-4.773681164E-1
1.255539977E1	1.818545222E0	9.576076508E0	-3.672982752E-1
1.256380279E1	2.188236237E0	9.455837250E0	-3.906283081E-1
1.257220581E1	2.501696110E0	9.371489525E0	-3.038884699E-1
1.258060883E1	2.638685226E0	9.279964447E0	-3.080759048E-1
1.258901185E1	2.616551638E0	9.213563919E0	-4.348955154E-1
1.259741487E1	2.439482689E0	9.251849174E0	-4.857429862E-1
1.260581789E1	2.268994093E0	9.366106033E0	-6.293123364E-1
1.261422091E1	2.154138565E0	9.467203140E0	-7.423732281E-1
1.262262394E1	2.087737799E0	9.515657425E0	-7.094719410E-1
1.263102696E1	2.091925144E0	9.497113228E0	-9.224331379E-1
1.263942998E1	2.218744755E0	9.651450157E0	-1.071984529E0
1.264783300E1	2.353939295E0	9.805787086E0	-1.132403374E0
1.265623602E1	2.596810818E0	9.814760208E0	-1.148554921E0
1.266463904E1	2.847458839E0	9.707083702E0	-1.187438250E0
1.267304206E1	3.100499868E0	9.616754532E0	-1.153340459E0
1.268144508E1	3.406183004E0	9.714859962E0	-1.101296663E0
1.268984810E1	3.640679598E0	1.007497978E1	-9.014959335E-1
1.269825112E1	4.097110748E0	1.062054348E1	-6.275177598E-1
1.270665414E1	4.615755081E0	1.078265667E1	-5.994020700E-1
1.271505716E1	4.907679081E0	1.043689442E1	-7.609176040E-1
1.272346018E1	4.684548378E0	9.690333366E0	-1.181456208E0
1.273186321E1	3.963710785E0	8.983852386E0	-1.535593987E0
1.274026623E1	3.104687452E0	8.648259163E0	-1.659422517E0
1.274866925E1	2.694318295E0	8.950951576E0	-1.764108539E0
1.275707227E1	2.817548752E0	9.863214493E0	-1.978266120E0
1.276547529E1	3.771088600E0	1.047338486E1	-2.444268227E0
1.277387831E1	3.573082447E0	1.081974602E1	-1.136590719E0
1.278228133E1	3.238087177E0	1.050389290E1	-1.630110383E0
1.279068435E1	3.576073408E0	1.085563850E1	-1.479960799E0
1.279908737E1	3.203989506E0	1.102732277E1	-1.259821177E0
1.280749039E1	2.735594511E0	1.085444164E1	-1.539183140E0
1.281589341E1	2.583650351E0	1.066481018E1	-1.506880045E0
1.282429644E1	2.466402054E0	1.049491978E1	-1.676770449E0
1.283269946E1	2.276770830E0	1.029990482E1	-1.856830359E0
1.284110248E1	2.171486616E0	1.011087227E1	-1.908874273E0
1.284950550E1	2.225325108E0	9.928419113E0	-2.008774519E0
1.285790852E1	2.282752752E0	9.679565430E0	-2.152343988E0
1.286631154E1	2.339582443E0	9.484550476E0	-2.175075769E0
1.287471456E1	2.400001049E0	9.424132347E0	-2.160120726E0
1.288311758E1	2.472383976E0	9.442676544E0	-2.048854351E0
1.289152060E1	2.500499725E0	9.474381447E0	-1.947159410E0
1.289992362E1	2.437688112E0	9.430113792E0	-1.760519266E0
1.290832664E1	2.469393015E0	9.324830055E0	-1.637887120E0
1.291672966E1	2.672184706E0	9.245866776E0	-1.531406522E0
1.292513269E1	2.935993433E0	9.194420815E0	-1.502094388E0
1.293353571E1	3.180061340E0	9.212965012E0	-1.472782373E0
1.294193873E1	3.285943747E0	9.224929810E0	-1.353141189E0
1.295034175E1	3.278167009E0	9.237491608E0	-1.179661512E0
1.295874477E1	3.221337557E0	9.214161873E0	-1.064806104E0
1.296714779E1	3.156731367E0	9.313464165E0	-9.547362328E-1
1.297555081E1	2.890529871E0	9.630513191E0	-7.393822074E-1
1.298395383E1	2.113460541E0	9.884152412E0	-2.494517565E-1
1.299235685E1	1.076770186E0	9.744770050E0	5.563312769E-2
1.300075987E1	1.992024779E-1	9.524630547E0	-2.632104978E-2
1.300916289E1	-3.565305769E-1	9.441479683E0	-2.955136001E-1
1.301756591E1	-5.856433511E-1	9.523433685E0	-5.395814776E-1
1.302596894E1	-6.454638839E-1	9.666405678E0	-7.028916478E-1
1.303437196E1	-6.496513486E-1	9.742377281E0	-7.513462901E-1
1.304277498E1	-5.048855543E-1	9.695717812E0	-6.185446382E-1
1.305117800E1	-6.999006122E-2	9.623334885E0	-6.203392744E-1
1.305958102E1	4.217349887E-1	9.683155060E0	-6.789634228E-1
1.306798404E1	6.777670383E-1	9.832706451E0	-5.090730190E-1
1.307638706E1	6.717849374E-1	9.820143700E0	-4.354937077E-1
1.308479008E1	5.419743061E-1	9.640682220E0	-5.670989752E-1
1.309319310E1	3.972085714E-1	9.418149948E0	-8.093722463E-1
1.310159612E1	3.577269912E-1	9.284749985E0	-9.541380405E-1
1.310999914E1	3.158525825E-1	9.284749985E0	-8.847461939E-1
1.311840216E1	3.421736360E-1	9.293723106E0	-9.266205430E-1
1.312680518E1	5.012963414E-1	9.320642471E0	-1.073779106E0
1.313520821E1	5.934200287E-1	9.337990761E0	-1.192223907E0
1.314361123E1	7.208378315E-1	9.366703987E0	-1.155733347E0
1.315201425E1	1.028315544E0	9.492327690E0	-1.211366415E0
1.316041727E1	1.415354609E0	9.629914284E0	-1.490728498E0
1.316882029E1	1.808973908E0	9.848857880E0	-1.603191137E0
1.317722331E1	1.930409670E0	9.953543663E0	-1.386042476E0
1.318562633E1	1.844866276E0	9.890732765E0	-1.441675663E0
1.319402935E1	1.806581140E0	9.835099220E0	-1.625923038E0
1.320243237E1	1.601396561E0	9.812965393E0	-1.466202021E0
1.321083539E1	1.484148264E0	9.752547264E0	-1.593619823E0
1.321923841E1	1.567897081E0	9.829715729E0	-1.808375716E0
1.322764144E1	1.724626899E0	9.970891953E0	-1.994417667E0
1.323604446E1	1.819143414E0	1.019581699E1	-1.871187329E0
1.324444748E1	1.683948994E0	1.021854877E1	-1.603789330E0
1.325285050E1	1.700698733E0	1.007497978E1	-1.721037745E0
1.326125352E1	1.889133453E0	1.000379372E1	-1.881955028E0
1.326965654E1	1.988435626E0	9.998409271E0	-1.826920033E0
1.327805956E1	1.925624013E0	1.006421185E1	-1.676172256E0
1.328646258E1	2.000399828E0	9.971489906E0	-1.744965911E0
1.329486560E1	2.109871387E0	9.915258408E0	-1.765304923E0
1.330326862E1	2.134397745E0	9.952347755E0	-1.746760488E0
1.331167164E1	2.065604210E0	1.006122112E1	-1.737189293E0
1.332007466E1	1.944168448E0	1.011446095E1	-1.753939033E0
1.332847769E1	1.859223247E0	1.009771156E1	-1.780260086E0
1.333688071E1	1.728814363E0	9.978668213E0	-1.762912035E0
1.334528373E1	1.623530149E0	9.878767967E0	-1.711466432E0
1.335368675E1	1.591227055E0	9.844072342E0	-1.692323804E0
1.336208977E1	1.524826288E0	9.874580383E0	-1.715055585E0
1.337049279E1	1.600200176E0	9.909276962E0	-1.798804402E0
1.337889581E1	1.735992789E0	9.970293999E0	-1.719841242E0
1.338729883E1	1.762912035E0	9.957133293E0	-1.621735573E0
1.339570185E1	1.702493310E0	9.895518303E0	-1.590628862E0
1.340410487E1	1.547558069E0	9.754940033E0	-1.527817249E0
1.341250789E1	1.451246977E0	9.604789734E0	-1.429113269E0
1.342091091E1	1.320838094E0	9.501898766E0	-1.422533035E0
1.342931394E1	1.154536963E0	9.479166985E0	-1.518844128E0
1.343771696E1	9.164510965E-1	9.443872452E0	-1.568495274E0
1.344611998E1	7.250252366E-1	9.413364410E0	-1.578066587E0
1.345452300E1	6.669993401E-1	9.358927727E0	-1.543370605E0
1.346292602E1	6.831508875E-1	9.228518486E0	-1.521835208E0
1.347132904E1	8.787640929E-1	9.227322578E0	-1.703689694E0
1.347973206E1	1.145563841E0	9.473184586E0	-1.685145378E0
1.348813508E1	1.295115232E0	9.658628464E0	-1.453639746E0
1.349653810E1	1.294517040E0	9.695717812E0	-1.433300734E0
1.350494112E1	1.158724308E0	9.627521515E0	-1.441077471E0
1.351334414E1	1.013360381E0	9.428318977E0	-1.534397483E0
1.352174716E1	9.571290612E-1	9.257232666E0	-1.618744493E0
1.353015018E1	1.005583763E0	9.131011009E0	-1.606182218E0
1.353855321E1	1.025324464E0	9.025128365E0	-1.526022673E0
1.354695623E1	1.186241865E0	8.967700958E0	-1.549950838E0
1.355535925E1	1.414158225E0	8.967103004E0	-1.596610904E0
1.356376227E1	1.534397483E0	9.011369705E0	-1.526620865E0
1.357216529E1	1.641476393E0	8.974879265E0	-1.534397483E0
1.358056831E1	1.816152334E0	8.845068932E0	-1.727617979E0
1.358897133E1	2.037488461E0	8.657830238E0	-1.938186288E0
1.359737435E1	2.298904419E0	8.536395073E0	-2.151147604E0
1.360577737E1	2.609971285E0	8.487939835E0	-2.236092806E0
1.361418039E1	2.935395241E0	8.541778564E0	-2.153540373E0
1.362258341E1	3.308675528E0	8.694320679E0	-2.155334949E0
1.363098644E1	3.638286829E0	8.761918068E0	-2.382055044E0
1.363938946E1	4.104289055E0	8.779864311E0	-2.813959360E0
1.364779248E1	5.091328144E0	9.081958771E0	-3.115455151E0
1.365619550E1	6.019145489E0	9.934999466E0	-3.110669374E0
1.366459852E1	5.157131195E0	1.085025406E1	-1.927418590E0
1.367300154E1	1.975275040E0	1.125523949E1	8.614161611E-2
1.368140456E1	-1.040877819E0	1.173320580E1	1.704886079E0
1.368980758E1	-3.427120209E0	1.207896900E1	2.946761131E0
1.369821060E1	-5.393422127E0	1.208076286E1	3.546163082E0
1.370661362E1	-6.283552170E0	1.201196957E1	2.745764017E0
1.371501664E1	-4.150351048E0	1.198983574E1	2.662015259E-1
1.372341966E1	-1.171884894E0	1.146520996E1	-1.847259045E0
1.373182269E1	8.452646136E-1	1.032562828E1	-2.570489645E0
1.374022571E1	1.832902193E0	9.126823425E0	-1.950748682E0
1.374862873E1	2.685943365E0	8.581858635E0	-4.097708762E-1
1.375703175E1	3.239881754E0	8.529216766E0	6.843472719E-1
1.376543477E1	3.334398270E0	9.064610481E0	4.342973232E-1
1.377383779E1	3.005385160E0	9.951749802E0	-1.196411345E-2
1.378224081E1	2.137987137E0	1.053440189E1	1.836491376E-1
1.379064383E1	1.000199914E0	1.059900761E1	7.734799385E-1
1.379904685E1	1.824527234E-1	1.027178955E1	9.116654396E-1
1.380744987E1	-2.721835673E-1	1.002173901E1	4.277170599E-1
1.381585289E1	-5.413761139E-1	9.993025780E0	-1.148554832E-1
1.382425591E1	-7.375875711E-1	1.000498962E1	-5.994020700E-1
1.383265894E1	-4.414757788E-1	1.004626560E1	-8.452646136E-1
1.384106196E1	2.392822644E-3	1.015095139E1	-9.343972206E-1
1.384946498E1	3.068794906E-1	1.014496994E1	-8.602197170E-1
1.385786800E1	7.202396393E-1	9.954740524E0	-4.360919297E-1
1.386627102E1	1.138983607E0	9.687940598E0	-7.896314561E-2
1.387467404E1	1.382453322E0	9.543772697E0	2.392822653E-1
1.388307706E1	1.354935765E0	9.534799576E0	5.365904570E-1
1.389148008E1	1.292124271E0	9.605986595E0	4.265206456E-1
1.389988310E1	1.457827210E0	9.696315765E0	-1.136590764E-1
1.390828612E1	1.666002750E0	9.731609344E0	-3.152543902E-1
1.391668914E1	1.729412556E0	9.665208817E0	-2.548356056E-1
1.392509216E1	1.770090580E0	9.660423279E0	-3.260220885E-1
1.393349519E1	1.801197290E0	9.770493507E0	-3.732803464E-1
1.394189821E1	1.820937991E0	9.918848038E0	-4.253242314E-1
1.395030123E1	1.699502230E0	9.954142570E0	-4.366901219E-1
1.395870425E1	1.564307809E0	9.850652695E0	-3.583251834E-1
1.396710727E1	1.643270969E0	9.693324089E0	-1.256231871E-2
1.397551029E1	1.816152334E0	9.549157143E0	-2.392822690E-2
1.398391331E1	2.020738840E0	9.448657990E0	-2.889333367E-1
1.399231633E1	2.214557409E0	9.416953087E0	-1.591227055E-1
1.400071935E1	2.282752752E0	9.452845573E0	-1.884347796E-1
1.400912237E1	2.275574446E0	9.494720459E0	-3.290131092E-1
1.401752539E1	2.295913219E0	9.503094673E0	-3.816552162E-1
1.402592841E1	2.306082726E0	9.538389206E0	-3.852444589E-1
1.403433144E1	2.295315027E0	9.567103386E0	-3.092723191E-1
1.404273446E1	2.227717876E0	9.512067795E0	-2.901297510E-1
1.405113748E1	2.260020971E0	9.370293617E0	-2.901297510E-1
1.405954050E1	2.368296146E0	9.260223389E0	-3.086741269E-1
1.406794352E1	2.453241348E0	9.287740707E0	-3.062812984E-1
1.407634654E1	2.458625317E0	9.403793335E0	-3.469592705E-2
1.408474956E1	2.358724833E0	9.413962364E0	7.298108935E-2
1.409315258E1	2.175673962E0	9.432506561E0	-1.603191197E-1
1.410155560E1	1.770090580E0	9.649655342E0	-2.512463741E-2
1.410995862E1	1.238285661E0	9.884750366E0	2.093719840E-1
1.411836164E1	1.101296663E0	1.007378292E1	-2.015953064E-1
1.412676466E1	1.375872970E0	1.000738239E1	-7.501499057E-1
1.413516768E1	1.764706731E0	9.739984512E0	-8.003991842E-1
1.414357071E1	1.934597135E0	9.421140671E0	-6.496513486E-1
1.415197373E1	2.044667006E0	9.201001167E0	-2.877369225E-1
1.416037675E1	2.288734913E0	9.238688469E0	-2.219343036E-1
1.416877977E1	2.390429735E0	9.359525681E0	-2.542374134E-1
1.417718279E1	2.355733871E0	9.500103951E0	-2.985046208E-1
1.418558581E1	2.316850424E0	9.562915802E0	-4.426721931E-1
1.419398883E1	2.118844509E0	9.503094673E0	-3.601198196E-1
1.420239185E1	1.763510346E0	9.459425926E0	-1.788634956E-1
1.421079487E1	1.457229018E0	9.638887405E0	-1.968096644E-1
1.421919789E1	1.266401410E0	9.829116821E0	-1.752742529E-1
1.422760091E1	1.444666624E0	9.884750366E0	-6.185446382E-1
1.423600394E1	1.878963947E0	9.726225853E0	-6.957131624E-1
1.424440696E1	2.128415823E0	9.443274498E0	-5.377869010E-1
1.425280998E1	2.379063845E0	9.326624870E0	-3.469592929E-1
1.426121300E1	2.531008244E0	9.318847656E0	-2.309073806E-1
1.426961602E1	2.553740025E0	9.353543282E0	-2.859423161E-1
1.427801904E1	2.498106956E0	9.446265221E0	-3.463610709E-1
1.428642206E1	2.364706993E0	9.436694145E0	-4.767699242E-1
1.429482508E1	2.210968018E0	9.386445045E0	-6.281159520E-1
1.430322810E1	2.052443504E0	9.356534958E0	-7.968099117E-1
1.431163112E1	1.932204247E0	9.422935486E0	-9.924231768E-1
1.432003414E1	1.899901152E0	9.549157143E0	-1.242473125E0
1.432843716E1	1.942971945E0	9.696315765E0	-1.657029629E0
1.433684019E1	1.914856315E0	9.781260490E0	-1.923231244E0
1.434524321E1	1.807179332E0	9.826724052E0	-2.019542217E0
1.435364623E1	1.751546144E0	9.846465111E0	-1.931606054E0
1.436204925E1	1.759921074E0	9.983454704E0	-1.627119422E0
1.437045227E1	1.902294040E0	1.047577763E1	-1.331007600E0
1.437885529E1	2.507079840E0	1.151545906E1	-1.237089276E0
1.438725831E1	3.240479946E0	1.279801178E1	-8.321040869E-1
1.439566133E1	3.848257065E0	1.324128246E1	-9.080761671E-1
1.440406435E1	4.329812527E0	1.238465214E1	-1.435693622E0
1.441246737E1	3.961317778E0	1.116491032E1	-1.893320918E0
1.442087039E1	3.084946632E0	1.046979523E1	-2.024327993E0
1.442927341E1	2.551347256E0	1.002652550E1	-2.350350142E0
1.443767644E1	2.492124796E0	9.946365356E0	-1.810170293E0
1.444607946E1	2.372483730E0	9.860821724E0	-1.594816327E0
1.445448248E1	3.078366280E0	1.009950638E1	-2.150549412E0
1.446288550E1	3.915854216E0	1.051466084E1	-1.833500385E0
1.447128852E1	4.178466320E0	1.052662468E1	-1.503889084E0
1.447969154E1	4.136591911E0	1.012283611E1	-1.506281853E0
1.448809456E1	4.070789337E0	9.571888924E0	-1.408176184E0
1.449649758E1	4.079164505E0	9.005986214E0	-1.386640668E0
1.450490060E1	4.060619831E0	8.638090134E0	-1.445863128E0
1.451330362E1	4.064807415E0	8.423932076E0	-1.448854089E0
1.452170664E1	4.180261135E0	8.266604424E0	-1.463809252E0
1.453010966E1	4.357928276E0	8.088936806E0	-1.632503271E0
1.453851268E1	4.606183529E0	7.964509964E0	-1.854437590E0
1.454691571E1	4.858626366E0	7.855038643E0	-1.966302037E0
1.455531873E1	5.123631477E0	7.802994728E0	-1.907677889E0
1.456372175E1	5.327619553E0	7.833503246E0	-1.796411633E0
1.457212477E1	5.351547718E0	8.008178711E0	-1.771885157E0
1.458052779E1	5.121238708E0	8.273183823E0	-1.810170293E0
1.458893081E1	4.807180882E0	8.545966148E0	-1.817348838E0
1.459733383E1	4.484149456E0	8.722436905E0	-1.958525300E0
1.460573685E1	4.152145386E0	8.745168686E0	-2.099701881E0
1.461413987E1	3.945166349E0	8.736195564E0	-2.175673962E0
1.462254289E1	3.746562004E0	8.746963501E0	-2.248655081E0
1.463094591E1	3.481556892E0	8.832506180E0	-2.284547329E0
1.463934894E1	3.082553864E0	8.964710236E0	-2.279163599E0
1.464775196E1	2.683550596E0	8.985647202E0	-2.233101845E0
1.465615498E1	2.433500528E0	8.979664803E0	-2.248655081E0
1.466455800E1	2.229512453E0	8.966505051E0	-2.196012974E0
1.467296102E1	2.116451740E0	8.965308189E0	-2.086541414E0
1.468136404E1	2.127817631E0	8.901300430E0	-2.097309113E0
1.468976706E1	2.225923300E0	8.867800713E0	-2.127817631E0
1.469817008E1	2.226521492E0	8.888139725E0	-1.984846354E0
1.470657310E1	2.123630047E0	8.826524734E0	-1.942373753E0
1.471497612E1	2.018345833E0	8.800801277E0	-1.955534339E0
1.472337914E1	1.802991867E0	8.688339233E0	-1.889133453E0
1.473178216E1	1.829911113E0	8.556734085E0	-1.971087694E0
1.474018519E1	1.847259045E0	8.602795601E0	-2.073979139E0
1.474858821E1	1.586441398E0	8.694919586E0	-1.975275040E0
1.475699123E1	1.416550994E0	8.710473061E0	-1.835294962E0
1.476539425E1	1.624726534E0	8.615358353E0	-1.986042738E0
1.477379727E1	1.794018745E0	8.670392990E0	-2.226521492E0
1.478220029E1	1.694716692E0	8.812167168E0	-2.163111687E0
1.479060331E1	1.797608018E0	8.854042053E0	-2.236092806E0
1.479900633E1	1.939980984E0	8.889934540E0	-2.147558212E0
1.480740935E1	1.861017823E0	8.827720642E0	-2.033301115E0
1.481581237E1	1.947757602E0	8.742177963E0	-2.174477577E0
1.482421539E1	2.213959217E0	8.751151085E0	-2.295913219E0
1.483261841E1	2.411965132E0	8.813364029E0	-2.278565407E0
1.484102144E1	2.562114954E0	8.928219795E0	-2.220539331E0
1.484942446E1	2.545963287E0	9.116056442E0	-2.028515339E0
1.485782748E1	2.246262312E0	9.056235313E0	-1.771885157E0
1.486623050E1	2.174477577E0	8.822337151E0	-1.837687731E0
1.487463352E1	2.223530531E0	8.796015739E0	-1.972284079E0
1.488303654E1	1.788634896E0	8.938986778E0	-1.586441398E0
1.489143956E1	1.526022673E0	8.972486496E0	-1.564906001E0
1.489984258E1	1.561316729E0	9.023334503E0	-1.735992789E0
1.490824560E1	1.554138303E0	9.099904060E0	-1.893320918E0
1.491664862E1	1.532602906E0	9.153742790E0	-2.012363911E0
1.492505164E1	1.691725612E0	9.268000603E0	-2.084746838E0
1.493345466E1	1.776072621E0	9.386445045E0	-1.948953986E0
1.494185768E1	1.700698733E0	9.355338097E0	-1.849651933E0
1.495026071E1	1.686341763E0	9.299106598E0	-2.015953064E0
1.495866373E1	1.636092424E0	9.322437286E0	-2.041077614E0
1.496706675E1	1.600798368E0	9.421140671E0	-2.044667006E0
1.497546977E1	1.664208174E0	9.597013474E0	-2.142772675E0
1.498387279E1	1.701296926E0	9.739386559E0	-2.157727718E0
1.499227581E1	1.741974831E0	9.778867722E0	-2.217548370E0
1.500067883E1	1.801795483E0	9.728618622E0	-2.346760750E0
1.500908185E1	1.852044702E0	9.747760773E0	-2.405385017E0
1.501748487E1	1.774876237E0	9.883553505E0	-2.364706993E0
1.502588789E1	1.600200176E0	1.004985523E1	-2.251047850E0
1.503429091E1	1.512263894E0	1.017368412E1	-2.289333105E0
1.504269394E1	1.561915040E0	1.023769188E1	-2.248655081E0
1.505109696E1	1.595414519E0	1.026640511E1	-2.016551256E0
1.505949998E1	1.596610904E0	1.027478027E1	-1.901097536E0
1.506790300E1	1.642074585E0	1.025803089E1	-1.805384636E0
1.507630602E1	1.717448473E0	1.028794098E1	-1.652244091E0
1.508470904E1	1.719841242E0	1.034477043E1	-1.463211060E0
1.509311206E1	1.586441398E0	1.038425159E1	-1.349551916E0
1.510151508E1	1.502692580E0	1.038664532E1	-1.439282775E0
1.510991810E1	1.428515077E0	1.037707329E1	-1.473380566E0
1.511832112E1	1.264606714E0	1.032263660E1	-1.458425403E0
1.512672414E1	1.039681435E0	1.027597713E1	-1.415354609E0
1.513512716E1	7.734799385E-1	1.022154045E1	-1.337587833E0
1.514353019E1	5.240281820E-1	1.015693378E1	-1.326820135E0
1.515193321E1	4.031906128E-1	1.010788059E1	-1.286142230E0
1.516033623E1	3.900300860E-1	1.000080204E1	-1.191625714E0
1.516873925E1	5.497509837E-1	9.890732765E0	-1.130608678E0
1.517714227E1	7.226324677E-1	9.786644936E0	-1.112064362E0
1.518554529E1	9.068797827E-1	9.722636223E0	-1.085743308E0
1.519394831E1	1.014556766E0	9.723833084E0	-1.020538807E0
1.520235133E1	1.011565804E0	9.751948357E0	-9.661021233E-1
1.521075435E1	9.230313301E-1	9.763913155E0	-9.248259664E-1
1.521915737E1	7.483552694E-1	9.652647018E0	-1.098305583E0
1.522756039E1	5.958128572E-1	9.516854286E0	-1.233500123E0
1.523596341E1	4.498506486E-1	9.348159790E0	-1.340578914E0
1.524436644E1	3.972085714E-1	9.232706070E0	-1.428515077E0
1.525276946E1	5.700899959E-1	9.161520004E0	-1.372283816E0
1.526117248E1	9.194421172E-1	9.110671997E0	-1.378265858E0
1.526957550E1	1.276570916E0	9.056833267E0	-1.360917926E0
1.527797852E1	1.505085468E0	8.990432739E0	-1.240678549E0
1.528638154E1	1.548156261E0	8.875576973E0	-1.220339537E0
1.529478456E1	1.479362607E0	8.762516975E0	-1.124626637E0
1.530318758E1	1.304088354E0	8.706285477E0	-9.547362328E-1
1.531159060E1	9.996016622E-1	8.710473061E0	-9.882357717E-1
1.531999362E1	7.513462901E-1	8.753543854E0	-1.154536963E0
1.532839664E1	6.664010882E-1	8.837890625E0	-1.230509043E0
1.533679966E1	6.879364848E-1	8.941978455E0	-1.210768223E0
1.534520268E1	7.214360237E-1	9.011369705E0	-1.198205948E0
1.535360571E1	7.908278704E-1	9.057432175E0	-1.168295622E0
1.536200873E1	9.332008362E-1	9.084351540E0	-1.164108157E0
1.537041175E1	1.157527924E0	9.128020287E0	-1.225125194E0
1.537881477E1	1.388435364E0	9.143573761E0	-1.304088354E0
1.538721779E1	1.551147223E0	9.166305542E0	-1.338186026E0
1.539562081E1	1.686341763E0	9.196215630E0	-1.343569875E0
1.540402383E1	1.782652855E0	9.244071960E0	-1.512263894E0
1.541242685E1	1.632503271E0	9.434301376E0	-1.644467354E0
1.542082987E1	8.925228715E-1	9.850054741E0	-1.533799291E0
1.542923289E1	-5.365904570E-1	1.048774147E1	-9.619147182E-1
1.543763591E1	-2.236690998E0	1.132642555E1	-3.236292601E-1
1.544603894E1	-4.100699902E0	1.234696484E1	3.619144261E-1
1.545444196E1	-5.711667538E0	1.324547005E1	7.555337548E-1
1.546284498E1	-6.760322094E0	1.359422398E1	6.526423693E-1
1.547124800E1	-6.313462734E0	1.320538998E1	3.828516304E-1
1.547965102E1	-3.897309780E0	1.195514011E1	2.829512656E-1
1.548805404E1	-1.615753531E0	1.022991467E1	5.503492057E-2
1.549645706E1	6.759724021E-2	9.003593445E0	-1.704886109E-1
1.550486008E1	1.379462242E0	8.488538742E0	-4.121637046E-1
1.551326310E1	2.407777786E0	8.458029747E0	-4.600201547E-1
1.552166612E1	2.931805849E0	8.581858635E0	-9.092725813E-2
1.553006914E1	2.541775942E0	8.688937187E0	3.589234054E-1
1.553847216E1	1.896311998E0	9.071190834E0	6.622136831E-1
1.554687519E1	1.491326690E0	9.714262009E0	7.513462901E-1
1.555527821E1	1.103091240E0	1.029691410E1	8.548358679E-1
1.556368123E1	5.138586760E-1	1.058465099E1	8.063812256E-1
1.557208425E1	-2.159522474E-1	1.054397297E1	6.149554253E-1
1.558048727E1	-6.969096065E-1	1.038664532E1	1.848455518E-1
1.558889029E1	-8.650053740E-1	1.014496994E1	-4.325026870E-1
1.559729331E1	-6.269195080E-1	9.930213928E0	-1.171884894E0
1.560569633E1	-1.118644550E-1	9.906884193E0	-1.264008522E0
1.561409935E1	4.247260094E-2	9.976275444E0	-4.151547253E-1
1.562250237E1	-2.871387079E-2	1.005464077E1	1.040877849E-1
1.563090539E1	-2.691925503E-2	1.003071213E1	-1.477568001E-1
1.563930841E1	1.686939895E-1	1.001037312E1	-9.158528447E-1
1.564771144E1	3.696911037E-1	1.008275604E1	-1.077966571E0
1.565611446E1	4.037888348E-1	1.003549862E1	-5.856433511E-1
1.566451748E1	4.905286431E-1	9.806385040E0	-1.674975902E-1
1.567292050E1	7.812566161E-1	9.678967476E0	2.303091735E-1
1.568132352E1	1.047458172E0	9.640084267E0	5.653043389E-1
1.568972654E1	1.278365493E0	9.689137459E0	5.862415433E-1
1.569812956E1	1.409970760E0	9.785448074E0	3.625126183E-1
1.570653258E1	1.258624673E0	9.892526627E0	1.166501045E-1
1.571493560E1	8.757730722E-1	1.000917721E1	-9.032905847E-2
1.572333862E1	4.612165689E-1	1.006540871E1	-5.072783828E-1
1.573174164E1	5.318048596E-1	1.008096218E1	-8.135597110E-1
1.574014466E1	9.433703423E-1	1.004806042E1	-8.111668825E-1
1.574854768E1	1.337587833E0	9.936794281E0	-6.017948985E-1
1.575695071E1	1.651645780E0	9.828518867E0	-3.260220885E-1
1.576535373E1	1.873580098E0	9.755537987E0	6.520441920E-2
1.577375675E1	1.916650891E0	9.798608780E0	3.116651475E-1
1.578215977E1	1.687538147E0	9.835099220E0	2.781656384E-1
1.579056279E1	1.490130305E0	9.787242889E0	-5.982056726E-3
1.579896581E1	1.371685624E0	9.723833084E0	-1.471585929E-1
1.580736883E1	1.328016520E0	9.681958199E0	-2.099701911E-1
1.581577185E1	1.408774376E0	9.703494072E0	-6.041877344E-2
1.582417487E1	1.456032634E0	9.643673897E0	-6.460621208E-2
1.583257789E1	1.368096352E0	9.640682220E0	-1.154536903E-1
1.584098091E1	1.258026481E0	9.736993790E0	-5.324030295E-2
1.584938394E1	1.168295622E0	9.757332802E0	-9.750752151E-2
1.585778696E1	1.156929731E0	9.690931320E0	-2.715853751E-1
1.586618998E1	1.103091240E0	9.626923561E0	-1.932204217E-1
1.587459300E1	9.379864931E-1	9.586245537E0	2.691925503E-2
1.588299602E1	9.296116233E-1	9.586843491E0	2.165504545E-1
1.589139904E1	1.039681435E0	9.598209381E0	2.243271172E-1
1.589980206E1	1.213759303E0	9.620343208E0	8.075776696E-2
1.590820508E1	1.196411371E0	9.730413437E0	1.142572835E-1
1.591660810E1	1.113260746E0	9.749555588E0	1.136590764E-1
1.592501112E1	1.077368379E0	9.692128181E0	-1.734796353E-2
1.593341414E1	1.075573802E0	9.610772133E0	-1.310070455E-1
1.594181716E1	1.170090318E0	9.594022751E0	-1.268195957E-1
1.595022019E1	1.371685624E0	9.429515839E0	-5.982056726E-3
1.595862321E1	1.532004714E0	9.355937004E0	-3.110669367E-2
1.596702623E1	1.550549030E0	9.461220741E0	2.871387079E-2
1.597542925E1	1.579262972E0	9.514460564E0	1.106680483E-1
1.598383227E1	1.707877159E0	9.486943245E0	-1.196411322E-3
1.599223529E1	1.798206210E0	9.450452805E0	-9.451649338E-2
1.600063831E1	1.825125456E0	9.426525116E0	1.274178028E-1
1.600904133E1	1.692921996E0	9.437891006E0	2.602194548E-1
1.601744435E1	1.712662816E0	9.518648148E0	-5.982056609E-4
1.602584737E1	1.834098577E0	9.595218658E0	-2.829512656E-1
1.603425039E1	1.953739643E0	9.651450157E0	-4.474578202E-1
1.604265341E1	1.765903115E0	9.663414001E0	-5.120640397E-1
1.605105644E1	1.549352646E0	9.660423279E0	-5.539384484E-1
1.605945946E1	1.689332843E0	9.692726135E0	-6.113662124E-1
1.606786248E1	1.844866276E0	9.754341125E0	-7.375875711E-1
1.607626550E1	1.866401672E0	9.750752449E0	-5.192425251E-1
1.608466852E1	1.969292998E0	9.638887405E0	-2.608176768E-1
1.609307154E1	2.207977057E0	9.527621269E0	-2.327020019E-1
1.610147456E1	2.215155602E0	9.438488960E0	-2.147558331E-1
1.610987758E1	2.008774519E0	9.431310654E0	-1.375873089E-1
1.611828060E1	1.811964989E0	9.454042435E0	-3.493520916E-1
1.612668362E1	1.801197290E0	9.458230019E0	-7.280163169E-1
1.613508664E1	1.872981906E0	9.497711182E0	-9.314061999E-1
1.614348966E1	1.868196249E0	9.554540634E0	-9.655039310E-1
1.615189268E1	1.897508383E0	9.566504478E0	-1.010369420E0
1.616029571E1	2.148754835E0	9.586245537E0	-1.109073281E0
1.616869873E1	2.385644197E0	9.701101303E0	-1.067198873E0
1.617710175E1	2.342573404E0	9.881160736E0	-7.896314859E-1
1.618550477E1	2.352742910E0	1.031785107E1	-4.648058116E-1
1.619390779E1	2.743969440E0	1.095553875E1	-2.380858511E-1
1.620231081E1	3.248854876E0	1.146461105E1	1.196411345E-2
1.621071383E1	3.646661758E0	1.113559818E1	7.298108935E-2
1.621911685E1	3.928416491E0	9.704689980E0	-3.140579760E-1
1.622751987E1	4.267599106E0	8.249854088E0	-7.770691514E-1
1.623592289E1	4.220939159E0	7.571488857E0	-7.483552694E-1
1.624432591E1	3.823730469E0	7.764709473E0	-9.254241586E-1
1.625272894E1	3.567698479E0	8.691329956E0	-1.244267821E0
1.626113196E1	3.510270834E0	9.701699257E0	-1.496710539E0
1.626953498E1	3.471387386E0	1.017966557E1	-1.565504193E0
1.627793800E1	3.320639610E0	1.020957565E1	-1.353141189E0
1.628634102E1	3.175275564E0	1.008814049E1	-1.211366415E0
1.629474404E1	3.028715372E0	1.007079220E1	-1.274178028E0
1.630314706E1	2.885145903E0	1.020897770E1	-1.425524116E0
1.631155008E1	2.818745136E0	1.036032391E1	-1.554138303E0
1.631995310E1	2.798406124E0	1.037767220E1	-1.613360643E0
1.632835612E1	2.770888567E0	1.024606609E1	-1.589432478E0
1.633675914E1	2.741576433E0	1.009472084E1	-1.526022673E0
1.634516216E1	2.690729141E0	1.005523872E1	-1.579861164E0
1.635356518E1	2.696112871E0	1.013121128E1	-1.773679733E0
1.636196821E1	2.673381090E0	1.012881851E1	-1.881955028E0
1.637037123E1	2.644068956E0	9.973882675E0	-1.983649969E0
1.637877425E1	2.595614433E0	9.743574142E0	-1.981855392E0
1.638717727E1	2.559721947E0	9.551549911E0	-1.951346874E0
1.639558029E1	2.537588358E0	9.499505997E0	-2.001596212E0
1.640398331E1	2.559721947E0	9.537791252E0	-2.054238319E0
1.641238633E1	2.586043119E0	9.574879646E0	-2.006381750E0
1.642078935E1	2.620140791E0	9.528220177E0	-1.942971945E0
1.642919237E1	2.690729141E0	9.473783493E0	-1.855035782E0
1.643759539E1	2.799004316E0	9.471389771E0	-1.746162295E0
1.644599841E1	2.867199659E0	9.527621269E0	-1.650449395E0
1.645440144E1	2.958725214E0	9.596415520E0	-1.522433400E0
1.646280446E1	3.035295486E0	9.619745255E0	-1.368096352E0
1.647120748E1	3.155534744E0	9.635896683E0	-1.106082320E0
1.647961050E1	3.238685369E0	9.736993790E0	-8.697910309E-1
1.648801352E1	3.058625460E0	9.986445427E0	-5.150550604E-1
1.649641654E1	2.571087837E0	1.013539886E1	-9.690931439E-2
1.650481956E1	2.062014818E0	1.015035343E1	1.142572835E-1
1.651322258E1	1.620539188E0	1.003729248E1	9.571290761E-2
1.652162560E1	1.213759303E0	9.880562782E0	-3.409772366E-2
1.653002862E1	7.381857634E-1	9.774680138E0	-7.537391037E-2
1.653843164E1	2.398804724E-1	9.687342644E0	-1.728814393E-1
1.654683466E1	-7.298108935E-2	9.628120422E0	-4.366901219E-1
1.655523768E1	-1.483550072E-1	9.538389206E0	-6.963114142E-1
1.656364071E1	2.632104978E-2	9.476774216E0	-1.000199914E0
1.657204373E1	1.561316848E-1	9.566504478E0	-1.180259824E0
1.658044675E1	4.845465720E-2	9.626923561E0	-9.445667267E-1
1.658884977E1	2.009970993E-1	9.512666702E0	-7.944171429E-1
1.659725279E1	7.244270444E-1	9.451649666E0	-8.087740541E-1
1.660565581E1	8.201399446E-1	9.428917885E0	-6.837490797E-1
1.661405883E1	7.339983582E-1	9.345767021E0	-8.147560954E-1
1.662246185E1	7.088736892E-1	9.424132347E0	-1.071984529E0
1.663086487E1	2.309073806E-1	9.463613510E0	-7.908278704E-1
1.663926789E1	-1.381855011E-1	9.175876617E0	-8.506484628E-1
1.664767091E1	-5.144568533E-2	9.044271469E0	-1.287936807E0
1.665607394E1	-8.973085321E-3	9.065208435E0	-1.304686546E0
1.666447696E1	2.787638307E-1	9.142376900E0	-1.336391449E0
1.667287998E1	7.387840152E-1	9.331410408E0	-1.292722464E0
1.668128300E1	1.048654556E0	9.468997002E0	-1.326221943E0
1.668968602E1	1.328016520E0	9.592227936E0	-1.503290772E0
1.669808904E1	1.524826288E0	9.647860527E0	-1.545763373E0
1.670649206E1	1.497308731E0	9.616155624E0	-1.443470240E0
1.671489508E1	1.380060434E0	9.608379364E0	-1.542174220E0
1.672329810E1	1.250249863E0	9.604789734E0	-1.610369682E0
1.673170112E1	1.137188911E0	9.463015556E0	-1.574477315E0
1.674010414E1	1.030708313E0	9.369695663E0	-1.599003673E0
1.674850716E1	8.183453679E-1	9.457631111E0	-1.533799291E0
1.675691019E1	7.962117195E-1	9.536594391E0	-1.623530149E0
1.676531321E1	9.912267923E-1	9.702896118E0	-1.756331801E0
1.677371623E1	1.118046403E0	9.876974106E0	-1.795813441E0
1.678211925E1	1.088734269E0	9.960124016E0	-1.769492388E0
1.679052227E1	1.064207911E0	9.996614456E0	-1.775474429E0
1.679892529E1	1.101296663E0	9.966704369E0	-1.899901152E0
1.680732831E1	1.101296663E0	9.977472305E0	-2.014158487E0
1.681573133E1	1.003789067E0	1.008156013E1	-2.032104731E0
1.682413435E1	8.997012973E-1	1.020778179E1	-2.149951220E0
1.683253737E1	1.055234790E0	1.034357452E1	-2.103889227E0
1.684094039E1	1.520638824E0	1.052542877E1	-2.044068813E0
1.684934341E1	1.704287887E0	1.071446133E1	-1.903490424E0
1.685774644E1	1.514058471E0	1.074437141E1	-1.804786444E0
1.686614946E1	1.358525038E0	1.059781170E1	-1.786840320E0
1.687455248E1	1.428515077E0	1.027358437E1	-1.844268084E0
1.688295550E1	1.570289850E0	1.000020409E1	-1.765304923E0
1.689135852E1	1.536790371E0	9.860223770E0	-1.606780410E0
1.689976154E1	1.348953724E0	9.882357597E0	-1.460219979E0
1.690816456E1	1.207777262E0	9.884152412E0	-1.387238979E0
1.691656758E1	1.231107235E0	9.832706451E0	-1.465603828E0
1.692497060E1	1.357328653E0	9.762716293E0	-1.749153376E0
1.693337362E1	1.530210137E0	9.633503914E0	-2.020738840E0
1.694177664E1	1.717448473E0	9.458230019E0	-2.286342144E0
1.695017966E1	1.975873351E0	9.437292099E0	-2.191227436E0
1.695858268E1	2.092523336E0	9.401400566E0	-1.957328916E0
1.696698571E1	2.003988981E0	9.288339615E0	-2.115853310E0
1.697538873E1	1.941177368E0	9.154939651E0	-2.106880426E0
1.698379175E1	2.078166485E0	8.971290588E0	-2.040479422E0
1.699219477E1	2.373680115E0	8.914461136E0	-2.060818434E0
1.700059779E1	2.703291416E0	8.986844063E0	-1.969891191E0
1.700900081E1	2.926422119E0	9.102895737E0	-1.998605132E0
1.701740383E1	3.156731367E0	9.228518486E0	-2.102094650E0
1.702580685E1	3.139981508E0	9.235098839E0	-2.153540373E0
1.703420987E1	2.885145903E0	9.152546883E0	-2.107478619E0
1.704261289E1	2.817548752E0	9.037691116E0	-2.011167526E0
1.705101591E1	2.922234535E0	8.919844627E0	-2.026720762E0
1.705941894E1	3.251247883E0	8.909674644E0	-2.087737799E0
1.706782196E1	3.686741590E0	8.912068367E0	-2.283949137E0
1.707622498E1	4.506283283E0	9.228518486E0	-2.334796667E0
1.708462800E1	5.255236626E0	1.016411209E1	-2.201396942E0
1.709303102E1	4.243072987E0	1.139282703E1	-1.352542996E0
1.710143404E1	8.518448472E-1	1.241037464E1	1.573280841E-1
1.710983706E1	-2.749951363E0	1.352842140E1	1.902294040E0
1.711824008E1	-6.735197544E0	1.418525124E1	3.273979664E0
1.712664310E1	-1.034955597E1	1.350030518E1	3.617947817E0
1.713504612E1	-1.160937691E1	1.128993511E1	2.557927370E0
1.714344914E1	-7.581060410E0	9.381659508E0	-1.944168359E-1
1.715185216E1	-2.262413740E0	9.064012527E0	-2.443670034E0
1.716025518E1	1.058225870E0	9.203393936E0	-3.720839262E0
1.716865821E1	3.068196774E0	9.163912773E0	-3.311068296E0
1.717706123E1	4.384847641E0	8.994620323E0	-9.541380405E-1
1.718546425E1	4.129413605E0	8.689535141E0	1.661815286E0
1.719386727E1	2.860021353E0	8.582456589E0	2.710469961E0
1.720227029E1	2.299502611E0	9.237491608E0	2.035095692E0
1.721067331E1	1.804188251E0	1.015753174E1	8.285148144E-1
1.721907633E1	9.535398483E-1	1.095613670E1	-2.069791555E-1
1.722747935E1	-1.405783296E-1	1.123370457E1	-4.492524564E-1
1.723588237E1	-9.613165259E-1	1.075573826E1	-2.524427772E-1
1.724428539E1	-8.991031051E-1	1.008275604E1	-3.571287692E-1
1.725268841E1	-1.292124242E-1	9.640084267E0	-5.413761139E-1
1.726109144E1	5.359922647E-1	9.568299294E0	-3.876372576E-1
1.726949446E1	6.885347366E-1	9.853045464E0	9.571290575E-3
1.727789748E1	4.911268353E-1	1.014676476E1	4.432703853E-1
1.728630050E1	1.842473447E-1	1.023828983E1	5.210371017E-1
1.729470352E1	-2.931207791E-2	1.010189915E1	-1.196411322E-3
1.730310654E1	7.836493850E-2	9.938589096E0	-6.705885530E-1
1.731150956E1	3.750749528E-1	9.867402077E0	-8.404789567E-1
1.731991258E1	4.815555513E-1	9.792028427E0	-2.578266263E-1
1.732831560E1	3.774677813E-1	9.607182503E0	3.613162339E-1
1.733671862E1	3.960121572E-1	9.564111710E0	9.128618240E-1
1.734512164E1	4.534398913E-1	9.625128746E0	1.529013634E0
1.735352466E1	2.931207716E-1	9.583852768E0	1.350150228E0
1.736192768E1	2.410768867E-1	9.596415520E0	6.861419082E-1
1.737033071E1	2.608176768E-1	9.726823807E0	2.626122832E-1
1.737873373E1	1.980060786E-1	9.854840279E0	7.477571070E-2
1.738713675E1	1.459621787E-1	9.965508461E0	-3.409772217E-1
1.739553977E1	3.750749528E-1	9.979267120E0	-5.670989752E-1
1.740394279E1	8.853443861E-1	9.918250084E0	-5.982056856E-1
1.741234581E1	1.188036442E0	9.781260490E0	-3.595215976E-1
1.742074883E1	1.322034478E0	9.675378799E0	7.776673418E-3
1.742915185E1	1.411765337E0	9.628718376E0	5.503492057E-2
1.743755487E1	1.475175142E0	9.673583984E0	-4.606183618E-2
1.744595789E1	1.448255897E0	9.799804688E0	2.356930375E-1
1.745436091E1	1.405185103E0	9.840482712E0	1.220339537E-1
1.746276394E1	1.584048629E0	9.888339996E0	-2.434697002E-1
