"Time (s)"	"Gyroscope x (rad/s)"	"Gyroscope y (rad/s)"	"Gyroscope z (rad/s)"
3.489291500E-2	-1.572931744E-2	-2.229592577E-2	-9.926267900E-3
4.329593600E-2	-1.771457121E-2	-1.985253580E-2	-8.857285604E-3
5.169895700E-2	-1.695101149E-2	-2.183778957E-2	-1.023169141E-2
6.010197800E-2	-1.420219894E-2	-3.588727489E-2	-1.664558798E-2
6.850499900E-2	-1.084253844E-2	-5.589252338E-2	-2.290677279E-2
7.690802000E-2	-9.009997360E-3	-6.658235192E-2	-2.580829710E-2
8.531104000E-2	-1.175880991E-2	-7.543963939E-2	-2.473931387E-2
9.371406100E-2	-1.511846948E-2	-7.696675509E-2	-2.107422985E-2
1.021170820E-1	-1.649287529E-2	-7.009471953E-2	-1.679829881E-2
1.105201030E-1	-1.817270555E-2	-6.520794332E-2	-1.267508045E-2
1.189231240E-1	-1.908897609E-2	-6.047387794E-2	-9.926267900E-3
1.273261450E-1	-1.695101149E-2	-5.100574717E-2	-4.428642802E-3
1.357291650E-1	-1.557660475E-2	-4.001049697E-2	4.581354442E-4
1.441321860E-1	-1.771457121E-2	-3.863608837E-2	1.679830020E-3
1.525352070E-1	-1.924168877E-2	-3.939964995E-2	7.635590737E-4
1.609382280E-1	-1.908897609E-2	-3.756710514E-2	-3.054236295E-4
1.693412490E-1	-1.939439960E-2	-3.145863488E-2	-3.054236295E-4
1.777442700E-1	-1.939439960E-2	-2.275406010E-2	-1.527118147E-4
1.861472900E-1	-2.061609551E-2	-2.107422985E-2	-1.527118147E-3
1.945503110E-1	-2.168507688E-2	-3.100049868E-2	-7.788302377E-3
2.029533320E-1	-2.199050039E-2	-4.062134400E-2	-1.527118124E-2
2.113563530E-1	-2.886253223E-2	-5.054761097E-2	-1.908897609E-2
2.197593740E-1	-3.084778599E-2	-4.871506989E-2	-2.443389036E-2
2.281623950E-1	-3.069507517E-2	-3.985778242E-2	-2.489202656E-2
2.365654150E-1	-2.977880463E-2	-3.038965166E-2	-2.489202656E-2
2.449684360E-1	-3.023693897E-2	-1.985253580E-2	-2.733541466E-2
2.533714570E-1	-3.023693897E-2	-1.832541823E-2	-2.779355086E-2
2.617744780E-1	-3.130592033E-2	-2.519745007E-2	-2.855710872E-2
2.701774990E-1	-3.527642787E-2	-3.390202299E-2	-2.993151546E-2
2.785805200E-1	-3.955236077E-2	-3.924693540E-2	-3.100049868E-2
2.869835400E-1	-4.107947648E-2	-4.077405483E-2	-2.977880463E-2
2.953865610E-1	-3.939964995E-2	-4.001049697E-2	-2.382304333E-2
3.037895820E-1	-3.603998944E-2	-4.092676565E-2	-2.122694254E-2
3.121926030E-1	-3.588727489E-2	-4.611896724E-2	-1.588202827E-2
3.205956240E-1	-3.848337755E-2	-5.070032179E-2	-1.175880991E-2
3.289986450E-1	-3.649812192E-2	-4.413371533E-2	-8.857285604E-3
3.374016650E-1	-2.932066843E-2	-2.932066843E-2	-5.497625098E-3
3.458046860E-1	-2.321219631E-2	-1.954711229E-2	0.000000000E0
3.542077070E-1	-1.435491070E-2	-1.145338640E-2	5.650337320E-3
3.626107280E-1	-6.261184346E-3	3.054236295E-4	7.482878864E-3
3.710137490E-1	-4.428642802E-3	4.734066315E-3	8.704573847E-3
3.794167700E-1	-3.970507067E-3	6.108472589E-3	7.177455351E-3
3.878197900E-1	-4.734066315E-3	7.330167107E-3	1.679830020E-3
3.962228110E-1	-3.817795310E-3	8.399149403E-3	-3.665083554E-3
4.046258320E-1	-9.315420873E-3	2.336490713E-2	-3.359660041E-3
4.130288530E-1	-1.175880991E-2	4.825693369E-2	-4.275931045E-3
4.214318740E-1	-1.511846948E-2	6.658235192E-2	-8.246437646E-3
4.298348950E-1	-1.618745178E-2	7.299624383E-2	-2.092151903E-2
4.382379150E-1	-2.153236605E-2	7.467607409E-2	-3.038965166E-2
4.466409360E-1	-2.260134928E-2	8.597674966E-2	-3.313846514E-2
4.550439570E-1	-2.260134928E-2	9.132166207E-2	-2.794626169E-2
4.634469780E-1	-1.817270555E-2	8.567132801E-2	-1.404948719E-2
4.718499990E-1	-1.481304597E-2	6.795676053E-2	-7.482878864E-3
4.802530200E-1	-1.130067464E-2	4.413371533E-2	-3.206948051E-3
4.886560400E-1	-8.857285604E-3	1.466033421E-2	2.137965523E-3
4.970590610E-1	-4.428642802E-3	-2.519745007E-2	9.315420873E-3
5.054620820E-1	1.679830020E-3	-2.244863659E-2	-6.108472589E-4
5.138651030E-1	-2.748812549E-3	-2.061609551E-2	5.955760833E-3
5.222681240E-1	-8.246437646E-3	-1.634016447E-2	1.832541777E-3
5.306711450E-1	-4.734066315E-3	-9.773556143E-3	-1.374406274E-3
5.390741650E-1	1.374406274E-3	7.482878864E-3	-1.985253533E-3
5.474771860E-1	3.206948051E-3	2.397575416E-2	1.221694518E-3
5.558802070E-1	4.123218823E-3	3.222219273E-2	2.901524538E-3
5.642832280E-1	8.246437646E-3	2.305948362E-2	1.527118147E-3
5.726862490E-1	8.551862091E-3	3.970507067E-3	6.719320081E-3
5.810892700E-1	1.068982668E-2	-7.635590620E-3	7.788302377E-3
5.894922900E-1	8.246437646E-3	-1.679829881E-2	5.650337320E-3
5.978953110E-1	5.803049076E-3	-2.031067200E-2	4.581354558E-3
6.062983320E-1	4.886778072E-3	-1.710372418E-2	2.596100792E-3
6.147013530E-1	6.719320081E-3	-1.282779220E-2	1.374406274E-3
6.231043740E-1	1.084253844E-2	-7.635590737E-4	9.162708884E-4
6.315073950E-1	1.084253844E-2	7.635590620E-3	-2.137965523E-3
6.399104150E-1	1.206423342E-2	6.413896102E-3	-2.137965523E-3
6.483134360E-1	1.236965694E-2	4.581354558E-3	-2.137965523E-3
6.567164570E-1	1.634016447E-2	1.618745178E-2	2.290677279E-3
6.651194780E-1	2.031067200E-2	3.069507517E-2	7.788302377E-3
6.735224990E-1	1.786728203E-2	2.458660305E-2	7.024743594E-3
6.819255200E-1	1.756185852E-2	7.024743594E-3	2.748812549E-3
6.903285400E-1	1.572931744E-2	-2.046338283E-2	2.901524538E-3
6.987315610E-1	1.267508045E-2	-4.779879749E-2	4.886778072E-3
7.071345820E-1	1.191152167E-2	-6.856760383E-2	4.123218823E-3
7.155376030E-1	5.803049076E-3	-9.071081877E-2	2.596100792E-3
7.239406240E-1	-3.054236295E-4	-1.090362370E-1	-4.581354442E-4
7.323436450E-1	6.108472589E-4	-1.072036922E-1	-6.719320081E-3
7.407466650E-1	1.068982761E-3	-9.239064902E-2	-1.053711493E-2
7.491496860E-1	9.162708884E-4	-6.291726977E-2	-1.023169141E-2
7.575527070E-1	6.261184346E-3	-2.825168520E-2	-1.084253844E-2
7.659557280E-1	9.468132630E-3	-6.413896102E-3	-1.084253844E-2
7.743587490E-1	1.557660475E-2	-0.000000000E0	-7.788302377E-3
7.827617700E-1	2.000524849E-2	4.428642802E-3	-6.719320081E-3
7.911647900E-1	2.092151903E-2	8.704573847E-3	-6.719320081E-3
7.995678110E-1	1.908897609E-2	7.635590737E-4	-1.160609815E-2
8.079708320E-1	1.924168877E-2	-6.719320081E-3	-1.511846948E-2
8.163738530E-1	1.466033421E-2	6.108472589E-4	-2.046338283E-2
8.247768740E-1	1.252236869E-2	1.618745178E-2	-1.924168877E-2
8.331798950E-1	1.496575773E-2	3.115320951E-2	-2.046338283E-2
8.415829150E-1	1.679829881E-2	4.153761268E-2	-2.397575416E-2
8.499859360E-1	1.786728203E-2	4.764608666E-2	-2.290677279E-2
8.583889570E-1	2.183778957E-2	5.161659420E-2	-1.511846948E-2
8.667919780E-1	2.519745007E-2	5.405998230E-2	-9.468132630E-3
8.751949990E-1	2.993151546E-2	4.504998401E-2	-0.000000000E0
8.835980200E-1	3.191677108E-2	3.466558084E-2	1.053711493E-2
8.920010400E-1	3.573456407E-2	1.786728203E-2	1.954711229E-2
9.004040610E-1	3.710897267E-2	-6.566607859E-3	2.443389036E-2
9.088070820E-1	3.176405653E-2	-2.748812735E-2	2.962609194E-2
9.172101030E-1	3.344388679E-2	-3.939964995E-2	3.390202299E-2
9.256131240E-1	3.176405653E-2	-4.596625641E-2	3.848337755E-2
9.340161450E-1	2.901524492E-2	-4.535540938E-2	4.214845970E-2
9.424191650E-1	2.565558441E-2	-3.176405653E-2	4.520269856E-2
9.508221860E-1	2.794626169E-2	-1.282779220E-2	4.703523964E-2
9.592252070E-1	3.115320951E-2	5.497625098E-3	4.886778072E-2
9.676282280E-1	3.100049868E-2	1.985253580E-2	5.070032179E-2
9.760312490E-1	3.405473381E-2	2.351761982E-2	5.192201585E-2
9.844342700E-1	3.710897267E-2	2.244863659E-2	5.390727147E-2
9.928372900E-1	3.573456407E-2	2.367033064E-2	4.779879749E-2
1.001240311E0	3.451287001E-2	4.062134400E-2	4.474456236E-2
1.009643332E0	3.924693540E-2	7.162184268E-2	4.077405483E-2
1.018046353E0	3.894151375E-2	1.052184403E-1	3.710897267E-2
1.026449374E0	4.001049697E-2	1.437018216E-1	3.008422814E-2
1.034852395E0	4.169032723E-2	1.835595965E-1	2.886253223E-2
1.043255415E0	4.169032723E-2	2.119639963E-1	3.237490356E-2
1.051658436E0	4.077405483E-2	2.217375487E-1	4.184303805E-2
1.060061457E0	4.596625641E-2	2.194468826E-1	5.573981255E-2
1.068464478E0	4.734066129E-2	2.144073844E-1	7.085828483E-2
1.076867499E0	4.902049154E-2	2.121167034E-1	8.399149776E-2
1.085270520E0	5.360184610E-2	2.254026383E-1	9.605573118E-2
1.093673540E0	5.848862603E-2	2.516690791E-1	1.067455560E-1
1.102076561E0	6.749862432E-2	2.840439677E-1	1.198787764E-1
1.110479582E0	7.925742865E-2	3.219164908E-1	1.325538605E-1
1.118882603E0	8.704573661E-2	3.405473530E-1	1.449235082E-1
1.127285624E0	9.009996802E-2	3.347443044E-1	1.548497826E-1
1.135688645E0	9.590301663E-2	3.333698809E-1	1.708845198E-1
1.144091665E0	1.010952219E-1	3.457395434E-1	1.840177327E-1
1.152494686E0	1.116323397E-1	3.394783735E-1	1.948602796E-1
1.160897707E0	1.130067408E-1	3.255815804E-1	1.969982386E-1
1.169300728E0	1.065928489E-1	3.083251417E-1	1.998997629E-1
1.177703749E0	9.666658193E-2	2.941229641E-1	2.011214644E-1
1.186106770E0	9.009996802E-2	2.922904193E-1	2.009687424E-1
1.194509790E0	8.414421231E-2	2.947337925E-1	2.040229887E-1
1.202912811E0	7.803573459E-2	2.892361879E-1	2.101314515E-1
1.211315832E0	7.162184268E-2	2.878617644E-1	2.107423097E-1
1.219718853E0	6.001574174E-2	2.600682080E-1	1.983726472E-1
1.228121874E0	5.192201585E-2	2.119639963E-1	1.905843467E-1
1.236524895E0	4.459185153E-2	2.014268786E-1	1.931804419E-1
1.244927915E0	3.084778599E-2	2.209739983E-1	1.942494214E-1
1.253330936E0	2.489202656E-2	2.283041626E-1	1.933331639E-1
1.261733957E0	1.985253580E-2	2.115058601E-1	1.872246861E-1
1.270136978E0	1.756185852E-2	1.800472289E-1	1.721062213E-1
1.278539999E0	1.282779220E-2	1.629435122E-1	1.539335102E-1
1.286943020E0	7.482878864E-3	1.536280811E-1	1.397313178E-1
1.295346040E0	3.054236295E-3	1.403421611E-1	1.291942000E-1
1.303749061E0	1.068982761E-3	1.339282542E-1	1.207950488E-1
1.312152082E0	1.832541777E-3	1.424801201E-1	1.104106456E-1
1.320555103E0	-3.970507067E-3	1.412584335E-1	9.620844573E-2
1.328958124E0	-1.313321572E-2	1.427855492E-1	8.567132801E-2
1.337361145E0	-1.298050396E-2	1.605001241E-1	8.276980370E-2
1.345764165E0	-1.221694518E-3	1.696628332E-1	7.635590434E-2
1.354167186E0	6.413896102E-3	1.685938388E-1	7.024743408E-2
1.362570207E0	1.924168877E-2	1.589729935E-1	5.665608495E-2
1.370973228E0	2.916795574E-2	1.395785958E-1	3.588727489E-2
1.379376249E0	2.947338112E-2	1.195733473E-1	2.183778957E-2
1.387779270E0	2.428117767E-2	1.151447073E-1	1.527118124E-2
1.396182290E0	2.580829710E-2	1.522536725E-1	1.695101149E-2
1.404585311E0	3.069507517E-2	2.090624720E-1	2.657185495E-2
1.412988332E0	3.313846514E-2	2.701472044E-1	3.069507517E-2
1.421391353E0	3.573456407E-2	3.100049794E-1	3.420744836E-2
1.429794374E0	3.894151375E-2	3.222219348E-1	3.558185324E-2
1.438197395E0	3.680354729E-2	3.150444627E-1	3.252761811E-2
1.446600415E0	2.565558441E-2	2.916795611E-1	3.451287001E-2
1.455003436E0	1.740914769E-2	2.681619525E-1	4.581354558E-2
1.463406457E0	1.450762246E-2	2.680092454E-1	6.505523622E-2
1.471809478E0	1.343864016E-2	2.774773538E-1	8.414421231E-2
1.480212499E0	9.926267900E-3	2.748812735E-1	1.020114943E-1
1.488615520E0	1.282779220E-2	2.730487287E-1	1.206423342E-1
1.497018540E0	2.199050039E-2	2.644968629E-1	1.368297935E-1
1.505421561E0	3.344388679E-2	2.548760176E-1	1.473668963E-1
1.513824582E0	3.665083647E-2	2.431172132E-1	1.557660550E-1
1.522227603E0	3.665083647E-2	2.342599183E-1	1.667613089E-1
1.530630624E0	3.802524135E-2	2.425063550E-1	1.811162084E-1
1.539033645E0	4.016320780E-2	2.615953386E-1	1.997470558E-1
1.547436665E0	4.978405312E-2	2.612899244E-1	2.232646793E-1
1.555839686E0	6.154286116E-2	2.441861928E-1	2.426590770E-1
1.564242707E0	6.230641901E-2	2.151709497E-1	2.573194206E-1
1.572645728E0	5.390727147E-2	1.705790907E-1	2.707580328E-1
1.581048749E0	5.024218559E-2	1.291942000E-1	2.742704153E-1
1.589451770E0	4.825693369E-2	1.041494608E-1	2.764083743E-1
1.597854790E0	4.077405483E-2	1.214058921E-1	2.756448388E-1
1.606257811E0	4.764608666E-2	1.470614821E-1	2.716743052E-1
1.614660832E0	6.108472496E-2	1.606528312E-1	2.677038014E-1
1.623063853E0	6.505523622E-2	1.789782494E-1	2.669402659E-1
1.631466874E0	6.077930331E-2	1.811162084E-1	2.699944973E-1
1.639869895E0	5.635065958E-2	1.727170646E-1	2.730487287E-1
1.648272915E0	5.833591148E-2	1.728697717E-1	2.738122940E-1
1.656675936E0	5.665608495E-2	1.805053651E-1	2.721324563E-1
1.665078957E0	5.131116882E-2	1.898207814E-1	2.712161839E-1
1.673481978E0	4.489727318E-2	2.029540092E-1	2.750339806E-1
1.681884999E0	4.031591862E-2	2.223484069E-1	2.773246467E-1
1.690288020E0	4.062134400E-2	2.370087355E-1	2.710634768E-1
1.698691040E0	3.848337755E-2	2.318165302E-1	2.675510943E-1
1.707094061E0	4.001049697E-2	2.295258641E-1	2.699944973E-1
1.715497082E0	4.795150831E-2	2.260134816E-1	2.706053257E-1
1.723900103E0	6.581879407E-2	1.969982386E-1	2.771719396E-1
1.732303124E0	4.932591692E-2	1.976090819E-1	2.722851634E-1
1.740706145E0	2.764083818E-2	1.745496094E-1	2.634278834E-1
1.749109165E0	1.679829881E-2	1.620272398E-1	2.583884001E-1
1.757512186E0	1.114796288E-2	1.921114624E-1	2.582356930E-1
1.765915207E0	1.908897609E-2	2.148655206E-1	2.536543310E-1
1.774318228E0	2.137965336E-2	2.005106062E-1	2.464768738E-1
1.782721249E0	1.007897966E-2	1.666085869E-1	2.438807636E-1
1.791124270E0	5.497625098E-3	1.505738497E-1	2.418955117E-1
1.799527290E0	1.679830020E-3	1.291942000E-1	2.470877171E-1
1.807930311E0	-1.985253533E-3	9.009996802E-2	2.620534599E-1
1.816333332E0	-2.901524538E-3	8.002099395E-2	2.728960216E-1
1.824736353E0	-5.803049076E-3	8.399149776E-2	2.599155009E-1
1.833139374E0	-1.191152167E-2	3.695625812E-2	2.579302490E-1
1.841542395E0	-9.773556143E-3	9.009997360E-3	2.626643181E-1
1.849945415E0	-6.413896102E-3	1.343864016E-2	2.628170252E-1
1.858348436E0	-5.497625098E-3	-2.443389036E-3	2.786990702E-1
1.866751457E0	8.551862091E-3	-2.825168520E-2	2.962609231E-1
1.875154478E0	2.519745007E-2	-5.253286287E-2	3.121429384E-1
1.883557499E0	1.710372418E-2	-1.522536725E-1	3.234436214E-1
1.891960520E0	4.275931045E-3	-2.619007528E-1	3.225273490E-1
1.900363540E0	-6.261184346E-3	-3.075616062E-1	3.194731176E-1
1.908766561E0	-9.773556143E-3	-2.947337925E-1	3.185568452E-1
1.917169582E0	-1.130067464E-2	-2.663294077E-1	3.194731176E-1
1.925572603E0	-4.734066315E-3	-2.435753495E-1	3.141281903E-1
1.933975624E0	6.566607859E-3	-2.377723008E-1	3.029802442E-1
1.942378645E0	4.123218823E-3	-2.669402659E-1	2.907632887E-1
1.950781665E0	5.955760833E-3	-2.999260128E-1	2.748812735E-1
1.959184686E0	1.679829881E-2	-2.904578745E-1	2.602209449E-1
1.967587707E0	2.275406010E-2	-2.545706034E-1	2.446443290E-1
1.975990728E0	3.023693897E-2	-2.377723008E-1	2.342599183E-1
1.984393749E0	3.726168349E-2	-2.309002578E-1	2.228065431E-1
1.992796770E0	4.550812021E-2	-2.406738251E-1	2.212794125E-1
2.001199790E0	4.978405312E-2	-2.615953386E-1	2.263189107E-1
2.009602811E0	5.268557742E-2	-2.825168669E-1	2.206685692E-1
2.018005832E0	5.375456065E-2	-2.907632887E-1	2.050919682E-1
2.026408853E0	5.573981255E-2	-2.761029601E-1	1.863084137E-1
2.034811874E0	5.665608495E-2	-2.599155009E-1	1.713426560E-1
2.043214895E0	6.352811307E-2	-2.363978922E-1	1.603474021E-1
2.051617915E0	6.673506647E-2	-2.093679011E-1	1.495048702E-1
2.060020936E0	6.948387623E-2	-1.904316396E-1	1.409530044E-1
2.068423957E0	7.543963939E-2	-1.835595965E-1	1.395785958E-1
2.076826978E0	8.170082420E-2	-1.641651988E-1	1.392731816E-1
2.085229999E0	8.872556686E-2	-1.325538605E-1	1.437018216E-1
2.093633020E0	9.620844573E-2	-1.162136942E-1	1.495048702E-1
2.102036040E0	9.956810623E-2	-1.145338640E-1	1.516428292E-1
2.110439061E0	1.026223376E-1	-1.395785958E-1	1.568350345E-1
2.118842082E0	1.049130186E-1	-1.634016484E-1	1.643179059E-1
2.127245103E0	1.123958975E-1	-1.620272398E-1	1.731752008E-1
2.135648124E0	1.220167428E-1	-1.618745178E-1	1.803526580E-1
2.144051145E0	1.340809762E-1	-1.635543555E-1	1.849340051E-1
2.152454165E0	1.412584335E-1	-1.601946950E-1	1.843231618E-1
2.160857186E0	1.534753740E-1	-1.516428292E-1	1.875301152E-1
2.169260207E0	1.685938388E-1	-1.353026628E-1	1.945548505E-1
2.177663228E0	1.716480851E-1	-1.107160673E-1	1.927223057E-1
2.186066249E0	1.750077456E-1	-1.152974218E-1	1.838650256E-1
2.194469270E0	1.792836636E-1	-1.232384369E-1	1.827960461E-1
2.202872290E0	1.889045089E-1	-1.163664013E-1	1.884463727E-1
2.211275311E0	1.988307834E-1	-1.198787764E-1	1.931804419E-1
2.219678332E0	2.006633282E-1	-1.479777545E-1	1.911951900E-1
2.228081353E0	2.011214644E-1	-1.916533262E-1	1.841704547E-1
2.236484374E0	2.055501044E-1	-2.199050188E-1	1.800472289E-1
2.244887395E0	2.070772201E-1	-2.359397560E-1	1.739387512E-1
2.253290415E0	2.096733153E-1	-2.423536479E-1	1.688992679E-1
2.261693436E0	2.098260373E-1	-2.547233105E-1	1.611109674E-1
2.270096457E0	2.110477239E-1	-2.756448388E-1	1.484358907E-1
2.278499478E0	2.092151791E-1	-2.968717813E-1	1.395785958E-1
2.286902499E0	2.113531530E-1	-3.037438095E-1	1.368297935E-1
2.295305520E0	2.163926363E-1	-3.005368412E-1	1.359135211E-1
2.303708540E0	2.206685692E-1	-3.089359999E-1	1.388150454E-1
2.312111561E0	2.296785712E-1	-3.122956753E-1	1.447708011E-1
2.320514582E0	2.415900975E-1	-3.075616062E-1	1.542389393E-1
2.328917603E0	2.519744933E-1	-3.136700690E-1	1.701209545E-1
2.337320624E0	2.588465214E-1	-3.268032968E-1	1.794363856E-1
2.345723645E0	2.619007528E-1	-3.530697227E-1	1.875301152E-1
2.354126665E0	2.692309320E-1	-3.742966652E-1	1.951656938E-1
2.362529686E0	2.799207568E-1	-3.816268146E-1	1.927223057E-1
2.370932707E0	2.988570333E-1	-3.596363366E-1	1.798945218E-1
2.379335728E0	3.260397315E-1	-3.135173619E-1	1.611109674E-1
2.387738749E0	3.489464819E-1	-2.709107697E-1	1.319430023E-1
2.396141770E0	3.643703759E-1	-2.380777150E-1	9.743013978E-2
2.404544790E0	3.713951409E-1	-2.171562016E-1	6.826218218E-2
2.412947811E0	3.687990308E-1	-1.898207814E-1	4.902049154E-2
2.421350832E0	3.611634374E-1	-1.513374150E-1	3.848337755E-2
2.429753853E0	3.593308926E-1	-1.241547018E-1	3.100049868E-2
2.438156874E0	3.616215885E-1	-1.149920002E-1	3.100049868E-2
2.446559895E0	3.634541333E-1	-1.043021679E-1	3.222219273E-2
2.454962915E0	3.707842827E-1	-7.238540053E-2	1.664558798E-2
2.463365936E0	3.762819171E-1	-3.573456407E-2	-1.328592747E-2
2.471768957E0	3.819322586E-1	-2.596100792E-2	-2.336490713E-2
2.480171978E0	3.875826001E-1	-4.871506989E-2	-2.535016090E-2
2.488574999E0	4.033119082E-1	-7.391251624E-2	-2.748812735E-2
2.496978020E0	4.077405334E-1	-1.206423342E-1	3.436015919E-2
2.505381040E0	3.596363366E-1	-1.805053651E-1	6.169557199E-2
2.513784061E0	3.926220834E-1	-8.047912270E-2	5.955760926E-2
2.522187082E0	3.681881726E-1	-1.160609797E-1	1.408002973E-1
2.530590103E0	3.570402265E-1	-1.771457046E-1	1.637070626E-1
2.538993124E0	3.665083647E-1	-2.034121305E-1	1.919587553E-1
2.547396145E0	3.571929336E-1	-2.463241518E-1	2.544178963E-1
2.555799165E0	3.570402265E-1	-2.938175201E-1	3.101576865E-1
2.564202186E0	3.665083647E-1	-3.196258247E-1	3.472666740E-1
2.572605207E0	3.775036037E-1	-3.069507480E-1	3.823903799E-1
2.581008228E0	3.889569938E-1	-2.753393948E-1	4.176668227E-1
2.589411249E0	4.014793634E-1	-2.301367074E-1	4.521796703E-1
2.597814270E0	4.112529159E-1	-1.997470558E-1	4.891359508E-1
2.606217290E0	4.123218954E-1	-1.831014603E-1	5.120427012E-1
2.614620311E0	4.141544402E-1	-1.666085869E-1	5.270084739E-1
2.623023332E0	4.170559645E-1	-1.580567211E-1	5.419742465E-1
2.631426353E0	4.169032574E-1	-1.571404636E-1	5.596888065E-1
2.639829374E0	4.216373265E-1	-1.336228400E-1	5.657972693E-1
2.648232395E0	4.341596961E-1	-8.246438205E-2	5.644228458E-1
2.656635415E0	4.366030693E-1	-4.520269856E-2	5.720584393E-1
2.665038436E0	4.503471553E-1	-5.344913341E-3	5.711421967E-1
2.673441457E0	4.726430774E-1	6.230641901E-2	5.673243999E-1
2.681844478E0	4.918847680E-1	1.189625040E-1	5.618267655E-1
2.690247499E0	5.060869455E-1	1.530172378E-1	5.514423847E-1
2.698650520E0	5.242596865E-1	1.942494214E-1	5.442649126E-1
2.707053540E0	5.427377820E-1	2.377723008E-1	5.465555787E-1
2.715456561E0	5.520532131E-1	2.776300907E-1	5.564818382E-1
2.723859582E0	5.569399595E-1	3.257342875E-1	5.772506595E-1
2.732262603E0	5.519005060E-1	3.817795515E-1	6.044333577E-1
2.740665624E0	5.373928547E-1	4.437805414E-1	6.331431866E-1
2.749068645E0	5.201364160E-1	4.917320311E-1	6.529957056E-1
2.757471665E0	4.721849263E-1	5.222744346E-1	6.520794630E-1
2.765874686E0	3.941491842E-1	5.409052372E-1	6.082511544E-1
2.774277707E0	3.318427801E-1	5.496098399E-1	5.248705149E-1
2.782680728E0	3.127537966E-1	4.540122151E-1	4.532486796E-1
2.791083749E0	2.838912606E-1	2.293731421E-1	3.771981895E-1
2.799486770E0	2.379250079E-1	-4.321744293E-2	2.765611112E-1
2.807889790E0	1.739387512E-1	-2.909159958E-1	1.774511337E-1
2.816292811E0	1.065928489E-1	-4.550811946E-1	8.383878320E-2
2.824695832E0	3.985778242E-2	-5.311316848E-1	-1.114796288E-2
2.833098853E0	-2.137965523E-3	-5.311316848E-1	-1.113269106E-1
2.841501874E0	-4.504998401E-2	-4.970769584E-1	-2.179197669E-1
2.849904895E0	-1.134648770E-1	-4.396573007E-1	-3.307738006E-1
2.858307915E0	-1.785201132E-1	-3.486410677E-1	-4.424061179E-1
2.866710936E0	-2.212794125E-1	-2.240282297E-1	-5.422796607E-1
2.875113957E0	-2.600682080E-1	-9.407047927E-2	-6.351284385E-1
2.883516978E0	-3.019112647E-1	2.580829710E-2	-7.293516397E-1
2.891919999E0	-3.407000601E-1	1.438545287E-1	-8.157865405E-1
2.900323020E0	-3.756710589E-1	2.446443290E-1	-8.866447806E-1
2.908726040E0	-4.008685052E-1	3.151971996E-1	-9.587247968E-1
2.917129061E0	-4.217900336E-1	3.530697227E-1	-1.032637239E0
2.925532082E0	-4.440859556E-1	3.642176688E-1	-1.105175376E0
2.933935103E0	-4.579827189E-1	3.425326049E-1	-1.162747741E0
2.942338124E0	-4.711159468E-1	2.913741469E-1	-1.215127945E0
2.950741145E0	-4.886777997E-1	2.099787444E-1	-1.262315869E0
2.959144165E0	-5.106683373E-1	1.139230132E-1	-1.301868200E0
2.967547186E0	-5.328115225E-1	3.817795217E-2	-1.340656996E0
2.975950207E0	-5.546492934E-1	-1.710372418E-2	-1.370283127E0
2.984353228E0	-5.761816502E-1	-6.490252167E-2	-1.398076653E0
2.992756249E0	-5.995466113E-1	-1.032331884E-1	-1.429229856E0
3.001159270E0	-6.250494719E-1	-1.269035190E-1	-1.462826490E0
3.009562290E0	-6.482616663E-1	-1.310267299E-1	-1.492147088E0
3.017965311E0	-6.618530154E-1	-1.091889441E-1	-1.505585790E0
3.026368332E0	-6.734591126E-1	-7.162184268E-2	-1.515053868E0
3.034771353E0	-6.879667044E-1	-2.870982140E-2	-1.527423620E0
3.043174374E0	-6.988092661E-1	2.428117767E-2	-1.536738992E0
3.051577395E0	-7.044596076E-1	6.963659078E-2	-1.535822749E0
3.059980415E0	-7.090409398E-1	9.407047927E-2	-1.538877010E0
3.068383436E0	-7.139277458E-1	9.376505762E-2	-1.539182425E0
3.076786457E0	-7.207997441E-1	4.856235534E-2	-1.532310367E0
3.085189478E0	-7.233958840E-1	-2.718270384E-2	-1.515970230E0
3.093592499E0	-7.290462255E-1	-1.123958975E-1	-1.487871170E0
3.101995520E0	-7.296570539E-1	-1.913478971E-1	-1.453511000E0
3.110398540E0	-7.250757217E-1	-2.701472044E-1	-1.413653255E0
3.118801561E0	-7.305732965E-1	-3.422271907E-1	-1.377155185E0
3.127204582E0	-7.375980616E-1	-3.723114133E-1	-1.349056125E0
3.135607603E0	-7.252284288E-1	-3.671191931E-1	-1.316070437E0
3.144010624E0	-6.965186000E-1	-3.469612300E-1	-1.281252146E0
3.152413645E0	-6.700994372E-1	-3.498627543E-1	-1.226581335E0
3.160816665E0	-6.594096422E-1	-3.506263196E-1	-1.155722976E0
3.169219686E0	-6.117635369E-1	-3.019112647E-1	-1.075396657E0
3.177622707E0	-5.286883116E-1	-2.339545041E-1	-9.549070001E-1
3.186025728E0	-4.691306949E-1	-1.805053651E-1	-8.087617755E-1
3.194428749E0	-4.460712075E-1	-1.433963925E-1	-6.580352187E-1
3.202831770E0	-3.637595475E-1	-1.820324808E-1	-4.717268050E-1
3.211234790E0	-1.995943487E-1	-2.793098986E-1	-2.299840003E-1
3.219637811E0	-9.529217333E-2	-3.297048211E-1	3.313846514E-2
3.228040832E0	-1.383569092E-1	-2.739650011E-1	2.658712566E-1
3.236443853E0	-4.382828996E-2	-1.997470558E-1	4.182776511E-1
3.244846874E0	8.719844371E-2	-7.666133344E-2	5.198310018E-1
3.253249895E0	1.446180940E-1	1.061347127E-1	5.845808387E-1
3.261652915E0	1.479777545E-1	2.322746664E-1	6.720846891E-1
3.270055936E0	1.340809762E-1	2.951919436E-1	7.310314775E-1
3.278458957E0	1.284306347E-1	3.694098890E-1	7.317950130E-1
3.286861978E0	1.305686086E-1	4.282039404E-1	7.162184119E-1
3.295264999E0	1.377460510E-1	4.492781460E-1	6.943806410E-1
3.303668020E0	1.403421611E-1	4.515688419E-1	6.671979427E-1
3.312071040E0	1.368297935E-1	4.194993675E-1	6.374191046E-1
3.320474061E0	1.304158866E-1	3.355078697E-1	6.067240238E-1
3.328877082E0	1.145338640E-1	2.064663768E-1	5.798467398E-1
3.337280103E0	1.033858955E-1	4.902049154E-2	5.783196688E-1
3.345683124E0	1.029277667E-1	-1.139230132E-1	6.135960817E-1
3.354086145E0	1.246128380E-1	-2.672456801E-1	6.762079000E-1
3.362489165E0	1.395785958E-1	-4.011739492E-1	7.595885396E-1
3.370892186E0	1.117850468E-1	-3.881934285E-1	8.399149776E-1
3.379295207E0	5.833591148E-2	-8.842013776E-2	8.703046441E-1
3.387698228E0	2.550287358E-2	3.759764731E-1	8.444963098E-1
3.396101249E0	5.955760833E-3	7.166765332E-1	7.600467205E-1
3.404504270E0	-1.068982668E-2	8.220477104E-1	6.270347238E-1
3.412907290E0	-2.351761982E-2	7.244648337E-1	5.002838969E-1
3.421310311E0	-2.244863659E-2	4.989095032E-1	4.581354558E-1
3.429713332E0	-1.634016447E-2	2.090624720E-1	5.175403357E-1
3.438116353E0	-2.825168520E-2	-2.290677279E-2	6.056550741E-1
3.446519374E0	-3.695625812E-2	2.565558441E-2	6.542174220E-1
3.454922395E0	-7.024743594E-3	2.889307439E-1	6.676560640E-1
3.463325415E0	4.031591862E-2	4.865398407E-1	6.523848772E-1
3.471728436E0	5.268557742E-2	5.012001991E-1	6.009209752E-1
3.480131457E0	2.916795574E-2	4.100312293E-1	5.242596865E-1
3.488534478E0	2.076880634E-2	3.032856584E-1	4.718795121E-1
3.496937499E0	1.496575773E-2	2.316638231E-1	4.885250926E-1
3.505340520E0	-8.551862091E-3	2.147128135E-1	5.326588154E-1
3.513743540E0	-1.710372418E-2	2.073826492E-1	5.572454333E-1
3.522146561E0	-2.336490713E-2	1.661504507E-1	5.535803437E-1
3.530549582E0	-3.527642787E-2	9.483403713E-2	5.169295073E-1
3.538952603E0	-3.817795217E-2	7.192726433E-2	4.784461260E-1
3.547355624E0	-3.588727489E-2	1.119377613E-1	4.517215490E-1
3.555758645E0	-3.436015919E-2	1.962346882E-1	4.178195298E-1
3.564161665E0	-2.962609194E-2	3.055763543E-1	3.839175105E-1
3.572564686E0	-2.443389036E-2	3.970507085E-1	3.712424338E-1
3.580967707E0	-9.926267900E-3	4.624113739E-1	3.756710589E-1
3.589370728E0	-1.007897966E-2	4.805840850E-1	3.808632791E-1
3.597773749E0	-2.061609551E-2	4.086568058E-1	3.759764731E-1
3.606176770E0	-2.947338112E-2	3.035911024E-1	3.746020794E-1
3.614579790E0	-3.695625812E-2	2.286095917E-1	3.791834414E-1
3.622982811E0	-4.703523964E-2	1.737860441E-1	3.852919042E-1
3.631385832E0	-4.718795046E-2	1.409530044E-1	3.935383558E-1
3.639788853E0	-4.382828996E-2	1.269035190E-1	4.039227366E-1
3.648191874E0	-4.001049697E-2	1.152974218E-1	4.051444530E-1
3.656594895E0	-3.787253052E-2	8.399149776E-2	3.976615667E-1
3.664997915E0	-3.313846514E-2	4.382828996E-2	3.949127495E-1
3.673400936E0	-2.809897438E-2	9.468132630E-3	3.897205591E-1
3.681803957E0	-2.260134928E-2	-2.977880463E-2	3.813214004E-1
3.690206978E0	-1.695101149E-2	-6.490252167E-2	3.707842827E-1
3.698609999E0	-1.130067464E-2	-8.643488586E-2	3.579564989E-1
3.707013020E0	-9.468132630E-3	-9.147437662E-2	3.449759781E-1
3.715416040E0	-1.130067464E-2	-9.223793447E-2	3.312319219E-1
3.723819061E0	-8.551862091E-3	-9.147437662E-2	3.185568452E-1
3.732222082E0	-5.650337320E-3	-8.444963396E-2	3.153499067E-1
3.740625103E0	2.748812549E-3	-7.421794534E-2	3.067980409E-1
3.749028124E0	1.130067464E-2	-8.307522535E-2	2.953446507E-1
3.757431145E0	1.557660475E-2	-1.033858955E-1	2.823641598E-1
3.765834165E0	1.710372418E-2	-1.211004704E-1	2.719797492E-1
3.774237186E0	1.954711229E-2	-1.307213157E-1	2.655658424E-1
3.782640207E0	2.809897438E-2	-1.267508119E-1	2.574721277E-1
3.791043228E0	3.863608837E-2	-1.235438585E-1	2.458660156E-1
3.799446249E0	5.161659420E-2	-1.221694499E-1	2.400629669E-1
3.807849270E0	6.658235192E-2	-1.168245375E-1	2.403683960E-1
3.816252290E0	8.063183725E-2	-1.212531775E-1	2.429644912E-1
3.824655311E0	8.765657991E-2	-1.508792788E-1	2.429644912E-1
3.833058332E0	9.223793447E-2	-1.821851879E-1	2.451024652E-1
3.841461353E0	9.605573118E-2	-2.026485801E-1	2.541124523E-1
3.849864374E0	1.047603041E-1	-2.110477239E-1	2.602209449E-1
3.858267395E0	1.113269106E-1	-2.258607745E-1	2.602209449E-1
3.866670415E0	1.188097894E-1	-2.386885732E-1	2.609844804E-1
3.875073436E0	1.324011385E-1	-2.293731421E-1	2.678565085E-1
3.883476457E0	1.459924877E-1	-2.101314515E-1	2.713688910E-1
3.891879478E0	1.522536725E-1	-2.203631550E-1	2.660239935E-1
3.900282499E0	1.583621502E-1	-2.476985604E-1	2.622061968E-1
3.908685520E0	1.672194302E-1	-2.509055138E-1	2.689255178E-1
3.917088540E0	1.785201132E-1	-2.254026383E-1	2.829749882E-1
3.925491561E0	1.878355294E-1	-2.061609477E-1	2.925958335E-1
3.933894582E0	2.018850148E-1	-2.078407854E-1	3.017585576E-1
3.942297603E0	2.159345001E-1	-2.229592502E-1	3.124483824E-1
3.950700624E0	2.255553454E-1	-2.551814318E-1	3.217637837E-1
3.959103645E0	2.362451702E-1	-2.962609231E-1	3.312319219E-1
3.967506665E0	2.483094037E-1	-3.281776905E-1	3.440597057E-1
3.975909686E0	2.589992285E-1	-3.480302393E-1	3.623851240E-1
3.984312707E0	2.716743052E-1	-3.668137789E-1	3.730749488E-1
3.992715728E0	2.803788781E-1	-3.973561525E-1	3.822376728E-1
4.001118749E0	2.870981991E-1	-4.165978432E-1	3.927747905E-1
4.009521770E0	2.987042964E-1	-4.069769979E-1	4.071297050E-1
4.017924790E0	3.106158376E-1	-3.840702176E-1	4.201101959E-1
4.026327811E0	3.281776905E-1	-3.724641204E-1	4.251496792E-1
4.034730832E0	3.477247953E-1	-3.458922505E-1	4.311054647E-1
4.043133853E0	3.684936166E-1	-3.206948042E-1	4.315635860E-1
4.051536874E0	3.830012381E-1	-3.087832928E-1	4.364503622E-1
4.059939895E0	3.982724249E-1	-2.935121059E-1	4.410317242E-1
4.068342915E0	4.121691883E-1	-2.904578745E-1	4.362976551E-1
4.076745936E0	4.185830951E-1	-3.098522723E-1	4.246915579E-1
4.085148957E0	4.216373265E-1	-3.327590525E-1	4.225535989E-1
4.093551978E0	4.245388508E-1	-3.452814221E-1	4.164451063E-1
4.101954999E0	4.311054647E-1	-3.578037918E-1	4.056025743E-1
4.110358020E0	4.335488379E-1	-3.710896969E-1	3.794888556E-1
4.118761040E0	4.349232614E-1	-3.797942698E-1	3.568875194E-1
4.127164061E0	4.358395338E-1	-3.651339412E-1	3.352024257E-1
4.135567082E0	4.387410581E-1	-3.324536085E-1	3.080197275E-1
4.143970103E0	4.388937652E-1	-2.927485406E-1	2.773246467E-1
4.152373124E0	4.416425824E-1	-2.480039895E-1	2.441861928E-1
4.160776145E0	4.448495209E-1	-2.141019702E-1	2.189887464E-1
4.169179165E0	4.480564594E-1	-1.884463727E-1	2.047865391E-1
4.177582186E0	4.463766217E-1	-1.629435122E-1	1.983726472E-1
4.185985207E0	4.451549351E-1	-1.308740228E-1	2.024958730E-1
4.194388228E0	4.413371384E-1	-9.315420687E-2	2.192941606E-1
4.202791249E0	4.414898455E-1	-5.803048983E-2	2.403683960E-1
4.211194270E0	4.468347728E-1	-2.565558441E-2	2.626643181E-1
4.219597290E0	4.556920528E-1	1.374406274E-3	2.930539846E-1
4.228000311E0	4.604261220E-1	1.420219894E-2	3.278722763E-1
4.236403332E0	4.712686539E-1	3.145863488E-2	3.642176688E-1
4.244806353E0	4.873034060E-1	5.207473040E-2	4.045335948E-1
4.253209374E0	4.995203316E-1	6.322269142E-2	4.511106908E-1
4.261612395E0	5.137225389E-1	7.528692484E-2	4.979932308E-1
4.270015415E0	5.216635466E-1	9.697200358E-2	5.558710098E-1
4.278418436E0	5.369347334E-1	1.203369126E-1	6.157340407E-1
4.286821457E0	5.479300022E-1	1.519482583E-1	6.705575585E-1
4.295224478E0	5.561764240E-1	1.931804419E-1	7.221741676E-1
4.303627499E0	5.645755529E-1	2.325800955E-1	7.705838084E-1
4.312030520E0	5.599942207E-1	2.661767006E-1	8.069292307E-1
4.320433540E0	5.367820263E-1	2.936648130E-1	8.258655071E-1
4.328836561E0	4.894413650E-1	3.274141252E-1	8.122741580E-1
4.337239582E0	4.350759685E-1	3.518480062E-1	7.632536292E-1
4.345642603E0	4.045335948E-1	3.185568452E-1	7.027797699E-1
4.354045624E0	3.698680103E-1	2.060082406E-1	6.438329816E-1
4.362448645E0	3.222219348E-1	5.589252338E-2	5.567872524E-1
4.370851665E0	2.680092454E-1	-8.414421231E-2	4.410317242E-1
4.379254686E0	2.121167034E-1	-1.762294322E-1	3.210002482E-1
4.387657707E0	1.634016484E-1	-2.408265322E-1	2.086043358E-1
4.396060728E0	1.102579311E-1	-2.925958335E-1	9.254335612E-2
4.404463749E0	4.535540938E-2	-3.165715933E-1	-4.367557913E-2
4.412866770E0	-2.672456764E-2	-3.113794029E-1	-1.992889196E-1
4.421269790E0	-9.605573118E-2	-3.005368412E-1	-3.570402265E-1
4.429672811E0	-1.635543555E-1	-2.996205688E-1	-4.986040890E-1
4.438075832E0	-2.493783981E-1	-2.987042964E-1	-6.386408210E-1
4.446478853E0	-3.312319219E-1	-2.599155009E-1	-7.824953198E-1
4.454881874E0	-3.979669809E-1	-2.014268786E-1	-9.133693576E-1
4.463290706E0	-4.653128982E-1	-1.588202864E-1	-1.033095479E0
4.471693726E0	-5.277720094E-1	-1.127013192E-1	-1.152363300E0
4.480096747E0	-5.806103349E-1	-6.627693027E-2	-1.250404358E0
4.488499768E0	-6.332958937E-1	-2.657185495E-2	-1.337297320E0
4.496902789E0	-6.697940230E-1	1.634016447E-2	-1.419761777E0
4.505305810E0	-6.983511448E-1	3.573456407E-2	-1.484969735E0
4.513708831E0	-7.293516397E-1	5.039490014E-2	-1.550177574E0
4.522111851E0	-7.524111271E-1	7.788302749E-2	-1.605306625E0
4.530514872E0	-7.650861740E-1	9.590301663E-2	-1.650051117E0
4.538917893E0	-7.814263701E-1	7.864658535E-2	-1.695711970E0
4.547320914E0	-7.995990515E-1	5.192201585E-2	-1.741830945E0
4.555723935E0	-8.061656952E-1	2.748812735E-2	-1.776343822E0
4.564126956E0	-8.130376935E-1	-1.282779220E-2	-1.787949920E0
4.572529976E0	-8.182299137E-1	-5.390727147E-2	-1.797876239E0
4.580932997E0	-8.147175312E-1	-8.643488586E-2	-1.796043634E0
4.589336018E0	-8.070819378E-1	-1.177408099E-1	-1.781535983E0
4.597739039E0	-8.002098799E-1	-1.342336833E-1	-1.763974190E0
4.606142060E0	-8.009734750E-1	-1.301104724E-1	-1.745954156E0
4.614545081E0	-8.055548072E-1	-1.000262350E-1	-1.737860441E0
4.622948101E0	-8.029587269E-1	-5.008947477E-2	-1.727934241E0
4.631351122E0	-8.040276766E-1	-1.038440317E-2	-1.708692551E0
4.639754143E0	-8.139539957E-1	1.679830020E-3	-1.681509733E0
4.648157164E0	-8.269344568E-1	1.511846948E-2	-1.665627718E0
4.656560185E0	-8.289197087E-1	4.413371533E-2	-1.653105378E0
4.664963206E0	-8.276980519E-1	8.704573661E-2	-1.637834191E0
4.673366226E0	-8.283088803E-1	1.119377613E-1	-1.599808931E0
4.681769247E0	-8.313631415E-1	8.735115826E-2	-1.556133389E0
4.690172268E0	-8.264763355E-1	6.184828654E-2	-1.527270913E0
4.698575289E0	-8.081509471E-1	3.512371704E-2	-1.489856482E0
4.706978310E0	-7.881456614E-1	-1.725643501E-2	-1.433658481E0
4.715381331E0	-7.779139876E-1	-6.322269142E-2	-1.375933409E0
4.723784351E0	-7.618792653E-1	-7.009471953E-2	-1.322026134E0
4.732187372E0	-7.350019813E-1	-2.932066843E-2	-1.284917235E0
4.740590393E0	-7.151494026E-1	4.734066315E-3	-1.252084136E0
4.748993414E0	-7.056813240E-1	-1.145338640E-2	-1.223221660E0
4.757396435E0	-6.920899153E-1	-7.513421029E-2	-1.196191669E0
4.765799456E0	-6.843016148E-1	-1.618745178E-1	-1.169467092E0
4.774202476E0	-6.865923405E-1	-2.565558553E-1	-1.134648800E0
4.782605497E0	-6.934643388E-1	-3.390202224E-1	-1.105328083E0
4.791008518E0	-6.971294284E-1	-3.993414044E-1	-1.088682532E0
4.799411539E0	-6.949914694E-1	-4.375193417E-1	-1.075243831E0
4.807814560E0	-6.765133142E-1	-4.607315361E-1	-1.059514523E0
4.816217581E0	-6.187883019E-1	-4.544703662E-1	-1.056307673E0
4.824620601E0	-5.286883116E-1	-4.245388508E-1	-1.040578246E0
4.833023622E0	-4.825693369E-1	-3.884988427E-1	-9.552124143E-1
4.841426643E0	-5.099047422E-1	-2.944283783E-1	-7.850914598E-1
4.849829664E0	-5.150969625E-1	-3.069507517E-2	-6.068767309E-1
4.858232685E0	-4.210264683E-1	3.860554695E-1	-5.068505406E-1
4.866635706E0	-3.037438095E-1	6.817055345E-1	-4.526378214E-1
4.875038726E0	-2.212794125E-1	7.232431769E-1	-4.023956358E-1
4.883441747E0	-1.693574041E-1	5.488462448E-1	-3.326063454E-1
4.891844768E0	-1.467560530E-1	2.918322682E-1	-2.351761907E-1
4.900247789E0	-1.349972486E-1	7.543963939E-2	-1.148392856E-1
4.908650810E0	-1.217113137E-1	-6.780404598E-2	4.306473210E-2
4.917053831E0	-9.269607067E-2	-1.440072358E-1	2.105895877E-1
4.925456851E0	-4.657710344E-2	-1.971509457E-1	3.538332880E-1
4.933859872E0	-1.007897966E-2	-2.582356930E-1	4.813476503E-1
4.942262893E0	-1.298050396E-2	-2.696890533E-1	5.870242119E-1
4.950665914E0	-8.765657991E-2	-9.636115283E-2	6.300889254E-1
4.959068935E0	-2.195995897E-1	2.890834510E-1	6.102364063E-1
4.967471956E0	-3.529170156E-1	7.910472155E-1	5.496098399E-1
4.975874976E0	-4.220954478E-1	1.289345860E0	4.595098495E-1
4.984277997E0	-2.877090573E-1	1.580414534E0	3.924693763E-1
4.992681018E0	-2.901524538E-3	1.385401607E0	4.558447599E-1
5.001084039E0	2.722851634E-1	7.314895988E-1	6.922426820E-1
5.009487060E0	3.933856487E-1	5.986303091E-2	7.895200849E-1
5.017890081E0	3.524588645E-1	-3.532224298E-1	6.710157394E-1
5.026293101E0	1.957765520E-1	-5.610632300E-1	5.506787896E-1
5.034696122E0	6.566607859E-3	-5.364766121E-1	5.317425132E-1
5.043099143E0	-1.119377613E-1	-2.658712566E-1	6.285618544E-1
5.051502164E0	-1.302631795E-1	2.229592577E-2	7.366818190E-1
5.059905185E0	-8.796200156E-2	1.769929975E-1	7.757760286E-1
5.068308206E0	-4.474456236E-2	1.905843467E-1	7.285880446E-1
5.076711226E0	-1.878355257E-2	1.798945218E-1	6.415423155E-1
5.085114247E0	1.221694518E-3	2.264716178E-1	5.592306852E-1
5.093517268E0	2.367033064E-2	3.269560039E-1	5.012001991E-1
5.101920289E0	3.603998944E-2	4.117110670E-1	4.775298536E-1
5.110323310E0	2.840439789E-2	4.592044353E-1	4.657710493E-1
5.118726331E0	4.581354442E-4	4.931064546E-1	4.559974670E-1
5.127129351E0	-2.855710872E-2	5.056288242E-1	4.550811946E-1
5.135532372E0	-3.390202299E-2	4.914266169E-1	4.555393457E-1
5.143935393E0	-1.618745178E-2	4.727957845E-1	4.443913698E-1
5.152338414E0	1.007897966E-2	4.572191834E-1	4.318690002E-1
5.160741435E0	2.748812735E-2	4.211791754E-1	4.225535989E-1
5.169144456E0	3.161134571E-2	3.553603888E-1	4.109475017E-1
5.177547476E0	1.481304597E-2	2.929012477E-1	3.967452943E-1
5.185950497E0	-1.298050396E-2	2.846548259E-1	3.805578351E-1
5.194353518E0	-2.473931387E-2	3.272614181E-1	3.762819171E-1
5.202756539E0	-2.229592577E-2	3.831539452E-1	3.762819171E-1
5.211159560E0	-1.771457121E-2	4.288147688E-1	3.756710589E-1
5.219562581E0	-1.160609815E-2	4.465293586E-1	3.726168275E-1
5.227965601E0	-5.497625098E-3	4.257605374E-1	3.625378609E-1
5.236368622E0	2.443389036E-3	3.613161445E-1	3.556658030E-1
5.244771643E0	1.511846948E-2	2.967190444E-1	3.515425920E-1
5.253174664E0	1.847812906E-2	2.386885732E-1	3.585673273E-1
5.261577685E0	6.719320081E-3	1.974563748E-1	3.771981895E-1
5.269980706E0	1.679830020E-3	1.939440072E-1	4.078932703E-1
5.278383726E0	1.023169141E-2	2.130329758E-1	4.448495209E-1
5.286786747E0	5.008947477E-2	2.412846684E-1	4.778352678E-1
5.295189768E0	9.636115283E-2	2.898470163E-1	5.312843919E-1
5.303592789E0	1.339282542E-1	3.652866483E-1	5.598415136E-1
5.311995810E0	1.305686086E-1	3.035911024E-1	5.496098399E-1
5.320398831E0	9.758284688E-2	1.659977436E-1	5.103628635E-1
5.328801851E0	7.437065244E-2	8.887827396E-2	4.622586668E-1
5.337204872E0	7.910472155E-2	1.220167428E-1	4.393518865E-1
5.345607893E0	8.674030751E-2	2.079934925E-1	4.488200247E-1
5.354010914E0	8.444963396E-2	2.680092454E-1	4.540122151E-1
5.362413935E0	8.628217876E-2	2.918322682E-1	4.362976551E-1
5.370816956E0	7.620319724E-2	2.761029601E-1	4.086568058E-1
5.379219976E0	5.741964281E-2	2.307475507E-1	3.886515796E-1
5.387622997E0	4.810422286E-2	1.919587553E-1	3.686463237E-1
5.396026018E0	4.169032723E-2	1.682884246E-1	3.565820754E-1
5.404429039E0	2.718270384E-2	1.601946950E-1	3.481829464E-1
5.412832060E0	1.359135192E-2	1.443126649E-1	3.385621011E-1
5.421235081E0	1.175880991E-2	1.056765765E-1	3.304683566E-1
5.429638101E0	5.955760833E-3	5.726693198E-2	3.187095523E-1
5.438041122E0	-6.566607859E-3	1.527118124E-2	3.019112647E-1
5.446444143E0	-1.450762246E-2	-1.435491070E-2	2.845021188E-1
5.454847164E0	-1.664558798E-2	-3.665083647E-2	2.757975459E-1
5.463250185E0	-1.542389300E-2	-4.352286831E-2	2.738122940E-1
5.471653206E0	-2.031067200E-2	-4.871506989E-2	2.739650011E-1
5.480056226E0	-1.389677543E-2	-7.131642103E-2	2.776300907E-1
5.488459247E0	-3.206948051E-3	-9.407047927E-2	2.852656841E-1
5.496862268E0	6.413896102E-3	-1.070509851E-1	2.959555089E-1
5.505265289E0	9.162709117E-3	-1.220167428E-1	3.014531136E-1
5.513668310E0	1.481304597E-2	-1.475196183E-1	3.043546379E-1
5.522071331E0	1.832541823E-2	-1.698155403E-1	3.093941510E-1
5.530474351E0	2.290677279E-2	-1.771457046E-1	3.090887070E-1
5.538877372E0	2.718270384E-2	-1.676775664E-1	3.092414141E-1
5.547280393E0	3.298575059E-2	-1.641651988E-1	3.118375242E-1
5.555683414E0	3.695625812E-2	-1.983726472E-1	3.168770075E-1
5.564086435E0	4.611896724E-2	-2.121167034E-1	3.289412558E-1
5.572489456E0	5.955760926E-2	-2.003578991E-1	3.455868363E-1
5.580892476E0	7.223268598E-2	-2.044811249E-1	3.636068404E-1
5.589295497E0	9.575030953E-2	-1.948602796E-1	3.802524209E-1
5.597698518E0	1.067455560E-1	-1.944021434E-1	3.935383558E-1
5.606101539E0	1.038440317E-1	-2.325800955E-1	3.946073353E-1
5.614504560E0	1.006370857E-1	-2.585411072E-1	3.956763148E-1
5.622907581E0	1.050657257E-1	-2.496838123E-1	3.946073353E-1
5.631310601E0	1.120904684E-1	-2.351761907E-1	3.975088596E-1
5.639713622E0	1.192679256E-1	-2.223484069E-1	3.962871730E-1
5.648116643E0	1.249182671E-1	-2.217375487E-1	3.929274976E-1
5.656519664E0	1.279724985E-1	-2.383831441E-1	3.917058110E-1
5.664922685E0	1.322484314E-1	-2.599155009E-1	3.965925872E-1
5.673325706E0	1.401894391E-1	-2.625116110E-1	4.072824121E-1
5.681728726E0	1.540862173E-1	-2.467822880E-1	4.136963189E-1
5.690131747E0	1.572931707E-1	-2.469350100E-1	4.182776511E-1
5.698534768E0	1.540862173E-1	-2.626643181E-1	4.150707126E-1
5.706937789E0	1.550024897E-1	-2.690782249E-1	4.117110670E-1
5.715340810E0	1.605001241E-1	-2.588465214E-1	4.088095427E-1
5.723743831E0	1.655396074E-1	-2.405211031E-1	4.071297050E-1
5.732146851E0	1.759240031E-1	-2.205158621E-1	4.020902216E-1
5.740549872E0	1.840177327E-1	-2.044811249E-1	4.063661397E-1
5.748952893E0	1.922641695E-1	-2.026485801E-1	4.097257853E-1
5.757355914E0	2.012741715E-1	-2.147128135E-1	4.170559645E-1
5.765758935E0	2.096733153E-1	-2.220429778E-1	4.266768098E-1
5.774161956E0	2.189887464E-1	-2.182251811E-1	4.358395338E-1
5.782564976E0	2.334963679E-1	-1.976090819E-1	4.488200247E-1
5.790967997E0	2.496838123E-1	-1.553079188E-1	4.532486796E-1
5.799371018E0	2.611372173E-1	-1.501157135E-1	4.521796703E-1
5.807774039E0	2.709107697E-1	-1.698155403E-1	4.543176591E-1
5.816177060E0	2.753393948E-1	-1.798945218E-1	4.556920528E-1
5.824580081E0	2.819060087E-1	-1.968455315E-1	4.492781460E-1
5.832983101E0	2.884726226E-1	-2.281514555E-1	4.469874799E-1
5.841386122E0	2.895416021E-1	-2.692309320E-1	4.430169761E-1
5.849789143E0	2.875563502E-1	-3.135173619E-1	4.422534108E-1
5.858192164E0	2.872509360E-1	-3.490992188E-1	4.424061179E-1
5.866595185E0	2.867927849E-1	-3.770454824E-1	4.469874799E-1
5.874998206E0	2.846548259E-1	-4.115583301E-1	4.483618736E-1
5.883401226E0	2.869454920E-1	-4.463766217E-1	4.463766217E-1
5.891804247E0	2.907632887E-1	-4.611896873E-1	4.370612204E-1
5.900207268E0	2.929012477E-1	-4.782933891E-1	4.240806997E-1
5.908610289E0	2.942756712E-1	-4.992149174E-1	4.057552814E-1
5.917013310E0	2.990097404E-1	-5.179984570E-1	3.830012381E-1
5.925416331E0	3.098522723E-1	-5.285356045E-1	3.497100472E-1
5.933819351E0	3.292466700E-1	-5.242596865E-1	3.135173619E-1
5.942222372E0	3.501681983E-1	-4.859289825E-1	2.782409191E-1
5.950625393E0	3.707842827E-1	-4.450022280E-1	2.316638231E-1
5.959028414E0	3.738385141E-1	-4.176668227E-1	1.792836636E-1
5.967431435E0	3.636068404E-1	-3.894151151E-1	1.374406368E-1
5.975834456E0	3.461976945E-1	-3.657447994E-1	1.178935245E-1
5.984237476E0	3.274141252E-1	-3.611634374E-1	1.093416587E-1
5.992640497E0	3.196258247E-1	-3.739912212E-1	1.090362370E-1
6.001043518E0	3.158080280E-1	-4.027010500E-1	1.102579311E-1
6.009446539E0	3.156553209E-1	-4.184303582E-1	1.079672500E-1
6.017849560E0	3.188622594E-1	-4.014793634E-1	9.666658193E-2
6.026252581E0	3.255815804E-1	-3.735330999E-1	8.444963396E-2
6.034655601E0	3.338280320E-1	-3.555130959E-1	7.696675509E-2
6.043058622E0	3.408527672E-1	-3.323009014E-1	7.925742865E-2
6.051461643E0	3.461976945E-1	-3.061871827E-1	8.506047726E-2
6.059864664E0	3.486410677E-1	-2.889307439E-1	9.620844573E-2
6.068267685E0	3.526115716E-1	-2.742704153E-1	1.180462316E-1
6.076670706E0	3.578037918E-1	-2.664821148E-1	1.424801201E-1
6.085073726E0	3.629959822E-1	-2.596100867E-1	1.655396074E-1
6.093476747E0	3.680354655E-1	-2.449497581E-1	1.855448484E-1
6.101879768E0	3.776563108E-1	-2.315111160E-1	1.979145110E-1
6.110282789E0	3.898732662E-1	-2.289150059E-1	2.313583940E-1
6.118685810E0	4.040754735E-1	-2.197522968E-1	2.811424434E-1
6.127088831E0	4.176668227E-1	-1.927223057E-1	3.237490356E-1
6.135491851E0	4.295783341E-1	-1.843231618E-1	3.713951409E-1
6.143894872E0	4.417952895E-1	-1.739387512E-1	4.346178174E-1
6.152297893E0	4.590517282E-1	-1.411057115E-1	4.990622103E-1
6.160700914E0	4.747810364E-1	-1.130067408E-1	5.609105229E-1
6.169103935E0	4.831801951E-1	-1.027750522E-1	6.233696342E-1
6.177506956E0	4.978405237E-1	-8.689302206E-2	6.832326651E-1
6.185909976E0	5.161659122E-1	-6.306997687E-2	7.487460375E-1
6.194312997E0	5.376983285E-1	-2.428117767E-2	8.038749695E-1
6.202716018E0	5.619794726E-1	5.803049076E-3	8.519791961E-1
6.211119039E0	5.769452453E-1	2.137965336E-2	8.996253014E-1
6.219522060E0	5.764871240E-1	4.001049697E-2	9.336800575E-1
6.227925081E0	5.806103349E-1	6.123743951E-2	9.559759498E-1
6.236328101E0	5.694623590E-1	7.116370648E-2	9.718579650E-1
6.244731122E0	5.349494815E-1	8.750387281E-2	9.611681700E-1
6.253134143E0	4.856235683E-1	1.064401343E-1	9.245173335E-1
6.261537164E0	4.459185004E-1	1.043021679E-1	8.748859763E-1
6.269940185E0	4.188885093E-1	6.872031838E-2	8.144121170E-1
6.278343206E0	3.828485310E-1	7.024743594E-3	7.359182239E-1
6.286746226E0	3.260397315E-1	-4.749337584E-2	6.334486008E-1
6.295149247E0	2.680092454E-1	-7.574506104E-2	5.149442554E-1
6.303552268E0	2.304421216E-1	-8.628217876E-2	3.808632791E-1
6.311955289E0	2.011214644E-1	-7.849387079E-2	2.480039895E-1
6.320358310E0	1.569877416E-1	-4.199574888E-2	1.105633527E-1
6.328761331E0	1.010952219E-1	1.252236869E-2	-3.374931216E-2
6.337164351E0	3.466558084E-2	6.948387623E-2	-1.809635013E-1
6.345567372E0	-2.015795931E-2	1.308740228E-1	-3.292466700E-1
6.353970393E0	-7.009471953E-2	1.818797737E-1	-4.729484916E-1
6.362373414E0	-1.346918195E-1	2.273878902E-1	-6.161921620E-1
6.370776435E0	-1.852394342E-1	2.738122940E-1	-7.591304183E-1
6.379179456E0	-2.336490750E-1	2.962609231E-1	-8.840487003E-1
6.387582476E0	-2.880144715E-1	3.110739589E-1	-1.004232883E0
6.395985497E0	-3.338280320E-1	3.287885487E-1	-1.114338160E0
6.404388518E0	-3.747547865E-1	3.277195692E-1	-1.204590797E0
6.412791539E0	-4.207210541E-1	3.301629424E-1	-1.292858243E0
6.421194560E0	-4.578300118E-1	3.295520842E-1	-1.369977713E0
6.429597581E0	-4.947862923E-1	2.898470163E-1	-1.429687977E0
6.438000601E0	-5.323534012E-1	2.295258641E-1	-1.485122442E0
6.446403622E0	-5.683933496E-1	1.493521482E-1	-1.519482613E0
6.454806643E0	-6.021426916E-1	7.207997888E-2	-1.542236567E0
6.463209664E0	-6.145123243E-1	8.857285604E-3	-1.551093936E0
6.471612685E0	-6.267293096E-1	-4.810422286E-2	-1.551704764E0
6.480015706E0	-6.351284385E-1	-9.865183383E-2	-1.549414039E0
6.488418726E0	-6.487197876E-1	-1.357607991E-1	-1.543000221E0
6.496821747E0	-6.546755433E-1	-1.408002973E-1	-1.537197113E0
6.505224768E0	-6.539120078E-1	-1.223221645E-1	-1.527881742E0
6.513627789E0	-6.513158679E-1	-8.719844371E-2	-1.518413544E0
6.522030810E0	-6.496360302E-1	-5.039490014E-2	-1.507876515E0
6.530433831E0	-6.558972597E-1	-5.192201585E-3	-1.498713732E0
6.538836851E0	-6.704048514E-1	5.680879578E-2	-1.497186661E0
6.547239872E0	-6.856760383E-1	1.120904684E-1	-1.491230845E0
6.555642893E0	-6.884248853E-1	1.357607991E-1	-1.478250384E0
6.564045914E0	-6.707102656E-1	1.163664013E-1	-1.454121947E0
6.572448935E0	-6.562026739E-1	5.696150661E-2	-1.410293579E0
6.580851956E0	-6.551336646E-1	2.504473738E-2	-1.364327312E0
6.589254976E0	-6.418477297E-1	6.704048812E-2	-1.332105160E0
6.597657997E0	-6.132906675E-1	1.433963925E-1	-1.307976723E0
6.606061018E0	-5.894675851E-1	1.727170646E-1	-1.291483760E0
6.614464039E0	-5.732801557E-1	1.470614821E-1	-1.283237338E0
6.622867060E0	-5.769452453E-1	1.125486046E-1	-1.278961420E0
6.631270081E0	-5.841227174E-1	1.024696305E-1	-1.274532795E0
6.639673101E0	-5.948125124E-1	1.049130186E-1	-1.262926698E0
6.648076122E0	-6.021426916E-1	1.259872466E-1	-1.265370131E0
6.656479143E0	-6.047387719E-1	1.711899489E-1	-1.274380088E0
6.664882164E0	-6.114581227E-1	2.089097649E-1	-1.278350592E0
6.673285185E0	-6.113054156E-1	2.098260373E-1	-1.277587056E0
6.681688206E0	-6.047387719E-1	1.704263836E-1	-1.276823521E0
6.690091226E0	-6.077930331E-1	8.948912472E-2	-1.274990916E0
6.698494247E0	-6.274928451E-1	-2.076880634E-2	-1.273616552E0
6.706897268E0	-6.465818286E-1	-1.368297935E-1	-1.268118858E0
6.715300289E0	-6.522321701E-1	-2.377723008E-1	-1.261246920E0
6.723703310E0	-6.571189165E-1	-3.185568452E-1	-1.247808218E0
6.732106331E0	-6.642963886E-1	-3.796415627E-1	-1.223221660E0
6.740509351E0	-6.620057225E-1	-4.130854607E-1	-1.194511771E0
6.748912372E0	-6.452074051E-1	-4.236225784E-1	-1.155417562E0
6.757315393E0	-6.226060390E-1	-4.275930822E-1	-1.107924223E0
6.765718414E0	-5.818319917E-1	-4.274403751E-1	-1.053253412E0
6.774121435E0	-5.367820263E-1	-4.248442650E-1	-9.852966070E-1
6.782524456E0	-4.973823726E-1	-4.121691883E-1	-9.098569751E-1
6.790927476E0	-4.640912116E-1	-3.898732662E-1	-8.280034661E-1
6.799330497E0	-4.165978432E-1	-3.376458287E-1	-7.211052179E-1
6.807733518E0	-3.530697227E-1	-2.509055138E-1	-5.926745534E-1
6.816136539E0	-2.742704153E-1	-1.501157135E-1	-4.439332485E-1
6.824539560E0	-1.850867122E-1	-4.810422286E-2	-2.812951505E-1
6.832942581E0	-9.483403713E-2	5.818320066E-2	-1.059819981E-1
6.841345601E0	-8.246437646E-3	1.598892659E-1	7.269082218E-2
6.849748622E0	7.299624383E-2	2.371614426E-1	2.538070381E-1
6.858151643E0	1.330119967E-1	2.910687327E-1	4.355340898E-1
6.866554664E0	1.777565479E-1	3.139754832E-1	6.355865598E-1
6.874957685E0	2.049392611E-1	3.170297146E-1	8.530482054E-1
6.883360706E0	1.750077456E-1	3.819322586E-1	1.018435121E0
6.891763726E0	9.987352788E-2	6.035171151E-1	1.077534556E0
6.900166747E0	1.527118147E-3	9.287932515E-1	1.073869467E0
6.908569768E0	-8.444963396E-2	1.217876673E0	1.002247691E0
6.916972789E0	-1.236965731E-1	1.406017661E0	8.564078808E-1
6.925375810E0	-7.024743408E-2	1.424495816E0	6.642963886E-1
6.933778831E0	8.108997345E-2	1.136939406E0	5.467082858E-1
6.942181851E0	2.574721277E-1	4.877615273E-1	6.407787800E-1
6.950584872E0	3.735330999E-1	-1.495048702E-1	7.634063363E-1
6.958987893E0	3.825430870E-1	-5.541911721E-1	7.618792653E-1
6.967390914E0	2.773246467E-1	-6.907155514E-1	7.261446714E-1
6.975793935E0	1.404948682E-1	-5.670189857E-1	7.429429889E-1
6.984196956E0	6.123743951E-2	-2.429644912E-1	7.873821259E-1
6.992599976E0	6.368082762E-2	1.643179059E-1	8.299887180E-1
7.001002997E0	9.025268257E-2	4.895940721E-1	8.429692388E-1
7.009406018E0	9.116895497E-2	6.609367132E-1	7.986828089E-1
7.017809039E0	6.352811307E-2	7.059867382E-1	7.168292403E-1
7.026212060E0	2.748812735E-2	7.087355256E-1	6.450546980E-1
7.034615081E0	2.870982140E-2	6.893411279E-1	5.981721878E-1
7.043018101E0	6.322269142E-2	6.331431866E-1	5.712949038E-1
7.051421122E0	1.018587798E-1	5.259394646E-1	5.572454333E-1
7.059824143E0	1.024696305E-1	3.746020794E-1	5.566345453E-1
7.068227164E0	7.467607409E-2	2.612899244E-1	5.662553906E-1
7.076630185E0	5.100574717E-2	2.260134816E-1	5.822901726E-1
7.085033206E0	5.131116882E-2	2.229592502E-1	5.890094638E-1
7.093436226E0	5.054761097E-2	2.148655206E-1	5.781669021E-1
7.101839247E0	3.573456407E-2	2.295258641E-1	5.494571328E-1
7.110242268E0	1.053711493E-2	2.880144715E-1	5.068505406E-1
7.118645289E0	1.374406274E-3	3.535278440E-1	4.698942602E-1
7.127048310E0	1.114796288E-2	3.805578351E-1	4.599680007E-1
7.135451331E0	2.733541466E-2	3.965925872E-1	4.698942602E-1
7.143854351E0	3.115320951E-2	4.159869850E-1	4.717268050E-1
7.152257372E0	2.779355086E-2	3.617742956E-1	4.796678126E-1
7.160660393E0	2.504473738E-2	2.681619525E-1	4.851654470E-1
7.169063414E0	1.985253580E-2	1.611109674E-1	4.937172830E-1
7.177466435E0	2.168507688E-2	6.123743951E-2	5.008947253E-1
7.185869456E0	2.779355086E-2	-1.481304597E-2	5.105155706E-1
7.194272476E0	2.244863659E-2	-4.825693369E-2	5.234960914E-1
7.202675497E0	2.183778957E-2	-4.749337584E-2	5.369347334E-1
7.211078518E0	3.680354729E-2	-5.665608495E-2	5.589252710E-1
7.219481539E0	4.886778072E-2	-7.879929990E-2	5.796940327E-1
7.227884560E0	4.642439261E-2	-1.131594554E-1	5.842754245E-1
7.236287581E0	3.848337755E-2	-1.658450365E-1	5.876350403E-1
7.244690601E0	3.741439432E-2	-1.769929975E-1	5.868715048E-1
7.253093622E0	4.382828996E-2	-1.626380831E-1	5.812211633E-1
7.261496643E0	4.627167806E-2	-1.792836636E-1	5.818319917E-1
7.269899664E0	3.603998944E-2	-1.968455315E-1	5.696150661E-1
7.278302685E0	3.252761811E-2	-1.971509457E-1	5.491516590E-1
7.286705706E0	2.886253223E-2	-2.032594234E-1	5.349494815E-1
7.295108726E0	2.779355086E-2	-1.980672181E-1	5.245651007E-1
7.303511747E0	3.649812192E-2	-1.762294322E-1	5.088357925E-1
7.311914768E0	3.802524135E-2	-1.780619770E-1	4.918847680E-1
7.320317789E0	3.802524135E-2	-1.995943487E-1	4.756973088E-1
7.328720810E0	3.619270027E-2	-2.008160353E-1	4.662291706E-1
7.337123831E0	3.863608837E-2	-1.716480851E-1	4.611896873E-1
7.345526851E0	4.123219103E-2	-1.430909634E-1	4.477510452E-1
7.353929872E0	3.909422457E-2	-1.487413049E-1	4.278984964E-1
7.362332893E0	2.275406010E-2	-1.829487532E-1	4.086568058E-1
7.370735914E0	1.786728203E-2	-1.794363856E-1	3.848337829E-1
7.379138935E0	1.817270555E-2	-1.461452097E-1	3.678827584E-1
7.387541956E0	2.122694254E-2	-1.218640283E-1	3.530697227E-1
7.395944976E0	1.740914769E-2	-1.079672500E-1	3.393256664E-1
7.404347997E0	1.985253580E-2	-1.134648770E-1	3.254288733E-1
7.412751018E0	2.550287358E-2	-1.163664013E-1	3.202366829E-1
7.421154039E0	2.977880463E-2	-9.834641218E-2	3.144336343E-1
7.429557060E0	2.993151546E-2	-7.864658535E-2	3.003841341E-1
7.437960081E0	2.657185495E-2	-8.108997345E-2	2.887780368E-1
7.446363101E0	2.641914412E-2	-7.421794534E-2	2.826695740E-1
7.454766122E0	3.115320951E-2	-5.619794875E-2	2.782409191E-1
7.463169143E0	3.985778242E-2	-4.474456236E-2	2.791571915E-1
7.471572164E0	4.703523964E-2	-3.573456407E-2	2.776300907E-1
7.479975185E0	5.344913527E-2	-4.398100078E-2	2.725905776E-1
7.488378206E0	6.581879407E-2	-5.940489471E-2	2.704526186E-1
7.496781226E0	7.238540053E-2	-8.429691941E-2	2.732014358E-1
7.505184247E0	8.032641560E-2	-1.070509851E-1	2.808370292E-1
7.513587268E0	8.460234851E-2	-1.116323397E-1	2.834331393E-1
7.521990289E0	8.719844371E-2	-1.275143623E-1	2.838912606E-1
7.530393310E0	9.055810422E-2	-1.467560530E-1	2.835858464E-1
7.538796331E0	9.162709117E-2	-1.551551968E-1	2.825168669E-1
7.547199351E0	9.513945878E-2	-1.618745178E-1	2.809897363E-1
7.555602372E0	9.773556143E-2	-1.707318127E-1	2.765611112E-1
7.564005393E0	1.007898003E-1	-1.777565479E-1	2.748812735E-1
7.572408414E0	1.049130186E-1	-1.777565479E-1	2.756448388E-1
7.580811435E0	1.128540337E-1	-1.800472289E-1	2.793098986E-1
7.589214456E0	1.169772521E-1	-1.798945218E-1	2.849602401E-1
7.597617476E0	1.244601309E-1	-1.798945218E-1	2.861819267E-1
7.606020497E0	1.339282542E-1	-1.898207814E-1	2.877090573E-1
7.614423518E0	1.432436854E-1	-2.002051920E-1	2.893888950E-1
7.622826539E0	1.499630064E-1	-2.122694254E-1	2.863346636E-1
7.631229560E0	1.556133330E-1	-2.298312783E-1	2.800734639E-1
7.639632581E0	1.630962193E-1	-2.449497581E-1	2.794626355E-1
7.648035601E0	1.711899489E-1	-2.535016239E-1	2.822114229E-1
7.656438622E0	1.782146841E-1	-2.585411072E-1	2.845021188E-1
7.664841643E0	1.852394342E-1	-2.496838123E-1	2.800734639E-1
7.673244664E0	1.971509457E-1	-2.254026383E-1	2.716743052E-1
7.681647685E0	2.131856978E-1	-2.055501044E-1	2.678565085E-1
7.690050706E0	2.266243398E-1	-1.927223057E-1	2.649549842E-1
7.698453726E0	2.373141646E-1	-1.892099380E-1	2.589992285E-1
7.706856747E0	2.457133085E-1	-1.902789176E-1	2.538070381E-1
7.715259768E0	2.550287247E-1	-1.889045089E-1	2.480039895E-1
7.723662789E0	2.625116110E-1	-1.834068894E-1	2.408265322E-1
7.732065810E0	2.687727809E-1	-1.701209545E-1	2.301367074E-1
7.740468831E0	2.751866877E-1	-1.595838517E-1	2.160872221E-1
7.748871851E0	2.793098986E-1	-1.533226669E-1	2.005106062E-1
7.757274872E0	2.806843221E-1	-1.559187621E-1	1.876828223E-1
7.765677893E0	2.841966748E-1	-1.701209545E-1	1.788255423E-1
7.774080914E0	2.823641598E-1	-1.925695986E-1	1.765348613E-1
7.782483935E0	2.834331393E-1	-2.055501044E-1	1.847812980E-1
7.790886956E0	2.854183912E-1	-2.053973973E-1	1.976090819E-1
7.799289976E0	2.895416021E-1	-2.070772201E-1	2.040229887E-1
7.807692997E0	2.967190444E-1	-2.208212912E-1	2.244863659E-1
7.816096018E0	3.034383655E-1	-2.429644912E-1	2.527380586E-1
7.824499039E0	3.130592108E-1	-2.669402659E-1	2.814478874E-1
7.832902060E0	3.261924386E-1	-2.785463631E-1	3.089359999E-1
7.841305081E0	3.500154912E-1	-2.692309320E-1	3.293993771E-1
7.849708101E0	3.874298632E-1	-2.252499312E-1	3.237490356E-1
7.858111122E0	4.524851143E-1	-1.437018216E-1	2.825168669E-1
7.866514143E0	5.273138881E-1	-4.840964451E-2	2.232646793E-1
7.874917164E0	5.422796607E-1	-6.001574174E-2	1.910424829E-1
7.883320185E0	5.027272701E-1	-1.516428292E-1	1.829487532E-1
7.891723206E0	4.333961308E-1	-2.420482337E-1	1.930277348E-1
7.900126226E0	3.623851240E-1	-3.266505599E-1	2.447970361E-1
7.908529247E0	3.096995652E-1	-4.903576374E-1	3.626905680E-1
7.916932268E0	2.863346636E-1	-6.702521443E-1	4.709632397E-1
7.925335289E0	3.089359999E-1	-7.136223316E-1	5.442649126E-1
7.933738310E0	3.220692277E-1	-7.403468490E-1	6.241331697E-1
7.942141331E0	3.457395434E-1	-7.718055248E-1	6.639909744E-1
7.950544351E0	3.915531039E-1	-7.128587365E-1	6.939224601E-1
7.958947372E0	4.483618736E-1	-5.541911721E-1	7.438592315E-1
7.967350393E0	5.016583204E-1	-3.762819171E-1	7.893673778E-1
7.975753414E0	5.444176197E-1	-2.047865391E-1	8.170081973E-1
7.984156435E0	5.829010010E-1	-3.970507160E-2	8.477032781E-1
7.992559456E0	6.184828281E-1	1.053711548E-1	8.811471462E-1
8.000962476E0	6.404733658E-1	2.104368806E-1	9.126058221E-1
8.009365497E0	6.511631608E-1	2.483094037E-1	9.442171454E-1
8.017768518E0	6.470399499E-1	2.309002578E-1	9.799517393E-1
8.026171539E0	6.317687631E-1	1.863084137E-1	1.004538298E0
8.034574560E0	6.148177385E-1	1.540862173E-1	1.011104941E0
8.042977581E0	5.964923501E-1	1.244601309E-1	1.008203387E0
8.051380601E0	5.612159371E-1	9.452861547E-2	9.959864616E-1
8.059783622E0	5.132644176E-1	6.368082762E-2	9.652913809E-1
8.068186643E0	4.747810364E-1	1.389677543E-2	9.057337642E-1
8.076589664E0	4.277457893E-1	-5.039490014E-2	8.151756525E-1
8.084992685E0	3.703261614E-1	-9.834641218E-2	6.968240142E-1
8.093395706E0	3.231382072E-1	-1.572931707E-1	5.719057322E-1
8.101798726E0	2.725905776E-1	-2.221956849E-1	4.395045936E-1
8.110201747E0	2.121167034E-1	-2.535016239E-1	2.954973578E-1
8.118604768E0	1.513374150E-1	-2.732014358E-1	1.600419879E-1
8.127007789E0	6.765133142E-2	-2.883199155E-1	2.061609551E-2
8.135410810E0	-8.551862091E-3	-2.560977042E-1	-1.336228400E-1
8.143813831E0	-6.963659078E-2	-1.829487532E-1	-2.829749882E-1
8.152216851E0	-1.601946950E-1	-9.773556143E-2	-4.495835900E-1
8.160619872E0	-2.162399292E-1	2.687728032E-2	-6.404733658E-1
8.169022893E0	-2.451024652E-1	9.284878522E-2	-7.820371985E-1
8.177425914E0	-3.113794029E-1	1.120904684E-1	-9.226847887E-1
8.185828935E0	-3.640649617E-1	1.667613089E-1	-1.060889006E0
8.194231956E0	-4.013266563E-1	2.199050188E-1	-1.166870952E0
8.202634976E0	-4.543176591E-1	2.664821148E-1	-1.267202616E0
8.211037997E0	-4.865398407E-1	3.318427801E-1	-1.364632726E0
8.219441018E0	-5.221216679E-1	3.225273490E-1	-1.434727550E0
8.227844039E0	-5.887040496E-1	2.852656841E-1	-1.522231340E0
8.236247060E0	-6.229115129E-1	2.864873707E-1	-1.619050622E0
8.244650081E0	-6.455128193E-1	2.435753495E-1	-1.690977931E0
8.253053101E0	-6.870504618E-1	1.430909634E-1	-1.757712960E0
8.261456122E0	-7.391251922E-1	4.382828996E-2	-1.822768211E0
8.269859143E0	-7.637118101E-1	1.099525020E-2	-1.873926640E0
8.278262164E0	-7.802046537E-1	9.620844387E-3	-1.913784504E0
8.286665185E0	-8.006680608E-1	1.206423342E-2	-1.942494273E0
8.295068206E0	-8.211314082E-1	2.458660305E-2	-1.977159858E0
8.303471226E0	-8.345700502E-1	4.672981426E-2	-2.005411625E0
8.311874247E0	-8.554915786E-1	7.452336699E-2	-2.017323017E0
8.320277268E0	-8.871029615E-1	1.152974218E-1	-2.023126125E0
8.328680289E0	-8.887827396E-1	1.572931707E-1	-2.036870241E0
8.337083310E0	-8.724426031E-1	1.450762302E-1	-2.046949148E0
8.345486331E0	-8.791618943E-1	8.124268800E-2	-2.044963837E0
8.353889351E0	-8.968765140E-1	3.726168349E-2	-2.037939072E0
8.362292372E0	-8.984035850E-1	2.702999115E-2	-2.022667885E0
8.370695393E0	-8.991671801E-1	1.450762246E-2	-2.002510071E0
8.379098414E0	-9.153546095E-1	-1.863084175E-2	-1.973189354E0
8.387501435E0	-9.181034565E-1	-4.688252881E-2	-1.936233044E0
8.395904456E0	-9.208522439E-1	-3.924693540E-2	-1.903247356E0
8.404307476E0	-9.176452756E-1	4.886778072E-3	-1.886754513E0
8.412710497E0	-8.991671801E-1	4.520269856E-2	-1.881104112E0
8.421113518E0	-8.825215697E-1	7.803573459E-2	-1.874232054E0
8.429516539E0	-8.704573512E-1	1.047603041E-1	-1.845216870E0
8.437919560E0	-8.530482054E-1	1.221694499E-1	-1.793447495E0
8.446322581E0	-8.102889061E-1	1.229330078E-1	-1.730224848E0
8.454725601E0	-7.670714259E-1	8.124268800E-2	-1.660740972E0
8.463128622E0	-7.394306064E-1	1.389677543E-2	-1.581941724E0
8.471531643E0	-7.153021693E-1	-5.207473040E-2	-1.497644782E0
8.479934664E0	-6.841489077E-1	-1.010952219E-1	-1.414569497E0
8.488337685E0	-6.470399499E-1	-1.383569092E-1	-1.333784938E0
8.496740706E0	-6.116108298E-1	-1.710372269E-1	-1.253000498E0
8.505143726E0	-5.610632300E-1	-1.713426560E-1	-1.182447553E0
8.513546747E0	-4.958552718E-1	-1.446180940E-1	-1.111131191E0
8.521949768E0	-4.468347728E-1	-1.146865711E-1	-1.020267606E0
8.530352789E0	-4.167505503E-1	-6.032116711E-2	-9.121476412E-1
8.538755810E0	-3.767400384E-1	6.108472496E-2	-8.171609044E-1
8.547158831E0	-3.324536085E-1	1.896680743E-1	-7.383615971E-1
8.555561851E0	-2.886253297E-1	2.699944973E-1	-6.688777208E-1
8.563964872E0	-2.525853515E-1	2.916795611E-1	-5.989357233E-1
8.572367893E0	-2.110477239E-1	2.806843221E-1	-5.221216679E-1
8.580770914E0	-1.617218107E-1	2.640387416E-1	-4.411844313E-1
8.589173935E0	-1.067455560E-1	2.499892414E-1	-3.625378609E-1
8.597576956E0	-5.390727147E-2	2.373141646E-1	-2.770192325E-1
8.605979976E0	-1.038440317E-2	2.122694254E-1	-1.817270666E-1
8.614382997E0	3.558185324E-2	1.699682474E-1	-7.925742865E-2
8.622786018E0	8.017370105E-2	1.305686086E-1	2.855710872E-2
8.631189039E0	1.181989461E-1	1.033858955E-1	1.409530044E-1
8.639592060E0	1.608055383E-1	6.810946763E-2	2.606790662E-1
8.647995081E0	2.055501044E-1	4.566083103E-2	3.897205591E-1
8.656398101E0	2.565558553E-1	3.283303976E-2	5.326588154E-1
8.664801122E0	2.805316150E-1	-0.000000000E0	6.946860552E-1
8.673204143E0	2.475458533E-1	-6.520794332E-2	8.600729704E-1
8.681607164E0	1.606528312E-1	-1.360662282E-1	9.773555994E-1
8.690010185E0	1.175880991E-2	-8.368607610E-2	9.994988441E-1
8.698413206E0	-1.522536725E-1	1.078145429E-1	9.620844126E-1
8.706816226E0	-3.184041381E-1	3.933856487E-1	8.680139780E-1
8.715219247E0	-3.791834414E-1	7.084301114E-1	6.956022978E-1
8.723622268E0	-1.658450365E-1	9.123004079E-1	5.520532131E-1
8.732025289E0	2.370087355E-1	7.414158583E-1	6.682668924E-1
8.740428310E0	5.628957748E-1	2.000524849E-2	9.782719016E-1
8.748831331E0	5.961869359E-1	-7.284353375E-1	1.011257648E0
8.757234351E0	3.701734245E-1	-1.237882018E0	9.008470178E-1
8.765637372E0	6.963659078E-2	-1.345085621E0	7.623373866E-1
8.774040393E0	-1.021642014E-1	-9.217684865E-1	6.791094542E-1
8.782443414E0	-9.956810623E-2	-2.133384049E-1	8.043331504E-1
8.790846435E0	-1.939439960E-2	3.814741075E-1	9.710944295E-1
8.799249456E0	2.809897438E-2	6.412369013E-1	1.012173891E0
8.807652476E0	2.153236605E-2	6.326850653E-1	9.132166505E-1
8.816055497E0	3.206948191E-2	5.743491650E-1	7.837170362E-1
8.824458518E0	8.521319181E-2	5.413633585E-1	7.044596076E-1
8.832861539E0	1.580567211E-1	5.073086619E-1	6.914790869E-1
8.841264560E0	1.928750277E-1	4.317162931E-1	6.826218367E-1
8.849667581E0	1.627907902E-1	3.177932799E-1	6.627692580E-1
8.858070601E0	1.107160673E-1	2.037175596E-1	6.526902914E-1
8.866473622E0	8.674030751E-2	1.696628332E-1	6.618530154E-1
8.874876643E0	9.773556143E-2	2.005106062E-1	6.610894203E-1
8.883279664E0	1.165191159E-1	2.286095917E-1	6.513158679E-1
8.891682685E0	1.278197914E-1	2.382304370E-1	6.287145615E-1
8.900085706E0	1.099525094E-1	2.522799075E-1	6.053496599E-1
8.908488726E0	8.612946421E-2	2.399102598E-1	5.942016840E-1
8.916891747E0	8.567132801E-2	2.044811249E-1	5.913001299E-1
8.925294768E0	9.376505762E-2	1.163664013E-1	6.038225293E-1
8.933697789E0	9.819369763E-2	4.734066315E-3	6.134433746E-1
8.942100810E0	1.093416587E-1	-7.605048269E-2	6.122216582E-1
8.950503831E0	1.131594554E-1	-1.261399537E-1	6.113054156E-1
8.958906851E0	1.035386100E-1	-1.815743446E-1	6.080984473E-1
8.967309872E0	9.422318637E-2	-2.183778882E-1	5.966450572E-1
8.975712893E0	9.239064902E-2	-2.377723008E-1	5.784723759E-1
8.984115914E0	8.918370306E-2	-2.299840003E-1	5.627430081E-1
8.992518935E0	8.307522535E-2	-1.779092699E-1	5.428904891E-1
9.000921956E0	7.360709459E-2	-1.192679256E-1	5.205945969E-1
9.009324976E0	6.994201243E-2	-9.819369763E-2	4.987567961E-1
9.017727997E0	6.704048812E-2	-9.926267713E-2	4.848600030E-1
9.026131018E0	6.459710002E-2	-1.004843712E-1	4.816530645E-1
9.034534039E0	6.139015034E-2	-1.113269106E-1	4.792096615E-1
9.042937060E0	5.726693198E-2	-1.282779276E-1	4.737120569E-1
9.051340081E0	3.939964995E-2	-1.424801201E-1	4.618005157E-1
9.059743101E0	3.130592033E-2	-1.491994411E-1	4.388937652E-1
9.068146122E0	3.176405653E-2	-1.240019947E-1	4.161396921E-1
9.076549143E0	3.038965166E-2	-7.773031294E-2	4.036173224E-1
9.084952164E0	3.130592033E-2	-3.176405653E-2	3.943018913E-1
9.093355185E0	4.153761268E-2	2.214321308E-2	3.889569938E-1
9.101758206E0	5.451811850E-2	7.391251624E-2	3.883461356E-1
9.110161226E0	6.673506647E-2	7.818844914E-2	3.939964771E-1
9.118564247E0	7.666133344E-2	2.458660305E-2	3.924693763E-1
9.126967268E0	7.314895838E-2	-4.001049697E-2	3.839175105E-1
9.135370289E0	7.864658535E-2	-6.169557199E-2	3.799470067E-1
9.143773310E0	9.177979827E-2	-6.474980712E-2	3.804051280E-1
9.152176331E0	9.620844573E-2	-8.628217876E-2	3.665083647E-1
9.160579351E0	9.345962852E-2	-1.206423342E-1	3.414636254E-1
9.168982372E0	9.147437662E-2	-1.195733473E-1	3.142809272E-1
9.177385393E0	9.361234307E-2	-1.137702987E-1	3.019112647E-1
9.185788414E0	9.529217333E-2	-1.175880954E-1	2.988570333E-1
9.194191435E0	9.177979827E-2	-1.227803007E-1	2.958027720E-1
9.202594456E0	8.506047726E-2	-1.302631795E-1	2.930539846E-1
9.210997476E0	8.506047726E-2	-1.484358907E-1	2.968717813E-1
9.219400497E0	8.200624585E-2	-1.743968874E-1	2.974826097E-1
9.227803518E0	8.139539510E-2	-1.905843467E-1	2.951919436E-1
9.236206539E0	8.658760041E-2	-1.820324808E-1	2.961082160E-1
9.244609560E0	9.575030953E-2	-1.629435122E-1	2.956500649E-1
9.253012581E0	1.107160673E-1	-1.414111406E-1	2.936648130E-1
9.261415601E0	1.304158866E-1	-1.194206402E-1	2.875563502E-1
9.269818622E0	1.452289373E-1	-1.107160673E-1	2.832804024E-1
9.278221643E0	1.542389393E-1	-1.099525094E-1	2.809897363E-1
9.286624664E0	1.637070626E-1	-1.151447073E-1	2.895416021E-1
9.295027685E0	1.727170646E-1	-1.285833418E-1	3.049654961E-1
9.303430706E0	1.736333370E-1	-1.429382563E-1	3.135173619E-1
9.311833726E0	1.734806150E-1	-1.513374150E-1	3.141281903E-1
9.320236747E0	1.827960461E-1	-1.565296054E-1	3.225273490E-1
9.328639768E0	1.973036677E-1	-1.588202864E-1	3.300102353E-1
9.337042789E0	2.101314515E-1	-1.562241912E-1	3.367295563E-1
9.345445810E0	2.226538211E-1	-1.517955512E-1	3.379512429E-1
9.353848831E0	2.385358512E-1	-1.469087601E-1	3.437542915E-1
9.362251851E0	2.536543310E-1	-1.371352077E-1	3.490992188E-1
9.370654872E0	2.623589039E-1	-1.537808031E-1	3.458922505E-1
9.379057893E0	2.638860047E-1	-1.896680743E-1	3.426853120E-1
9.387460914E0	2.629697323E-1	-2.124221325E-1	3.359659910E-1
9.395863935E0	2.663294077E-1	-2.209739983E-1	3.297048211E-1
9.404266956E0	2.704526186E-1	-2.325800955E-1	3.254288733E-1
9.412669976E0	2.767138183E-1	-2.336490750E-1	3.260397315E-1
9.421072997E0	2.924431264E-1	-2.112004459E-1	3.245126009E-1
9.429476018E0	3.063398898E-1	-2.058555335E-1	3.255815804E-1
9.437879039E0	3.159607351E-1	-2.379250079E-1	3.257342875E-1
9.446282060E0	3.263451457E-1	-2.932066917E-1	3.226800561E-1
9.454685081E0	3.396310806E-1	-3.460449576E-1	3.287885487E-1
9.463088101E0	3.510844707E-1	-3.674246371E-1	3.345915973E-1
9.471491122E0	3.625378609E-1	-3.733803928E-1	3.287885487E-1
9.479894143E0	3.791834414E-1	-3.851391971E-1	3.147390485E-1
9.488297164E0	3.962871730E-1	-3.830012381E-1	3.049654961E-1
9.496700185E0	4.191939235E-1	-3.509317636E-1	2.906105816E-1
9.505103206E0	4.414898455E-1	-3.188622594E-1	2.628170252E-1
9.513506226E0	4.526378214E-1	-3.031329513E-1	2.334963679E-1
9.521909247E0	4.564556181E-1	-2.985515893E-1	2.139492482E-1
9.530312268E0	4.514161348E-1	-2.974826097E-1	2.043284029E-1
9.538715289E0	4.477510452E-1	-2.635805905E-1	1.957765520E-1
9.547118310E0	4.495835900E-1	-2.009687424E-1	1.921114624E-1
9.555521331E0	4.633276463E-1	-1.310267299E-1	1.831014603E-1
9.563924351E0	4.636330605E-1	-8.597674966E-2	1.597365588E-1
9.572327372E0	4.729484916E-1	-2.870982140E-2	1.290414780E-1
9.580730393E0	4.790569544E-1	1.893626526E-2	1.241547018E-1
9.589133414E0	4.831801951E-1	4.153761268E-2	1.310267299E-1
9.597536435E0	4.851654470E-1	4.306473210E-2	1.330119967E-1
9.605939456E0	4.866925478E-1	2.061609551E-2	1.505738497E-1
9.614342476E0	4.941754341E-1	6.108472589E-4	1.769929975E-1
9.622745497E0	5.007420182E-1	2.137965523E-3	2.076880634E-1
9.631148518E0	5.065450668E-1	1.236965694E-2	2.391466945E-1
9.639551539E0	5.117372870E-1	4.046862945E-2	2.677038014E-1
9.647954560E0	5.247178078E-1	8.063183725E-2	2.965663373E-1
9.656357581E0	5.402944088E-1	9.712471068E-2	3.393256664E-1
9.664760601E0	5.538857579E-1	1.186570823E-1	3.814741075E-1
9.673163622E0	5.719057322E-1	1.554606259E-1	4.227063060E-1
9.681566643E0	5.998520255E-1	1.977618039E-1	4.778352678E-1
9.689969664E0	6.242858768E-1	2.586938143E-1	5.431959033E-1
9.698372685E0	6.520794630E-1	3.468085229E-1	6.168029904E-1
9.706775706E0	6.641436815E-1	4.081986845E-1	6.957550049E-1
9.715178726E0	6.670452356E-1	4.266768098E-1	7.640172243E-1
9.723581747E0	6.638382673E-1	4.191939235E-1	8.203678727E-1
9.731984768E0	6.540647149E-1	3.944546282E-1	8.706100583E-1
9.740387789E0	6.323796511E-1	3.611634374E-1	9.177979827E-1
9.748790810E0	6.006155610E-1	3.442124426E-1	9.442171454E-1
9.757193831E0	5.564818382E-1	3.339807391E-1	9.384140968E-1
9.765596851E0	4.934118688E-1	3.098522723E-1	9.039012194E-1
9.773999872E0	4.272876680E-1	2.968717813E-1	8.391514421E-1
9.782402893E0	3.658975065E-1	2.854183912E-1	7.608102560E-1
9.790805914E0	3.061871827E-1	2.617480457E-1	6.563553810E-1
9.799208935E0	2.342599183E-1	2.243336588E-1	5.158604980E-1
9.807611956E0	1.676775664E-1	2.049392611E-1	3.506263196E-1
9.816014976E0	1.020114943E-1	2.200577259E-1	1.728697717E-1
9.824417997E0	2.443389036E-2	2.690782249E-1	-7.330167107E-3
9.832821018E0	-5.405998230E-2	3.116848171E-1	-1.823379099E-1
9.841224039E0	-1.334701329E-1	3.067980409E-1	-3.480302393E-1
9.849627060E0	-2.148655206E-1	2.571666837E-1	-5.146388412E-1
9.858030081E0	-2.936648130E-1	1.879882365E-1	-6.821636558E-1
9.866433101E0	-3.576510847E-1	1.159082651E-1	-8.328902125E-1
9.874836122E0	-4.095730782E-1	3.665083647E-2	-9.654440880E-1
9.883239143E0	-4.726430774E-1	-4.489727318E-2	-1.090667725E0
9.891642164E0	-5.372401476E-1	-1.072036922E-1	-1.215586066E0
9.900045185E0	-5.767925382E-1	-1.568350345E-1	-1.330425382E0
9.908448206E0	-6.148177385E-1	-1.997470558E-1	-1.419761777E0
9.916851226E0	-6.610894203E-1	-2.528907657E-1	-1.494743228E0
9.925254247E0	-7.082774043E-1	-3.020639718E-1	-1.558882236E0
9.933657268E0	-7.459971905E-1	-3.284831047E-1	-1.621799469E0
9.942060289E0	-7.736380696E-1	-3.329117596E-1	-1.675401330E0
9.950463310E0	-7.976137996E-1	-3.268032968E-1	-1.719993114E0
9.958866331E0	-8.185353279E-1	-3.164188862E-1	-1.758018374E0
9.967269351E0	-8.380824327E-1	-3.106158376E-1	-1.787491798E0
9.975672372E0	-8.506048322E-1	-3.083251417E-1	-1.808413267E0
9.984075393E0	-8.539644480E-1	-2.967190444E-1	-1.821393847E0
9.992478414E0	-8.461761475E-1	-2.898470163E-1	-1.818339586E0
1.000088144E1	-8.475505710E-1	-2.887780368E-1	-1.798181653E0
1.000928446E1	-8.480086923E-1	-2.603736520E-1	-1.782452345E0
1.001768748E1	-8.419002295E-1	-1.960819662E-1	-1.772831440E0
1.002609050E1	-8.420529366E-1	-1.363716573E-1	-1.758018374E0
1.003449352E1	-8.532009125E-1	-1.003316641E-1	-1.739540339E0
1.004289654E1	-8.663341403E-1	-7.605048269E-2	-1.719840407E0
1.005129956E1	-8.886300325E-1	-4.428642616E-2	-1.698613524E0
1.005970258E1	-8.852704167E-1	-4.535540938E-2	-1.674179673E0
1.006810560E1	-8.545753360E-1	-8.964183182E-2	-1.648371339E0
1.007650862E1	-8.394568563E-1	-1.327065676E-1	-1.610346079E0
1.008491164E1	-8.385405540E-1	-1.476723254E-1	-1.552010179E0
1.009331466E1	-8.365553021E-1	-1.230857223E-1	-1.487718463E0
1.010171768E1	-8.299887180E-1	-9.926267713E-2	-1.427244663E0
1.011012071E1	-8.095253110E-1	-1.091889441E-1	-1.380820274E0
1.011852373E1	-7.791357040E-1	-1.467560530E-1	-1.342031479E0
1.012692675E1	-7.447755337E-1	-1.873773932E-1	-1.293621778E0
1.013532977E1	-7.197307944E-1	-2.215848416E-1	-1.230551839E0
1.014373279E1	-6.911736727E-1	-2.362451702E-1	-1.170994163E0
1.015213581E1	-6.531484127E-1	-2.244863659E-1	-1.107466102E0
1.016053883E1	-6.192464232E-1	-2.064663768E-1	-1.030041218E0
1.016894185E1	-5.987830162E-1	-1.684411317E-1	-9.474241138E-1
1.017734487E1	-5.642701387E-1	-1.288887709E-1	-8.699992299E-1
1.018574789E1	-5.140279531E-1	-1.116323397E-1	-8.060129285E-1
1.019415091E1	-4.813476503E-1	-1.068982705E-1	-7.562289238E-1
1.020255394E1	-4.434750974E-1	-1.212531775E-1	-6.911736727E-1
1.021095696E1	-4.077405334E-1	-1.417165697E-1	-6.193991303E-1
1.021935998E1	-3.842229247E-1	-1.349972486E-1	-5.485408306E-1
1.022776300E1	-3.623851240E-1	-9.941539168E-2	-4.682144225E-1
1.023616602E1	-3.235963285E-1	-5.680879578E-2	-3.787252903E-1
1.024456904E1	-2.670929730E-1	-1.435491070E-2	-2.961082160E-1
1.025297206E1	-2.131856978E-1	1.695101149E-2	-2.122694254E-1
1.026137508E1	-1.682884246E-1	4.062134400E-2	-1.183516532E-1
1.026977810E1	-1.181989461E-1	6.474980712E-2	-2.260134928E-2
1.027818112E1	-6.352811307E-2	1.001789495E-1	6.551336497E-2
1.028658414E1	-1.756185852E-2	1.267508119E-1	1.562241912E-1
1.029498716E1	2.244863659E-2	1.238492802E-1	2.570139766E-1
1.030339019E1	6.627693027E-2	9.926267713E-2	3.678827584E-1
1.031179321E1	1.291942000E-1	5.299099907E-2	5.140279531E-1
1.032019623E1	2.020377368E-1	-2.855710872E-2	7.456917763E-1
1.032859925E1	2.197522968E-1	-8.490777016E-2	1.005454540E0
1.033700227E1	1.099525094E-1	5.482354015E-2	1.124111652E0
1.034540529E1	-5.971032009E-2	5.289937258E-1	1.127471328E0
1.035380831E1	-2.296785712E-1	1.140146375E0	1.119988441E0
1.036221133E1	-3.034383655E-1	1.727323294E0	1.042258143E0
1.037061435E1	-1.670667231E-1	2.084821701E0	9.761339426E-1
1.037901737E1	1.444653720E-1	1.950893402E0	1.060125470E0
1.038742039E1	4.341596961E-1	1.216960430E0	1.135412335E0
1.039582341E1	5.813738704E-1	2.283041626E-1	1.032179117E0
1.040422644E1	5.289937258E-1	-4.677563012E-1	8.926005363E-1
1.041262946E1	3.440597057E-1	-7.023216486E-1	8.360971808E-1
1.042103248E1	1.475196183E-1	-5.172349215E-1	8.838959932E-1
1.042943550E1	9.544488788E-2	-1.068982705E-1	1.047450304E0
1.043783852E1	1.931804419E-1	2.983988822E-1	1.200773001E0
1.044624154E1	2.857238054E-1	5.960342288E-1	1.214669824E0
1.045464456E1	3.164188862E-1	8.548807502E-1	1.092958450E0
1.046304758E1	3.180987239E-1	1.168398142E0	9.374978542E-1
1.047145060E1	3.145863414E-1	1.395327806E0	8.367080092E-1
1.047985362E1	3.142809272E-1	1.378987670E0	7.945595980E-1
1.048825664E1	3.025220931E-1	1.089751482E0	7.771504521E-1
1.049665966E1	2.359397560E-1	7.641699314E-1	7.537854910E-1
1.050506268E1	1.557660550E-1	5.761816502E-1	7.450809479E-1
1.051346571E1	1.246128380E-1	5.134171247E-1	7.589777112E-1
1.052186873E1	1.020114943E-1	4.512633979E-1	7.867712975E-1
1.053027175E1	6.154286116E-2	3.666610718E-1	7.991409302E-1
1.053867477E1	2.412846684E-2	2.999260128E-1	7.931851745E-1
1.054707779E1	5.650337320E-3	2.496838123E-1	7.838697433E-1
1.055548081E1	1.038440317E-2	2.133384049E-1	7.916580439E-1
1.056388383E1	1.282779220E-2	1.623326540E-1	8.096780181E-1
1.057228685E1	1.374406274E-3	6.368082762E-2	8.163973689E-1
1.058068987E1	-1.817270555E-2	-8.750387281E-2	7.988355160E-1
1.058909289E1	-4.260659590E-2	-2.385358512E-1	7.724163532E-1
1.059749591E1	-5.909947306E-2	-3.210002482E-1	7.438592315E-1
1.060589894E1	-6.505523622E-2	-3.425326049E-1	7.185090780E-1
1.061430196E1	-6.200099736E-2	-3.319954872E-1	6.891884208E-1
1.062270498E1	-6.383354217E-2	-3.101576865E-1	6.571189165E-1
1.063110800E1	-6.215370819E-2	-2.913741469E-1	6.248967648E-1
1.063951102E1	-5.894676223E-2	-2.767138183E-1	5.958815217E-1
1.064791404E1	-6.169557199E-2	-2.762556672E-1	5.712949038E-1
1.065631706E1	-6.856760383E-2	-2.721324563E-1	5.470137000E-1
1.066472008E1	-6.505523622E-2	-2.684673667E-1	5.334223509E-1
1.067312310E1	-5.451811850E-2	-2.550287247E-1	5.283828974E-1
1.068152612E1	-3.848337755E-2	-2.319692522E-1	5.230379701E-1
1.068992914E1	-2.412846684E-2	-2.295258641E-1	5.118899941E-1
1.069833216E1	-1.404948719E-2	-2.556395829E-1	4.918847680E-1
1.070673519E1	3.359660041E-3	-2.635805905E-1	4.720322192E-1
1.071513821E1	2.382304333E-2	-2.432699203E-1	4.573718905E-1
1.072354123E1	4.275930673E-2	-2.208212912E-1	4.483618736E-1
1.073194425E1	6.566607952E-2	-1.876828223E-1	4.434750974E-1
1.074034727E1	9.055810422E-2	-1.487413049E-1	4.454603493E-1
1.074875029E1	1.204896197E-1	-1.148392856E-1	4.576773047E-1
1.075715331E1	1.536280811E-1	-7.941014320E-2	4.729484916E-1
1.076555633E1	1.801999360E-1	-6.902574003E-2	4.801259339E-1
1.077395935E1	2.029540092E-1	-1.033858955E-1	4.830274582E-1
1.078236237E1	2.189887464E-1	-1.430909634E-1	4.885250926E-1
1.079076539E1	2.276933193E-1	-1.658450365E-1	4.883723855E-1
1.079916841E1	2.331909388E-1	-1.759240031E-1	4.871506989E-1
1.080757144E1	2.370087355E-1	-1.824906170E-1	4.863871336E-1
1.081597446E1	2.409792393E-1	-1.679829955E-1	4.862344265E-1
1.082437748E1	2.510582209E-1	-1.157555580E-1	4.915793240E-1
1.083278050E1	2.535016239E-1	-6.566607952E-2	5.025745630E-1
1.084118352E1	2.617480457E-1	-4.703523964E-2	5.007420182E-1
1.084958654E1	2.721324563E-1	-5.696150661E-2	4.966188073E-1
1.085798956E1	2.814478874E-1	-9.636115283E-2	4.982986450E-1
1.086639258E1	2.895416021E-1	-1.197260618E-1	5.054761171E-1
1.087479560E1	3.023693860E-1	-1.097997949E-1	5.088357925E-1
1.088319862E1	3.222219348E-1	-8.719844371E-2	5.028799772E-1
1.089160164E1	3.399364948E-1	-8.658760041E-2	4.986040890E-1
1.090000466E1	3.587200642E-1	-1.004843712E-1	4.946335554E-1
1.090840768E1	3.720059693E-1	-1.183516532E-1	4.955498278E-1
1.091681071E1	3.775036037E-1	-1.316375881E-1	5.007420182E-1
1.092521373E1	3.909422457E-1	-1.340809762E-1	5.054761171E-1
1.093361675E1	4.081986845E-1	-1.395785958E-1	5.095993280E-1
1.094201977E1	4.147652984E-1	-1.808107942E-1	5.199837089E-1
1.095042279E1	4.224008918E-1	-2.168507725E-1	5.358657837E-1
1.095882581E1	4.295783341E-1	-2.379250079E-1	5.544965863E-1
1.096722883E1	4.289674759E-1	-2.776300907E-1	5.696150661E-1
1.097563185E1	4.251496792E-1	-3.458922505E-1	5.827482939E-1
1.098403487E1	4.297310412E-1	-4.020902216E-1	6.143596172E-1
1.099243789E1	4.422534108E-1	-4.453076422E-1	6.539120078E-1
1.100084091E1	4.402681589E-1	-5.056288242E-1	6.749862432E-1
1.100924394E1	4.379774928E-1	-5.639647245E-1	6.870504618E-1
1.101764696E1	4.404208660E-1	-5.961869359E-1	7.088882327E-1
1.102604998E1	4.550811946E-1	-5.975613594E-1	7.250757217E-1
1.103445300E1	4.770717025E-1	-5.897729993E-1	7.120952010E-1
1.104285602E1	5.063923597E-1	-5.859552622E-1	6.870504618E-1
1.105125904E1	5.514423847E-1	-5.526640415E-1	6.539120078E-1
1.105966206E1	6.026008129E-1	-4.873034060E-1	6.195518374E-1
1.106806508E1	6.293253899E-1	-4.344651103E-1	5.981721878E-1
1.107646810E1	6.290199757E-1	-4.120164812E-1	5.934380889E-1
1.108487112E1	6.123743653E-1	-4.126273096E-1	5.978667736E-1
1.109327414E1	5.923691392E-1	-4.140017331E-1	6.154286265E-1
1.110167716E1	5.838172436E-1	-4.028537571E-1	6.291726828E-1
1.111008019E1	5.870242119E-1	-4.115583301E-1	6.487197876E-1
1.111848321E1	5.868715048E-1	-4.314108789E-1	6.720846891E-1
1.112688623E1	5.815265775E-1	-4.446968138E-1	6.875085831E-1
1.113528925E1	5.833591223E-1	-4.367557764E-1	6.846070886E-1
1.114369227E1	5.900784731E-1	-4.146125913E-1	6.788040400E-1
1.115209529E1	5.972558856E-1	-3.730749488E-1	6.759024858E-1
1.116049831E1	5.984776020E-1	-3.016058207E-1	6.778877378E-1
1.116890133E1	5.946598053E-1	-2.072299272E-1	6.757497787E-1
1.117730435E1	5.906893015E-1	-1.029277667E-1	6.693359017E-1
1.118570737E1	5.971031785E-1	2.596100792E-3	6.548282504E-1
1.119411039E1	5.945070982E-1	9.239064902E-2	6.453601122E-1
1.120251341E1	5.766398311E-1	1.708845198E-1	6.360446811E-1
1.121091644E1	5.560237169E-1	2.350234836E-1	6.227588058E-1
1.121931946E1	5.146388412E-1	2.967190444E-1	6.007682681E-1
1.122772248E1	4.666872919E-1	3.750602305E-1	5.474718809E-1
1.123612550E1	4.421007037E-1	4.378247857E-1	4.789042473E-1
1.124452852E1	4.323271513E-1	4.002576768E-1	4.323271513E-1
1.125293154E1	3.781144619E-1	2.533488870E-1	3.785725832E-1
1.126133456E1	3.006895781E-1	8.460234851E-2	2.884726226E-1
1.126973758E1	2.437280566E-1	-4.795150831E-2	1.924168915E-1
1.127814060E1	2.037175596E-1	-9.544488788E-2	1.267508119E-1
1.128654362E1	1.791309565E-1	-8.093725890E-2	6.520794332E-2
1.129494664E1	1.383569092E-1	-2.886253223E-2	-2.290677279E-3
1.130334966E1	7.116370648E-2	6.581879407E-2	-1.067455560E-1
1.131175268E1	4.230117425E-2	2.014268786E-1	-2.347180545E-1
1.132015571E1	2.886253223E-2	2.924431264E-1	-3.420744538E-1
1.132855873E1	-2.596100792E-3	2.910687327E-1	-4.472928941E-1
1.133696175E1	-5.696150661E-2	2.374668717E-1	-5.668662786E-1
1.134536477E1	-9.559759498E-2	2.221956849E-1	-6.800256968E-1
1.135376779E1	-1.186570823E-1	2.412846684E-1	-7.661551833E-1
1.136217081E1	-1.449235082E-1	2.669402659E-1	-8.400676847E-1
1.137057383E1	-1.808107942E-1	2.845021188E-1	-9.206995368E-1
1.137897685E1	-2.047865391E-1	2.828222811E-1	-9.930849075E-1
1.138737987E1	-2.298312783E-1	2.298312783E-1	-1.053711534E0
1.139578289E1	-2.991624475E-1	2.122694254E-1	-1.137550354E0
1.140418591E1	-3.376458287E-1	2.568612695E-1	-1.229024649E0
1.141258894E1	-3.533751369E-1	2.447970361E-1	-1.288429618E0
1.142099196E1	-4.117110670E-1	1.530172378E-1	-1.337602735E0
1.142939498E1	-4.764608741E-1	6.597150117E-2	-1.408461094E0
1.143779800E1	-5.260922313E-1	2.260134928E-2	-1.456565261E0
1.144620102E1	-5.619794726E-1	4.886778072E-3	-1.489398360E0
1.145460404E1	-5.899257660E-1	-1.557660475E-2	-1.536433578E0
1.146300706E1	-6.203153729E-1	-3.863608837E-2	-1.594616771E0
1.147141008E1	-6.445965767E-1	-6.200099736E-2	-1.649134874E0
1.147981310E1	-6.649072170E-1	-8.261708915E-2	-1.692657709E0
1.148821612E1	-6.824691296E-1	-9.590301663E-2	-1.734195352E0
1.149661914E1	-6.971294284E-1	-9.834641218E-2	-1.773136854E0
1.150502216E1	-7.148439884E-1	-1.091889441E-1	-1.809940457E0
1.151342519E1	-7.377507687E-1	-1.227803007E-1	-1.836054206E0
1.152182821E1	-7.568397522E-1	-1.160609797E-1	-1.847049356E0
1.153023123E1	-7.684458494E-1	-8.872556686E-2	-1.851783514E0
1.153863425E1	-7.786775231E-1	-5.329642445E-2	-1.856059432E0
1.154703727E1	-7.863131166E-1	-1.450762246E-2	-1.864611268E0
1.155544029E1	-7.928797603E-1	1.527118124E-2	-1.871941447E0
1.156384331E1	-7.983773947E-1	3.008422814E-2	-1.875759244E0
1.157224633E1	-8.067765236E-1	3.588727489E-2	-1.874537468E0
1.158064935E1	-8.098307252E-1	2.977880463E-2	-1.863236904E0
1.158905237E1	-8.054021001E-1	2.657185495E-2	-1.845064163E0
1.159745539E1	-8.005153537E-1	1.527118124E-2	-1.817881465E0
1.160585841E1	-7.911999226E-1	-4.581354442E-4	-1.786270142E0
1.161426144E1	-7.832589149E-1	-2.779355086E-2	-1.753437042E0
1.162266446E1	-7.773031592E-1	-6.429167092E-2	-1.714342833E0
1.163106748E1	-7.731798887E-1	-9.376505762E-2	-1.677081108E0
1.163947050E1	-7.698202729E-1	-9.254335612E-2	-1.648524046E0
1.164787352E1	-7.641699314E-1	-8.582404256E-2	-1.615690947E0
1.165627654E1	-7.485933304E-1	-9.208522737E-2	-1.571862698E0
1.166467956E1	-7.310314775E-1	-1.229330078E-1	-1.524216652E0
1.167308258E1	-7.262973785E-1	-1.679829955E-1	-1.477486849E0
1.168148560E1	-7.197307944E-1	-1.763821393E-1	-1.442821264E0
1.168988862E1	-7.058340311E-1	-1.566823274E-1	-1.405254126E0
1.169829164E1	-6.914790869E-1	-1.589729935E-1	-1.344169378E0
1.170669466E1	-6.809419990E-1	-1.808107942E-1	-1.281252146E0
1.171509768E1	-6.700994372E-1	-1.950129867E-1	-1.226581335E0
1.172350071E1	-6.557445526E-1	-2.147128135E-1	-1.167023659E0
1.173190373E1	-6.317687631E-1	-2.596100867E-1	-1.098303318E0
1.174030675E1	-6.059604883E-1	-2.988570333E-1	-1.034469843E0
1.174870977E1	-5.795413256E-1	-3.147390485E-1	-9.729269743E-1
1.175711279E1	-5.497625470E-1	-3.072561622E-1	-9.063445926E-1
1.176551581E1	-5.118899941E-1	-2.938175201E-1	-8.267817497E-1
1.177391883E1	-4.643966258E-1	-2.724378705E-1	-7.499676943E-1
1.178232185E1	-4.196520746E-1	-2.499892414E-1	-6.789567471E-1
1.179072487E1	-3.808632791E-1	-2.301367074E-1	-6.093201637E-1
1.179912789E1	-3.419217467E-1	-2.024958730E-1	-5.343386531E-1
1.180753091E1	-3.095468581E-1	-1.728697717E-1	-4.497362971E-1
1.181593394E1	-2.823641598E-1	-1.346918195E-1	-3.588727713E-1
1.182433696E1	-2.432699203E-1	-8.567132801E-2	-2.684673667E-1
1.183273998E1	-1.933331639E-1	-4.489727318E-2	-1.913478971E-1
1.184114300E1	-1.571404636E-1	-6.261184346E-3	-1.417165697E-1
1.184954602E1	-1.392731816E-1	-7.635590737E-4	-9.101624042E-2
1.185794904E1	-1.244601309E-1	-2.611372061E-2	-2.000524849E-2
1.186635206E1	-9.636115283E-2	-5.329642445E-2	5.482354015E-2
1.187475508E1	-6.765133142E-2	-8.200624585E-2	1.360662282E-1
1.188315810E1	-4.337015375E-2	-1.207950488E-1	2.139492482E-1
1.189156112E1	-1.313321572E-2	-1.537808031E-1	2.941229641E-1
1.189996414E1	2.107422985E-2	-1.879882365E-1	3.952181637E-1
1.190836716E1	5.115845799E-2	-2.391466945E-1	5.294518471E-1
1.191677018E1	8.307522535E-2	-3.052709103E-1	6.882721782E-1
1.192517321E1	8.414421231E-2	-3.319954872E-1	8.301414251E-1
1.193357623E1	2.092151903E-2	-1.843231618E-1	8.829796910E-1
1.194197925E1	-1.082726792E-1	1.921114624E-1	8.811471462E-1
1.195038227E1	-2.486148328E-1	6.641436815E-1	8.620582223E-1
1.195878529E1	-2.793098986E-1	1.124722481E0	8.457180262E-1
1.196718831E1	-6.673506647E-2	1.382347345E0	9.200887084E-1
1.197559133E1	3.058817685E-1	1.190388560E0	1.125180602E0
1.198399435E1	5.925218463E-1	5.969504714E-1	1.207645059E0
1.199239737E1	6.612421870E-1	-6.642963737E-2	1.106549859E0
1.200080039E1	4.990622103E-1	-5.277720094E-1	9.857547879E-1
1.200920341E1	2.709107697E-1	-6.319214702E-1	9.092461467E-1
1.201760644E1	1.072036922E-1	-3.567348123E-1	8.875610828E-1
1.202600946E1	5.772506446E-2	9.651386738E-2	9.764393568E-1
1.203441248E1	8.078455180E-2	4.321744442E-1	1.093416572E0
1.204281550E1	1.166718230E-1	5.479300022E-1	1.138313890E0
1.205121852E1	1.521009654E-1	5.204418898E-1	1.082726717E0
1.205962154E1	2.165453583E-1	5.375455618E-1	9.834640622E-1
1.206802456E1	2.759502530E-1	6.598677635E-1	9.254335761E-1
1.207642758E1	2.896943092E-1	7.482879162E-1	9.000834227E-1
1.208483060E1	2.551814318E-1	6.575770974E-1	8.805363178E-1
1.209323362E1	1.794363856E-1	4.081986845E-1	8.506048322E-1
1.210163664E1	1.157555580E-1	1.919587553E-1	8.296833038E-1
1.211003966E1	1.015533581E-1	1.696628332E-1	8.454126120E-1
1.211844269E1	1.261399537E-1	3.176405728E-1	8.860339522E-1
1.212684571E1	1.579040140E-1	4.356867969E-1	8.979454637E-1
1.213524873E1	1.751604527E-1	4.355340898E-1	8.539644480E-1
1.214365175E1	1.598892659E-1	3.471139669E-1	7.850914598E-1
1.215205477E1	1.392731816E-1	2.782409191E-1	7.291989326E-1
1.216045779E1	1.308740228E-1	2.840439677E-1	7.162184119E-1
1.216886081E1	1.499630064E-1	3.458922505E-1	7.178982496E-1
1.217726383E1	1.756185889E-1	3.949127495E-1	7.194253802E-1
1.218566685E1	1.820324808E-1	3.619270027E-1	7.206470370E-1
1.219406987E1	1.688992679E-1	2.935121059E-1	6.989619732E-1
1.220247289E1	1.469087601E-1	1.988307834E-1	6.540647149E-1
1.221087591E1	1.215586066E-1	1.044548824E-1	6.235223413E-1
1.221927894E1	1.017060652E-1	7.559234649E-2	6.077930331E-1
1.222768196E1	9.315420687E-2	1.003316641E-1	5.931326747E-1
1.223608498E1	8.597674966E-2	1.307213157E-1	5.741963983E-1
1.224448800E1	6.902574003E-2	1.377460510E-1	5.526640415E-1
1.225289102E1	7.788302749E-2	1.356080920E-1	5.291464329E-1
1.226129404E1	9.330692142E-2	1.192679256E-1	5.053234100E-1
1.226969706E1	8.674030751E-2	5.955760926E-2	4.840964675E-1
1.227810008E1	8.063183725E-2	3.665083554E-3	4.633276463E-1
1.228650310E1	6.765133142E-2	-1.939439960E-2	4.500417113E-1
1.229490612E1	6.352811307E-2	-8.857285604E-3	4.337015450E-1
1.230330914E1	6.642963737E-2	2.046338283E-2	4.074351192E-1
1.231171216E1	6.627693027E-2	3.237490356E-2	3.805578351E-1
1.232011518E1	6.245913357E-2	2.260134928E-2	3.550549746E-1
1.232851821E1	6.368082762E-2	2.168507688E-2	3.414636254E-1
1.233692123E1	6.948387623E-2	2.977880463E-2	3.396310806E-1
1.234532425E1	8.658760041E-2	3.161134571E-2	3.431434333E-1
1.235372727E1	9.452861547E-2	2.932066843E-2	3.461976945E-1
1.236213029E1	9.773556143E-2	9.620844387E-3	3.465031087E-1
1.237053331E1	8.903098851E-2	-1.695101149E-2	3.434488773E-1
1.237893633E1	8.887827396E-2	-3.176405653E-2	3.437542915E-1
1.238733935E1	1.004843712E-1	-2.809897438E-2	3.471139669E-1
1.239574237E1	1.012479365E-1	-4.184303805E-2	3.480302393E-1
1.240414539E1	9.865183383E-2	-7.284353673E-2	3.475720882E-1
1.241254841E1	9.788827598E-2	-9.040539712E-2	3.419217467E-1
1.242095144E1	9.284878522E-2	-1.020114943E-1	3.385621011E-1
1.242935446E1	9.819369763E-2	-1.064401343E-1	3.468085229E-1
1.243775748E1	1.068982705E-1	-8.093725890E-2	3.539859951E-1
1.244616050E1	1.178935245E-1	-3.680354729E-2	3.608580232E-1
1.245456352E1	1.243074164E-1	-3.695625812E-2	3.672719002E-1
1.246296654E1	1.307213157E-1	-6.276455522E-2	3.700207174E-1
1.247136956E1	1.362189353E-1	-7.482878864E-2	3.767400384E-1
1.247977258E1	1.487413049E-1	-7.788302749E-2	3.872771561E-1
1.248817560E1	1.684411317E-1	-8.444963396E-2	4.039227366E-1
1.249657862E1	1.818797737E-1	-8.002099395E-2	4.187358022E-1
1.250498164E1	1.901262105E-1	-8.170082420E-2	4.292729199E-1
1.251338466E1	1.989834905E-1	-1.006370857E-1	4.366030693E-1
1.252178769E1	2.029540092E-1	-1.243074164E-1	4.466820657E-1
1.253019071E1	2.151709497E-1	-1.368297935E-1	4.569137394E-1
1.253859373E1	2.319692522E-1	-1.420219839E-1	4.761554301E-1
1.254699675E1	2.437280566E-1	-1.562241912E-1	4.998257756E-1
1.255539977E1	2.536543310E-1	-1.688992679E-1	5.169295073E-1
1.256380279E1	2.612899244E-1	-1.742441803E-1	5.256340504E-1
1.257220581E1	2.684673667E-1	-1.858502775E-1	5.282301903E-1
1.258060883E1	2.800734639E-1	-1.899735034E-1	5.270084739E-1
1.258901185E1	2.913741469E-1	-1.925695986E-1	5.303681493E-1
1.259741487E1	3.009949923E-1	-2.021904439E-1	5.355603099E-1
1.260581789E1	3.148917556E-1	-2.173089087E-1	5.473191738E-1
1.261422091E1	3.240544796E-1	-2.599155009E-1	5.647283196E-1
1.262262394E1	3.397837877E-1	-3.057290614E-1	5.825955868E-1
1.263102696E1	3.536805511E-1	-3.455868363E-1	6.026008129E-1
1.263942998E1	3.593308926E-1	-3.889569938E-1	6.203153729E-1
1.264783300E1	3.648285270E-1	-4.350759685E-1	6.337540150E-1
1.265623602E1	3.715478480E-1	-4.825693369E-1	6.449019909E-1
1.266463904E1	3.782671690E-1	-5.286883116E-1	6.482616663E-1
1.267304206E1	3.871244490E-1	-5.560237169E-1	6.426113248E-1
1.268144508E1	3.981196880E-1	-5.601469278E-1	6.137487888E-1
1.268984810E1	4.130854607E-1	-5.482354164E-1	5.751127005E-1
1.269825112E1	4.399627447E-1	-5.109737515E-1	5.221216679E-1
1.270665414E1	4.631749392E-1	-4.796678126E-1	4.495835900E-1
1.271505716E1	4.712686539E-1	-4.724903405E-1	3.762819171E-1
1.272346018E1	4.590517282E-1	-4.894413650E-1	3.092414141E-1
1.273186321E1	4.341596961E-1	-5.204418898E-1	2.681619525E-1
1.274026623E1	4.083513916E-1	-5.231906772E-1	2.385358512E-1
1.274866925E1	3.883461356E-1	-5.044071078E-1	2.229592502E-1
1.275707227E1	3.988832533E-1	-4.924955964E-1	2.141019702E-1
1.276547529E1	3.768927455E-1	-5.456393361E-1	2.241809368E-1
1.277387831E1	3.926220834E-1	-5.454866290E-1	1.638597846E-1
1.278228133E1	4.104893506E-1	-4.775298536E-1	1.395785958E-1
1.279068435E1	4.005630910E-1	-4.856235683E-1	1.218640283E-1
1.279908737E1	4.225535989E-1	-4.653128982E-1	8.017370105E-2
1.280749039E1	4.304946065E-1	-4.097257853E-1	8.017370105E-2
1.281589341E1	4.324798584E-1	-3.541387022E-1	1.020114943E-1
1.282429644E1	4.416425824E-1	-3.139754832E-1	1.209477559E-1
1.283269946E1	4.497362971E-1	-2.809897363E-1	1.366770715E-1
1.284110248E1	4.532486796E-1	-2.399102598E-1	1.609582454E-1
1.284950550E1	4.601207078E-1	-1.940967143E-1	1.849340051E-1
1.285790852E1	4.706578255E-1	-1.685938388E-1	2.112004459E-1
1.286631154E1	4.770717025E-1	-1.501157135E-1	2.394521236E-1
1.287471456E1	4.816530645E-1	-1.149920002E-1	2.638860047E-1
1.288311758E1	4.902049303E-1	-7.467607409E-2	2.878617644E-1
1.289152060E1	5.010474920E-1	-3.634541109E-2	3.118375242E-1
1.289992362E1	5.150969625E-1	1.985253580E-2	3.342861533E-1
1.290832664E1	5.291464329E-1	8.078455180E-2	3.602471650E-1
1.291672966E1	5.407525301E-1	1.336228400E-1	3.871244490E-1
1.292513269E1	5.531222224E-1	1.820324808E-1	4.092676640E-1
1.293353571E1	5.567872524E-1	2.278460264E-1	4.292729199E-1
1.294193873E1	5.609105229E-1	2.832804024E-1	4.566083252E-1
1.295034175E1	5.642701387E-1	3.436015844E-1	4.912739098E-1
1.295874477E1	5.694623590E-1	4.034646153E-1	5.312843919E-1
1.296714779E1	5.606050491E-1	4.559974670E-1	5.700731874E-1
1.297555081E1	5.291464329E-1	5.091412067E-1	5.850389600E-1
1.298395383E1	4.888305068E-1	5.712949038E-1	5.659499764E-1
1.299235685E1	4.613423944E-1	6.085565686E-1	5.245651007E-1
1.300075987E1	4.253024161E-1	5.793886185E-1	4.755446017E-1
1.300916289E1	3.727695346E-1	4.921901822E-1	4.118637741E-1
1.301756591E1	3.080197275E-1	3.550549746E-1	3.319954872E-1
1.302596894E1	2.388412803E-1	1.915006191E-1	2.362451702E-1
1.303437196E1	1.612636745E-1	4.840964451E-2	1.411057115E-1
1.304277498E1	8.658760041E-2	-4.795150831E-2	5.131116882E-2
1.305117800E1	2.061609551E-2	-1.093416587E-1	-3.191677108E-2
1.305958102E1	-5.803048983E-2	-1.473668963E-1	-1.127013192E-1
1.306798404E1	-1.349972486E-1	-1.438545287E-1	-2.006633282E-1
1.307638706E1	-2.044811249E-1	-1.206423342E-1	-2.889307439E-1
1.308479008E1	-2.643441558E-1	-1.230857223E-1	-3.781144619E-1
1.309319310E1	-3.298575282E-1	-1.696628332E-1	-4.682144225E-1
1.310159612E1	-3.926220834E-1	-2.557922900E-1	-5.540384650E-1
1.310999914E1	-4.475983381E-1	-3.390202224E-1	-6.392516494E-1
1.311840216E1	-4.859289825E-1	-4.103366435E-1	-7.091936469E-1
1.312680518E1	-5.221216679E-1	-4.665345848E-1	-7.776085734E-1
1.313520821E1	-5.570927262E-1	-4.989095032E-1	-8.432746530E-1
1.314361123E1	-5.883986354E-1	-4.944808483E-1	-8.996253014E-1
1.315201425E1	-6.080984473E-1	-4.584408700E-1	-9.620844126E-1
1.316041727E1	-6.224533319E-1	-4.126273096E-1	-1.026376128E0
1.316882029E1	-6.540647149E-1	-3.559712470E-1	-1.091125965E0
1.317722331E1	-6.624638438E-1	-2.811424434E-1	-1.159082651E0
1.318562633E1	-6.557445526E-1	-1.922641695E-1	-1.218945742E0
1.319402935E1	-6.671979427E-1	-1.055238619E-1	-1.262926698E0
1.320243237E1	-6.791094542E-1	-3.100049868E-2	-1.311336398E0
1.321083539E1	-6.730009913E-1	4.581354558E-3	-1.350430608E0
1.321923841E1	-6.768187881E-1	-3.206948051E-3	-1.384790778E0
1.322764144E1	-6.884248853E-1	-4.092676565E-2	-1.404948711E0
1.323604446E1	-7.128587365E-1	-6.490252167E-2	-1.427702785E0
1.324444748E1	-7.204943299E-1	-4.932591692E-2	-1.451831222E0
1.325285050E1	-7.253811359E-1	-4.306473210E-2	-1.466338873E0
1.326125352E1	-7.444701195E-1	-6.994201243E-2	-1.478250384E0
1.326965654E1	-7.718055248E-1	-8.383878320E-2	-1.494590521E0
1.327805956E1	-7.858549953E-1	-7.742489129E-2	-1.501309872E0
1.328646258E1	-7.925743461E-1	-6.841489673E-2	-1.491383553E0
1.329486560E1	-8.043331504E-1	-6.642963737E-2	-1.479777455E0
1.330326862E1	-8.118160367E-1	-6.902574003E-2	-1.473974466E0
1.331167164E1	-8.194515705E-1	-6.581879407E-2	-1.469851255E0
1.332007466E1	-8.215895891E-1	-6.306997687E-2	-1.463437319E0
1.332847769E1	-8.272398710E-1	-6.154286116E-2	-1.446791768E0
1.333688071E1	-8.275453448E-1	-6.429167092E-2	-1.431673288E0
1.334528373E1	-8.278507590E-1	-7.146912813E-2	-1.417165637E0
1.335368675E1	-8.215895891E-1	-8.918370306E-2	-1.403727055E0
1.336208977E1	-8.139539957E-1	-9.819369763E-2	-1.377613306E0
1.337049279E1	-8.167027831E-1	-1.012479365E-1	-1.335006714E0
1.337889581E1	-8.203678727E-1	-9.895725548E-2	-1.293316364E0
1.338729883E1	-8.127322793E-1	-7.986827940E-2	-1.263384819E0
1.339570185E1	-8.044858575E-1	-3.756710514E-2	-1.242921472E0
1.340410487E1	-7.986828089E-1	2.137965523E-3	-1.220472813E0
1.341250789E1	-7.887565494E-1	3.481829539E-2	-1.194053650E0
1.342091091E1	-7.734853625E-1	5.925218388E-2	-1.167329073E0
1.342931394E1	-7.563816309E-1	6.902574003E-2	-1.145796776E0
1.343771696E1	-7.400414348E-1	7.192726433E-2	-1.127624035E0
1.344611998E1	-7.316423059E-1	7.543963939E-2	-1.116017938E0
1.345452300E1	-7.154548764E-1	6.780404598E-2	-1.108076930E0
1.346292602E1	-6.896465421E-1	4.627167806E-2	-1.100135922E0
1.347132904E1	-6.708629727E-1	2.596100792E-3	-1.074785709E0
1.347973206E1	-6.659762263E-1	-2.687728032E-2	-1.030957460E0
1.348813508E1	-6.610894203E-1	2.137965523E-3	-9.852966070E-1
1.349653810E1	-6.464291215E-1	5.085303262E-2	-9.345963001E-1
1.350494112E1	-6.230642200E-1	9.758284688E-2	-8.909206986E-1
1.351334414E1	-5.978667736E-1	1.206423342E-1	-8.441908956E-1
1.352174716E1	-5.725166202E-1	1.027750522E-1	-7.857022882E-1
1.353015018E1	-5.389199853E-1	7.513421029E-2	-7.214106321E-1
1.353855321E1	-4.955498278E-1	5.650337040E-2	-6.549809575E-1
1.354695623E1	-4.475983381E-1	3.878879920E-2	-5.700731874E-1
1.355535925E1	-4.060607255E-1	2.916795574E-2	-4.793623984E-1
1.356376227E1	-3.649812341E-1	4.856235534E-2	-3.924693763E-1
1.357216529E1	-3.144336343E-1	7.406523079E-2	-3.075616062E-1
1.358056831E1	-2.553341687E-1	7.223268598E-2	-2.305948436E-1
1.358897133E1	-1.890572309E-1	4.230117425E-2	-1.530172378E-1
1.359737435E1	-1.403421611E-1	3.359660041E-3	-5.604523420E-2
1.360577737E1	-1.020114943E-1	-2.794626169E-2	6.368082762E-2
1.361418039E1	-4.795150831E-2	-4.245388508E-2	2.018850148E-1
1.362258341E1	2.367033064E-2	-3.084778599E-2	3.460449576E-1
1.363098644E1	1.139230132E-1	-3.344388679E-2	5.070032477E-1
1.363938946E1	2.108950168E-1	-8.857285231E-2	7.258392572E-1
1.364779248E1	2.925958335E-1	-1.705790907E-1	9.842276573E-1
1.365619550E1	2.880144715E-1	-1.411057115E-1	1.186265349E0
1.366459852E1	1.931804419E-1	1.594311297E-1	1.222610831E0
1.367300154E1	8.490777016E-2	7.007945180E-1	1.189625025E0
1.368140456E1	-2.290677279E-3	1.270104170E0	1.129914761E0
1.368980758E1	-1.130067464E-2	1.629893184E0	1.001942158E0
1.369821060E1	1.088835225E-1	1.658603072E0	8.764131069E-1
1.370661362E1	3.035911024E-1	1.293774486E0	8.744278550E-1
1.371501664E1	4.446968138E-1	6.523848772E-1	9.368869662E-1
1.372341966E1	4.520269632E-1	8.444963396E-2	8.953493834E-1
1.373182269E1	3.565820754E-1	-2.664821148E-1	8.247964978E-1
1.374022571E1	2.220429778E-1	-3.397837877E-1	8.191461563E-1
1.374862873E1	1.490467340E-1	-1.948602796E-1	8.834378719E-1
1.375703175E1	1.601946950E-1	1.435491070E-2	9.573503733E-1
1.376543477E1	1.934858710E-1	2.310529798E-1	9.982771277E-1
1.377383779E1	1.841704547E-1	4.471401870E-1	9.642223716E-1
1.378224081E1	1.534753740E-1	6.742226481E-1	8.765658140E-1
1.379064383E1	1.467560530E-1	8.660287261E-1	8.014315963E-1
1.379904685E1	1.673721522E-1	9.260444641E-1	7.705838084E-1
1.380744987E1	1.855448484E-1	8.284615874E-1	7.702783942E-1
1.381585289E1	1.844758689E-1	6.783458591E-1	7.710419297E-1
1.382425591E1	1.733279079E-1	5.473191738E-1	7.699729800E-1
1.383265894E1	1.597365588E-1	4.277457893E-1	7.847860456E-1
1.384106196E1	1.501157135E-1	2.942756712E-1	8.060129285E-1
1.384946498E1	1.417165697E-1	1.866138428E-1	8.269344568E-1
1.385786800E1	1.444653720E-1	1.351499557E-1	8.289197087E-1
1.386627102E1	1.458397806E-1	1.287360638E-1	8.092198968E-1
1.387467404E1	1.540862173E-1	1.267508119E-1	7.904363275E-1
1.388307706E1	1.656923145E-1	1.288887709E-1	7.834116220E-1
1.389148008E1	1.921114624E-1	1.314848661E-1	7.815790772E-1
1.389988310E1	1.922641695E-1	9.101624042E-2	7.663078904E-1
1.390828612E1	1.776038408E-1	1.068982668E-2	7.281299233E-1
1.391668914E1	1.675248593E-1	-5.299099907E-2	6.868977547E-1
1.392509216E1	1.638597846E-1	-8.460234851E-2	6.636855602E-1
1.393349519E1	1.627907902E-1	-8.307522535E-2	6.464291215E-1
1.394189821E1	1.663031727E-1	-6.230641901E-2	6.219952106E-1
1.395030123E1	1.653869003E-1	-5.436540768E-2	5.960342288E-1
1.395870425E1	1.601946950E-1	-5.115845799E-2	5.755708218E-1
1.396710727E1	1.543916464E-1	-4.321744293E-2	5.592306852E-1
1.397551029E1	1.629435122E-1	-5.879404768E-2	5.428904891E-1
1.398391331E1	1.557660550E-1	-8.933641016E-2	5.238015056E-1
1.399231633E1	1.441599578E-1	-1.033858955E-1	5.010474920E-1
1.400071935E1	1.443126649E-1	-1.099525094E-1	4.772244096E-1
1.400912237E1	1.395785958E-1	-1.047603041E-1	4.555393457E-1
1.401752539E1	1.342336833E-1	-8.903098851E-2	4.303418994E-1
1.402592841E1	1.302631795E-1	-7.238540053E-2	4.031592011E-1
1.403433144E1	1.267508119E-1	-6.368082762E-2	3.794888556E-1
1.404273446E1	1.246128380E-1	-6.398624927E-2	3.626905680E-1
1.405113748E1	1.186570823E-1	-7.024743408E-2	3.452814221E-1
1.405954050E1	1.108687744E-1	-8.765657991E-2	3.242071867E-1
1.406794352E1	1.026223376E-1	-1.133121699E-1	3.071034551E-1
1.407634654E1	9.651386738E-2	-1.220167428E-1	2.913741469E-1
1.408474956E1	1.068982705E-1	-1.108687744E-1	2.793098986E-1
1.409315258E1	1.131594554E-1	-1.043021679E-1	2.797680497E-1
1.410155560E1	1.243074164E-1	-8.322793990E-2	2.829749882E-1
1.410995862E1	1.582094431E-1	-2.825168520E-2	3.136700690E-1
1.411836164E1	1.902789176E-1	4.153761268E-2	3.376458287E-1
1.412676466E1	2.021904439E-1	3.603998944E-2	3.390202224E-1
1.413516768E1	2.029540092E-1	-4.947862774E-2	3.335226178E-1
1.414357071E1	1.974563748E-1	-1.165191159E-1	3.329117596E-1
1.415197373E1	1.960819662E-1	-1.240019947E-1	3.461976945E-1
1.416037675E1	2.008160353E-1	-9.727742523E-2	3.619270027E-1
1.416877977E1	2.060082406E-1	-6.795676053E-2	3.541387022E-1
1.417718279E1	2.144073844E-1	-6.444438547E-2	3.483356535E-1
1.418558581E1	2.258607745E-1	-9.620844573E-2	3.472666740E-1
1.419398883E1	2.348707765E-1	-1.345391124E-1	3.513898849E-1
1.420239185E1	2.528907657E-1	-1.433963925E-1	3.717005551E-1
1.421079487E1	2.756448388E-1	-1.220167428E-1	3.939964771E-1
1.421919789E1	3.043546379E-1	-1.128540337E-1	4.146125913E-1
1.422760091E1	3.216110766E-1	-1.536280811E-1	4.485146105E-1
1.423600394E1	3.280249834E-1	-2.269297540E-1	4.636330605E-1
1.424440696E1	3.303156495E-1	-2.732014358E-1	4.692834020E-1
1.425280998E1	3.332171738E-1	-2.837385535E-1	4.810422063E-1
1.426121300E1	3.422271907E-1	-2.623589039E-1	4.883723855E-1
1.426961602E1	3.516952991E-1	-2.379250079E-1	4.923428893E-1
1.427801904E1	3.628432751E-1	-2.290677279E-1	4.972296655E-1
1.428642206E1	3.744493723E-1	-2.405211031E-1	5.100574493E-1
1.429482508E1	3.895678520E-1	-2.580829561E-1	5.289937258E-1
1.430322810E1	4.069769979E-1	-2.895416021E-1	5.563291311E-1
1.431163112E1	4.260659516E-1	-3.251234591E-1	5.868715048E-1
1.432003414E1	4.480564594E-1	-3.778090179E-1	6.187883019E-1
1.432843716E1	4.718795121E-1	-4.514161348E-1	6.487197876E-1
1.433684019E1	4.857762754E-1	-5.493044257E-1	6.783458591E-1
1.434524321E1	4.979932308E-1	-6.513158679E-1	7.143858671E-1
1.435364623E1	5.021164417E-1	-7.324058414E-1	7.569924593E-1
1.436204925E1	5.114318728E-1	-7.878402472E-1	7.977665067E-1
1.437045227E1	5.347967744E-1	-8.002098799E-1	8.266290426E-1
1.437885529E1	5.673243999E-1	-7.753179073E-1	8.234221339E-1
1.438725831E1	6.172611713E-1	-7.299624681E-1	7.905890942E-1
1.439566133E1	6.726955175E-1	-6.459710002E-1	7.456917763E-1
1.440406435E1	6.899519563E-1	-6.058077812E-1	6.983511448E-1
1.441246737E1	6.639909744E-1	-6.630746722E-1	6.543701291E-1
1.442087039E1	6.236750484E-1	-7.415685654E-1	6.308525205E-1
1.442927341E1	5.796940327E-1	-8.110524416E-1	6.114581227E-1
1.443767644E1	5.247178078E-1	-9.016105533E-1	6.114581227E-1
1.444607946E1	5.331169367E-1	-8.779402375E-1	6.126797795E-1
1.445448248E1	5.277720094E-1	-8.383878469E-1	6.262711287E-1
1.446288550E1	5.228852630E-1	-8.112051487E-1	6.108472347E-1
1.447128852E1	5.503733754E-1	-7.119424939E-1	5.653391480E-1
1.447969154E1	5.738909841E-1	-5.822901726E-1	5.306735635E-1
1.448809456E1	5.876350403E-1	-4.395045936E-1	5.051707029E-1
1.449649758E1	6.012263894E-1	-2.933593988E-1	4.815003574E-1
1.450490060E1	6.047387719E-1	-1.687465608E-1	4.637857676E-1
1.451330362E1	6.045860648E-1	-5.573981255E-2	4.523324072E-1
1.452170664E1	6.103891134E-1	4.153761268E-2	4.442386627E-1
1.453010966E1	6.142069101E-1	9.330692142E-2	4.350759685E-1
1.453851268E1	6.122216582E-1	1.116323397E-1	4.233171642E-1
1.454691571E1	6.032116413E-1	1.163664013E-1	4.164451063E-1
1.455531873E1	5.893148780E-1	1.348445266E-1	4.185830951E-1
1.456372175E1	5.741963983E-1	1.794363856E-1	4.214846194E-1
1.457212477E1	5.541911721E-1	2.342599183E-1	4.237752855E-1
1.458052779E1	5.254813433E-1	2.854183912E-1	4.300364852E-1
1.458893081E1	4.953971207E-1	3.182514310E-1	4.434750974E-1
1.459733383E1	4.682144225E-1	3.048127890E-1	4.573718905E-1
1.460573685E1	4.388937652E-1	2.670929730E-1	4.688252807E-1
1.461413987E1	4.057552814E-1	2.188360244E-1	4.819584787E-1
1.462254289E1	3.762819171E-1	1.606528312E-1	4.937172830E-1
1.463094591E1	3.461976945E-1	1.010952219E-1	4.979932308E-1
1.463934894E1	3.112266660E-1	5.757235363E-2	4.952444136E-1
1.464775196E1	2.811424434E-1	2.244863659E-2	4.831801951E-1
1.465615498E1	2.483094037E-1	-1.298050396E-2	4.630222321E-1
1.466455800E1	2.107423097E-1	-3.359659761E-2	4.324798584E-1
1.467296102E1	1.759240031E-1	-3.481829539E-2	3.952181637E-1
1.468136404E1	1.479777545E-1	-8.704573847E-3	3.518480062E-1
1.468976706E1	1.073564067E-1	4.566083103E-2	3.037438095E-1
1.469817008E1	6.398624927E-2	1.160609797E-1	2.441861928E-1
1.470657310E1	3.558185324E-2	1.863084137E-1	1.913478971E-1
1.471497612E1	-6.108472589E-4	2.541124523E-1	1.293469071E-1
1.472337914E1	-3.191677108E-2	2.997733057E-1	6.016845629E-2
1.473178216E1	-5.543438718E-2	2.837385535E-1	1.679830020E-3
1.474018519E1	-8.353336155E-2	2.267770469E-1	-6.413896382E-2
1.474858821E1	-1.166718230E-1	1.832541823E-1	-1.275143623E-1
1.475699123E1	-1.383569092E-1	1.427855492E-1	-1.768402755E-1
1.476539425E1	-1.464506239E-1	5.635065958E-2	-2.223484069E-1
1.477379727E1	-1.640124917E-1	-5.818320066E-2	-2.779355049E-1
1.478220029E1	-1.771457046E-1	-1.342336833E-1	-3.345915973E-1
1.479060331E1	-1.898207814E-1	-1.792836636E-1	-3.779617548E-1
1.479900633E1	-2.081461996E-1	-2.047865391E-1	-4.254551232E-1
1.480740935E1	-2.116585821E-1	-2.130329758E-1	-4.839437306E-1
1.481581237E1	-2.203631550E-1	-2.127275616E-1	-5.401417017E-1
1.482421539E1	-2.377723008E-1	-1.921114624E-1	-5.996993184E-1
1.483261841E1	-2.565558553E-1	-1.249182671E-1	-6.641436815E-1
1.484102144E1	-2.783936262E-1	-1.664558798E-2	-7.267554998E-1
1.484942446E1	-3.031329513E-1	1.148392856E-1	-7.976137996E-1
1.485782748E1	-3.162661791E-1	2.696890533E-1	-8.826742768E-1
1.486623050E1	-3.278722763E-1	3.678827584E-1	-9.571976662E-1
1.487463352E1	-3.645231128E-1	3.869717419E-1	-1.048824787E0
1.488303654E1	-3.968980014E-1	4.164451063E-1	-1.147934675E0
1.489143956E1	-4.112529159E-1	4.373666346E-1	-1.215280652E0
1.489984258E1	-4.350759685E-1	4.191939235E-1	-1.276059866E0
1.490824560E1	-4.640912116E-1	3.655920923E-1	-1.348292589E0
1.491664862E1	-4.911212027E-1	2.899997234E-1	-1.412737012E0
1.492505164E1	-5.294518471E-1	2.124221325E-1	-1.469087601E0
1.493345466E1	-5.743491650E-1	1.550024897E-1	-1.522842169E0
1.494185768E1	-6.007682681E-1	1.065928489E-1	-1.571557283E0
1.495026071E1	-6.354338527E-1	4.734066129E-2	-1.611109614E0
1.495866373E1	-6.853706241E-1	-1.221694518E-3	-1.659824729E0
1.496706675E1	-7.288935184E-1	-3.527642787E-2	-1.707012653E0
1.497546977E1	-7.715001106E-1	-6.398624927E-2	-1.745648742E0
1.498387279E1	-8.049439788E-1	-8.536590636E-2	-1.785812020E0
1.499227581E1	-8.237275481E-1	-1.088835225E-1	-1.820019364E0
1.500067883E1	-8.353336453E-1	-1.353026628E-1	-1.849187374E0
1.500908185E1	-8.527427912E-1	-1.553079188E-1	-1.873773932E0
1.501748487E1	-8.695410490E-1	-1.513374150E-1	-1.901872993E0
1.502588789E1	-8.735115528E-1	-1.247655526E-1	-1.927375793E0
1.503429091E1	-8.712208867E-1	-1.000262350E-1	-1.940814495E0
1.504269394E1	-8.834378719E-1	-8.857285231E-2	-1.954558492E0
1.505109696E1	-8.864920735E-1	-7.757759839E-2	-1.975785494E0
1.505949998E1	-8.788564801E-1	-6.047387794E-2	-1.990598559E0
1.506790300E1	-8.750386834E-1	-2.977880463E-2	-1.998692274E0
1.507630602E1	-8.761076927E-1	7.635590620E-3	-2.000983000E0
1.508470904E1	-8.735115528E-1	5.879404768E-2	-2.000524759E0
1.509311206E1	-8.596147895E-1	1.133121699E-1	-1.993499994E0
1.510151508E1	-8.464815617E-1	1.394258887E-1	-1.960208893E0
1.510991810E1	-8.368607163E-1	1.406475753E-1	-1.912868142E0
1.511832112E1	-8.347227573E-1	1.253764033E-1	-1.865222096E0
1.512672414E1	-8.336538076E-1	8.994726092E-2	-1.819103122E0
1.513512716E1	-8.325847983E-1	3.436015919E-2	-1.773900390E0
1.514353019E1	-8.284615874E-1	-4.001049697E-2	-1.723200083E0
1.515193321E1	-8.264763355E-1	-1.253764033E-1	-1.663184404E0
1.516033623E1	-8.199097514E-1	-2.053973973E-1	-1.595991135E0
1.516873925E1	-8.079982400E-1	-2.719797492E-1	-1.529408813E0
1.517714227E1	-7.904363275E-1	-3.180987239E-1	-1.457634330E0
1.518554529E1	-7.707365155E-1	-3.390202224E-1	-1.372421026E0
1.519394831E1	-7.487460375E-1	-3.400892019E-1	-1.273921967E0
1.520235133E1	-7.247702479E-1	-3.113794029E-1	-1.169161677E0
1.521075435E1	-6.923953891E-1	-2.707580328E-1	-1.072342396E0
1.521915737E1	-6.595623493E-1	-2.564031482E-1	-9.865183234E-1
1.522756039E1	-6.299362183E-1	-2.884726226E-1	-9.080244303E-1
1.523596341E1	-5.902311802E-1	-3.445178568E-1	-8.284615874E-1
1.524436644E1	-5.509842038E-1	-3.877353072E-1	-7.395833135E-1
1.525276946E1	-5.184566379E-1	-3.863608837E-1	-6.421532035E-1
1.526117248E1	-4.824166298E-1	-3.574983478E-1	-5.456393361E-1
1.526957550E1	-4.433223903E-1	-3.156553209E-1	-4.550811946E-1
1.527797852E1	-4.109475017E-1	-2.513636351E-1	-3.790307343E-1
1.528638154E1	-3.833066523E-1	-1.666085869E-1	-2.948864996E-1
1.529478456E1	-3.600944579E-1	-8.047912270E-2	-2.015796006E-1
1.530318758E1	-3.284831047E-1	9.773556143E-3	-1.217113137E-1
1.531159060E1	-2.855710983E-1	8.322793990E-2	-6.306997687E-2
1.531999362E1	-2.473931462E-1	1.192679256E-1	-5.192201585E-3
1.532839664E1	-2.188360244E-1	1.220167428E-1	5.375456065E-2
1.533679966E1	-1.927223057E-1	1.166718230E-1	1.108687744E-1
1.534520268E1	-1.617218107E-1	1.233911440E-1	1.699682474E-1
1.535360571E1	-1.281252056E-1	1.385096163E-1	2.333436459E-1
1.536200873E1	-8.780929446E-2	1.667613089E-1	2.999260128E-1
1.537041175E1	-4.138490185E-2	1.957765520E-1	3.701734245E-1
1.537881477E1	4.581354558E-3	2.351761907E-1	4.465293586E-1
1.538721779E1	4.627167806E-2	2.954973578E-1	5.312843919E-1
1.539562081E1	8.658760041E-2	3.788780272E-1	6.229115129E-1
1.540402383E1	1.322484314E-1	4.763081372E-1	7.094991207E-1
1.541242685E1	1.438545287E-1	5.853443742E-1	7.736380696E-1
1.542082987E1	9.880454093E-2	7.209524512E-1	8.041804433E-1
1.542923289E1	1.160609815E-2	8.898517489E-1	7.936432958E-1
1.543763591E1	-7.589777559E-2	1.067608237E0	7.377507687E-1
1.544603894E1	-1.279724985E-1	1.204590797E0	6.516213417E-1
1.545444196E1	-1.087308154E-1	1.213600755E0	6.056550741E-1
1.546284498E1	-1.557660475E-2	1.004691005E0	6.617003083E-1
1.547124800E1	1.110214889E-1	6.132906675E-1	8.052493930E-1
1.547965102E1	2.205158621E-1	2.127275616E-1	8.826742768E-1
1.548805404E1	2.753393948E-1	-7.620319724E-2	8.573241234E-1
1.549645706E1	2.625116110E-1	-2.399102598E-1	8.270871639E-1
1.550486008E1	2.023431510E-1	-2.802261710E-1	8.270871639E-1
1.551326310E1	1.253764033E-1	-1.806580722E-1	8.444963098E-1
1.552166612E1	5.497625470E-2	4.688252881E-2	8.260182142E-1
1.553006914E1	1.236965694E-2	3.219164908E-1	7.916580439E-1
1.553847216E1	-5.650337320E-3	5.570927262E-1	7.805100679E-1
1.554687519E1	-9.315420873E-3	7.030851841E-1	7.719582319E-1
1.555527821E1	-2.901524538E-3	7.576032877E-1	7.505785823E-1
1.556368123E1	2.412846684E-2	7.577560544E-1	7.455390692E-1
1.557208425E1	7.925742865E-2	7.576032877E-1	7.547017932E-1
1.558048727E1	1.452289373E-1	7.915053368E-1	7.533273697E-1
1.558889029E1	1.983726472E-1	8.121214509E-1	7.394306064E-1
1.559729331E1	1.957765520E-1	7.795938253E-1	7.473716140E-1
1.560569633E1	1.525591016E-1	7.125533223E-1	7.751652002E-1
1.561409935E1	1.282779276E-1	7.038487792E-1	8.066238165E-1
1.562250237E1	1.469087601E-1	7.695148587E-1	8.139539957E-1
1.563090539E1	1.695101112E-1	7.944068313E-1	8.105943203E-1
1.563930841E1	1.546970755E-1	7.046123147E-1	8.092198968E-1
1.564771144E1	1.047603041E-1	5.419742465E-1	7.887565494E-1
1.565611446E1	6.734590977E-2	3.979669809E-1	7.551599145E-1
1.566451748E1	5.390727147E-2	3.031329513E-1	7.327113152E-1
1.567292050E1	5.024218559E-2	2.406738251E-1	7.198835015E-1
1.568132352E1	5.696150661E-2	2.344126403E-1	7.014053464E-1
1.568972654E1	6.826218218E-2	2.721324563E-1	6.765133142E-1
1.569812956E1	8.063183725E-2	3.112266660E-1	6.531484127E-1
1.570653258E1	8.780929446E-2	3.216110766E-1	6.390989423E-1
1.571493560E1	9.773556143E-2	3.132119179E-1	6.303943992E-1
1.572333862E1	1.015533581E-1	2.811424434E-1	6.314633489E-1
1.573174164E1	9.239064902E-2	2.250972092E-1	6.226060390E-1
1.574014466E1	7.177454978E-2	1.375933439E-1	5.916055441E-1
1.574854768E1	5.573981255E-2	5.848862603E-2	5.500679612E-1
1.575695071E1	3.390202299E-2	2.397575416E-2	5.166240931E-1
1.576535373E1	2.305948362E-2	4.840964451E-2	4.932591617E-1
1.577375675E1	2.657185495E-2	1.125486046E-1	4.735593498E-1
1.578215977E1	3.756710514E-2	1.782146841E-1	4.518742561E-1
1.579056279E1	4.535540938E-2	2.104368806E-1	4.309527278E-1
1.579896581E1	4.291202128E-2	1.798945218E-1	4.011739492E-1
1.580736883E1	3.710897267E-2	1.330119967E-1	3.704788685E-1
1.581577185E1	2.794626169E-2	8.811471611E-2	3.440597057E-1
1.582417487E1	2.855710872E-2	4.260659590E-2	3.271087110E-1
1.583257789E1	2.382304333E-2	2.260134928E-2	3.223746419E-1
1.584098091E1	2.626643144E-2	2.962609194E-2	3.196258247E-1
1.584938394E1	3.710897267E-2	3.390202299E-2	3.161134422E-1
1.585778696E1	3.817795217E-2	5.955760833E-3	3.113794029E-1
1.586618998E1	3.603998944E-2	-4.993676394E-2	3.101576865E-1
1.587459300E1	3.283303976E-2	-9.040539712E-2	3.151971996E-1
1.588299602E1	4.031591862E-2	-1.123958975E-1	3.280249834E-1
1.589139904E1	5.131116882E-2	-1.412584335E-1	3.390202224E-1
1.589980206E1	5.375456065E-2	-1.820324808E-1	3.461976945E-1
1.590820508E1	5.803048983E-2	-2.304421216E-1	3.552076817E-1
1.591660810E1	7.177454978E-2	-2.472404242E-1	3.704788685E-1
1.592501112E1	8.444963396E-2	-2.562504113E-1	3.842229247E-1
1.593341414E1	9.269607067E-2	-2.800734639E-1	3.967452943E-1
1.594181716E1	9.819369763E-2	-3.112266660E-1	4.049917459E-1
1.595022019E1	9.849911928E-2	-3.292466700E-1	4.089622498E-1
1.595862321E1	9.468132257E-2	-3.292466700E-1	4.202629030E-1
1.596702623E1	9.147437662E-2	-3.474193811E-1	4.347705245E-1
1.597542925E1	1.024696305E-1	-3.246653080E-1	4.413371384E-1
1.598383227E1	1.146865711E-1	-3.168770075E-1	4.446968138E-1
1.599223529E1	1.214058921E-1	-3.365768492E-1	4.514161348E-1
1.600063831E1	1.272089481E-1	-3.263451457E-1	4.558447599E-1
1.600904133E1	1.455343664E-1	-2.925958335E-1	4.650074840E-1
1.601744435E1	1.672194302E-1	-2.506000996E-1	4.723376334E-1
1.602584737E1	1.821851879E-1	-2.483094037E-1	4.752391577E-1
1.603425039E1	1.931804419E-1	-2.840439677E-1	4.721849263E-1
1.604265341E1	1.974563748E-1	-3.206948042E-1	4.698942602E-1
1.605105644E1	2.014268786E-1	-3.454341292E-1	4.805840850E-1
1.605945946E1	2.057028115E-1	-3.703261614E-1	4.912739098E-1
1.606786248E1	2.089097649E-1	-4.150707126E-1	4.920374751E-1
1.607626550E1	2.079934925E-1	-4.494308829E-1	4.987567961E-1
1.608466852E1	2.168507725E-1	-4.454603493E-1	5.071559548E-1
1.609307154E1	2.273878902E-1	-4.497362971E-1	5.166240931E-1
1.610147456E1	2.362451702E-1	-4.705050886E-1	5.245651007E-1
1.610987758E1	2.498365343E-1	-4.782933891E-1	5.381564498E-1
1.611828060E1	2.713688910E-1	-4.879142344E-1	5.586197972E-1
1.612668362E1	2.825168669E-1	-5.390726924E-1	5.786250830E-1
1.613508664E1	2.919849753E-1	-6.134433746E-1	5.952706337E-1
1.614348966E1	2.976353168E-1	-6.728482842E-1	6.079457402E-1
1.615189268E1	3.051182032E-1	-7.078192830E-1	6.293253899E-1
1.616029571E1	3.122956753E-1	-7.322531343E-1	6.481089592E-1
1.616869873E1	3.162661791E-1	-7.508839965E-1	6.557445526E-1
1.617710175E1	3.237490356E-1	-7.472189069E-1	6.627692580E-1
1.618550477E1	3.474193811E-1	-7.133168578E-1	6.716265678E-1
1.619390779E1	3.810159862E-1	-6.762079000E-1	6.610894203E-1
1.620231081E1	4.265241027E-1	-6.340594292E-1	6.129852533E-1
1.621071383E1	4.720322192E-1	-5.806103349E-1	5.285356045E-1
1.621911685E1	4.937172830E-1	-5.486935377E-1	4.569137394E-1
1.622751987E1	4.760027230E-1	-5.419742465E-1	4.266768098E-1
1.623592289E1	4.463766217E-1	-4.949389994E-1	4.130854607E-1
1.624432591E1	4.242334068E-1	-3.785725832E-1	4.046863019E-1
1.625272894E1	4.144598544E-1	-2.754921019E-1	3.854446113E-1
1.626113196E1	4.159869850E-1	-2.260134816E-1	3.484883606E-1
1.626953498E1	4.172086716E-1	-2.324273884E-1	3.133646548E-1
1.627793800E1	4.156815708E-1	-2.457133085E-1	2.912214398E-1
1.628634102E1	4.146125913E-1	-2.447970361E-1	2.754921019E-1
1.629474404E1	4.127800465E-1	-2.562504113E-1	2.635805905E-1
1.630314706E1	4.109475017E-1	-2.773246467E-1	2.553341687E-1
1.631155008E1	4.091149569E-1	-3.028275371E-1	2.522799075E-1
1.631995310E1	4.085040987E-1	-3.368822634E-1	2.516690791E-1
1.632835612E1	4.069769979E-1	-3.607053161E-1	2.538070381E-1
1.633675914E1	4.091149569E-1	-3.558185399E-1	2.580829561E-1
1.634516216E1	4.143071473E-1	-3.293993771E-1	2.623589039E-1
1.635356518E1	4.188885093E-1	-3.067980409E-1	2.695363462E-1
1.636196821E1	4.230117202E-1	-2.991624475E-1	2.770192325E-1
1.637037123E1	4.266768098E-1	-2.973299026E-1	2.855710983E-1
1.637877425E1	4.240806997E-1	-2.887780368E-1	2.976353168E-1
1.638717727E1	4.249969721E-1	-2.716743052E-1	3.153499067E-1
1.639558029E1	4.277457893E-1	-2.454078794E-1	3.355078697E-1
1.640398331E1	4.297310412E-1	-2.220429778E-1	3.553603888E-1
1.641238633E1	4.352286756E-1	-2.008160353E-1	3.788780272E-1
1.642078935E1	4.454603493E-1	-1.754658818E-1	4.002576768E-1
1.642919237E1	4.544703662E-1	-1.449235082E-1	4.208737612E-1
1.643759539E1	4.630222321E-1	-1.110214889E-1	4.402681589E-1
1.644599841E1	4.715740979E-1	-6.994201243E-2	4.587462842E-1
1.645440144E1	4.792096615E-1	-1.389677543E-2	4.813476503E-1
1.646280446E1	4.798205197E-1	5.161659420E-2	5.108210444E-1
1.647120748E1	4.760027230E-1	1.221694499E-1	5.421269536E-1
1.647961050E1	4.640912116E-1	1.911951900E-1	5.667135715E-1
1.648801352E1	4.422534108E-1	2.681619525E-1	5.824428797E-1
1.649641654E1	4.246915579E-1	3.512371778E-1	5.914528370E-1
1.650481956E1	4.019374847E-1	4.146125913E-1	5.943543911E-1
1.651322258E1	3.765873313E-1	4.292729199E-1	5.873296261E-1
1.652162560E1	3.403946459E-1	4.022429287E-1	5.653391480E-1
1.653002862E1	2.965663373E-1	3.687990308E-1	5.183038712E-1
1.653843164E1	2.553341687E-1	3.292466700E-1	4.549284875E-1
1.654683466E1	2.104368806E-1	2.710634768E-1	3.816268146E-1
1.655523768E1	1.551551968E-1	2.041756958E-1	3.022166789E-1
1.656364071E1	9.666658193E-2	1.272089481E-1	2.133384049E-1
1.657204373E1	2.321219631E-2	5.772506446E-2	1.122431830E-1
1.658044675E1	-5.314370990E-2	5.971032009E-2	2.596100792E-3
1.658884977E1	-1.209477559E-1	8.276980370E-2	-9.055810422E-2
1.659725279E1	-1.921114624E-1	6.139015034E-2	-1.895153672E-1
1.660565581E1	-2.515163720E-1	1.969982497E-2	-3.136700690E-1
1.661405883E1	-2.967190444E-1	-3.344388679E-2	-4.217900336E-1
1.662246185E1	-3.529170156E-1	-9.865183383E-2	-5.222744346E-1
1.663086487E1	-4.095730782E-1	-1.243074164E-1	-6.305471063E-1
1.663926789E1	-4.283566475E-1	-1.540862173E-1	-7.180509567E-1
1.664767091E1	-4.647020400E-1	-2.379250079E-1	-8.072346449E-1
1.665607394E1	-5.120427012E-1	-3.035911024E-1	-9.142856598E-1
1.666447696E1	-5.529694557E-1	-3.242071867E-1	-9.932376146E-1
1.667287998E1	-5.879405141E-1	-2.985515893E-1	-1.069593549E0
1.668128300E1	-6.145123243E-1	-2.402156889E-1	-1.152210593E0
1.668968602E1	-6.343649030E-1	-1.751604527E-1	-1.232231617E0
1.669808904E1	-6.522321701E-1	-1.110214889E-1	-1.314237833E0
1.670649206E1	-6.581879258E-1	-3.451287001E-2	-1.394564271E0
1.671489508E1	-6.620057225E-1	4.016320780E-2	-1.468629479E0
1.672329810E1	-6.685723066E-1	9.483403713E-2	-1.533837438E0
1.673170112E1	-6.704048514E-1	1.221694499E-1	-1.598434567E0
1.674010414E1	-6.800256968E-1	1.120904684E-1	-1.660130143E0
1.674850716E1	-6.897992492E-1	1.055238619E-1	-1.722283840E0
1.675691019E1	-7.007945180E-1	9.177979827E-2	-1.767639279E0
1.676531321E1	-7.249229550E-1	4.963133857E-2	-1.816965222E0
1.677371623E1	-7.547017932E-1	-1.985253533E-3	-1.871330619E0
1.678211925E1	-7.815790772E-1	-5.176930502E-2	-1.918671250E0
1.679052227E1	-8.049439788E-1	-7.269082218E-2	-1.964484811E0
1.679892529E1	-8.296833038E-1	-8.521319181E-2	-2.014268875E0
