"Time (s)"	"Acceleration x (m/s^2)"	"Acceleration y (m/s^2)"	"Acceleration z (m/s^2)"
4.197478900E-2	-7.980063558E-1	9.739984512E0	-6.963114142E-1
5.037781000E-2	-7.537391186E-1	9.746564865E0	-6.987041831E-1
5.878083100E-2	-7.004988194E-1	9.735198975E0	-6.885347366E-1
6.718385100E-2	-7.645068169E-1	9.679565430E0	-7.722834945E-1
7.558687200E-2	-8.931210637E-1	9.615557671E0	-7.950153351E-1
8.398989300E-2	-9.942178130E-1	9.591629982E0	-8.069794178E-1
9.239291400E-2	-1.014556766E0	9.615557671E0	-7.106683254E-1
1.007959350E-1	-9.487541914E-1	9.672985077E0	-6.460621357E-1
1.091989560E-1	-8.673982024E-1	9.746564865E0	-6.412764788E-1
1.176019760E-1	-7.728816867E-1	9.830911636E0	-7.806583643E-1
1.260049970E-1	-7.848458290E-1	9.832706451E0	-8.045865893E-1
1.344080180E-1	-8.458628058E-1	9.728020668E0	-8.147560954E-1
1.428110390E-1	-9.092726111E-1	9.624530792E0	-8.015955687E-1
1.512140600E-1	-9.457631707E-1	9.618548393E0	-8.231309652E-1
1.596170810E-1	-9.792626500E-1	9.661021233E0	-8.811569214E-1
1.680201010E-1	-1.030110121E0	9.698110580E0	-8.398807645E-1
1.764231220E-1	-9.900303483E-1	9.728020668E0	-7.202396393E-1
1.848261430E-1	-8.703892231E-1	9.765707016E0	-6.939185858E-1
1.932291640E-1	-8.189435601E-1	9.772287369E0	-6.119644046E-1
2.016321850E-1	-7.980063558E-1	9.763314247E0	-6.598208547E-1
2.100352060E-1	-7.968099117E-1	9.754940033E0	-7.800601721E-1
2.184382260E-1	-7.938188910E-1	9.785448074E0	-8.303094506E-1
2.268412470E-1	-8.249256015E-1	9.760323524E0	-8.775677085E-1
2.352442680E-1	-8.285148144E-1	9.746564865E0	-8.488538265E-1
2.436472890E-1	-8.051848412E-1	9.714262009E0	-7.866404653E-1
2.520503100E-1	-9.194421172E-1	9.578469276E0	-8.111668825E-1
2.604533310E-1	-1.009771109E0	9.623334885E0	-7.938188910E-1
2.688563510E-1	-1.030110121E0	9.672985077E0	-7.818548083E-1
2.772593720E-1	-9.343972206E-1	9.730413437E0	-7.423732281E-1
2.856623930E-1	-8.488538265E-1	9.734002113E0	-7.998009920E-1
2.940654140E-1	-7.854440212E-1	9.844072342E0	-8.823533654E-1
3.024684350E-1	-7.495517135E-1	9.899106979E0	-8.763712645E-1
3.108714560E-1	-7.609176040E-1	9.854840279E0	-7.651050687E-1
3.192744760E-1	-7.674978375E-1	9.770493507E0	-7.357929349E-1
3.276774970E-1	-7.944171429E-1	9.714262009E0	-7.872386575E-1
3.360805180E-1	-8.554341197E-1	9.660423279E0	-7.872386575E-1
3.444835390E-1	-9.481559992E-1	9.655039787E0	-7.860422134E-1
3.528865600E-1	-9.972088337E-1	9.638887405E0	-7.764709592E-1
3.612895810E-1	-9.254241586E-1	9.667601585E0	-7.298108935E-1
3.696926010E-1	-8.303094506E-1	9.703494072E0	-7.184450030E-1
3.780956220E-1	-7.842476368E-1	9.756135941E0	-7.196413875E-1
3.864986430E-1	-7.914260626E-1	9.775279045E0	-7.148557901E-1
3.949016640E-1	-8.500502706E-1	9.781859398E0	-6.921239495E-1
4.033046850E-1	-8.596215248E-1	9.729216576E0	-6.897311211E-1
4.117077060E-1	-8.315058947E-1	9.692726135E0	-6.681957245E-1
4.201107260E-1	-8.267202377E-1	9.664012909E0	-7.046862841E-1
4.285137470E-1	-8.949156404E-1	9.631111145E0	-7.148557901E-1
4.369167680E-1	-9.541380405E-1	9.620942116E0	-7.381857634E-1
4.453197890E-1	-9.804590940E-1	9.653842926E0	-7.603194118E-1
4.537228100E-1	-9.625129104E-1	9.710672379E0	-7.986045480E-1
4.621258310E-1	-9.248259664E-1	9.766903877E0	-8.273184299E-1
4.705288510E-1	-8.656035662E-1	9.791430473E0	-8.093722463E-1
4.789318720E-1	-8.321040869E-1	9.729815483E0	-7.082754970E-1
4.873348930E-1	-8.374879360E-1	9.735198975E0	-7.573283911E-1
4.957379140E-1	-8.691928387E-1	9.713663101E0	-7.369893789E-1
5.041409350E-1	-9.068797827E-1	9.722038269E0	-7.088736892E-1
5.125439560E-1	-9.415757060E-1	9.737591743E0	-8.105686903E-1
5.209469760E-1	-9.672985673E-1	9.770493507E0	-8.213363886E-1
5.293499970E-1	-1.053440213E0	9.742975235E0	-8.171489239E-1
5.377530180E-1	-1.144965649E0	9.696315765E0	-8.602197170E-1
5.461560390E-1	-1.168295622E0	9.686145782E0	-8.285148144E-1
5.545590600E-1	-1.035493970E0	9.722636223E0	-7.776673436E-1
5.629620810E-1	-9.493523836E-1	9.797411919E0	-7.274180651E-1
5.713651010E-1	-1.012163997E0	9.784850121E0	-6.867401004E-1
5.797681220E-1	-1.217946768E0	9.667003632E0	-6.562315822E-1
5.881711430E-1	-1.180858016E0	9.686744690E0	-6.592226624E-1
5.965741640E-1	-9.804590940E-1	9.809974670E0	-5.970092416E-1
6.049771850E-1	-8.578268886E-1	9.722038269E0	-5.844469070E-1
6.133802060E-1	-2.044068813E0	8.562715530E0	-1.436890006E0
6.217832260E-1	-1.245464206E0	9.846465111E0	1.615155302E-2
6.301862470E-1	-6.879364848E-1	1.013300610E1	-5.126622319E-1
6.385892680E-1	-1.310070455E-1	1.019581699E1	-9.792626500E-1
6.469922890E-1	1.495514158E-2	9.181859016E0	-8.973084688E-1
6.553953100E-1	1.351944804E-1	8.484949112E0	-9.571290575E-3
6.637983310E-1	2.231307179E-1	9.605388641E0	2.620140910E-1
6.722013510E-1	-3.948157430E-1	1.021555805E1	-2.452643216E-2
6.806043720E-1	-1.325623751E0	1.038664532E1	-8.303094506E-1
6.890073930E-1	-1.673181176E0	1.014855862E1	-1.561316729E0
6.974104140E-1	-1.571486235E0	9.838688850E0	-1.651047587E0
7.058134350E-1	-1.327418327E0	9.640682220E0	-1.191625714E0
7.142164560E-1	-9.720842242E-1	9.540781975E0	-5.826523304E-1
7.226194760E-1	-6.089733839E-1	9.553942680E0	-3.128615618E-1
7.310224970E-1	-3.708875179E-1	9.676574707E0	-6.233302951E-1
7.394255180E-1	-3.667000830E-1	9.750154495E0	-1.015753269E0
7.478285390E-1	-4.983053207E-1	9.798010826E0	-1.182054400E0
7.562315600E-1	-5.760720372E-1	9.839884758E0	-1.254437327E0
7.646345810E-1	-6.125625968E-1	9.824930191E0	-1.186840057E0
7.730376010E-1	-5.976074338E-1	9.768099785E0	-1.092921734E0
7.814406220E-1	-5.036891699E-1	9.777072906E0	-1.087537885E0
7.898436430E-1	-4.887340367E-1	9.774082184E0	-1.096511006E0
7.982466640E-1	-4.953143001E-1	9.747760773E0	-1.054636598E0
8.066496850E-1	-4.833501875E-1	9.760323524E0	-9.828519225E-1
8.150527060E-1	-4.881358147E-1	9.732806206E0	-9.439685345E-1
8.234557260E-1	-5.054838061E-1	9.744770050E0	-9.164510965E-1
8.318587470E-1	-5.096712112E-1	9.755537987E0	-9.074779749E-1
8.402617680E-1	-5.216353536E-1	9.742377281E0	-8.811569214E-1
8.486647890E-1	-5.515456200E-1	9.745368004E0	-8.632107973E-1
8.570678100E-1	-5.976074338E-1	9.726823807E0	-8.362914920E-1
8.654708310E-1	-6.418746710E-1	9.695118904E0	-8.207381964E-1
8.738738510E-1	-6.556333899E-1	9.699904442E0	-8.009973764E-1
8.822768720E-1	-6.532405615E-1	9.714859962E0	-8.536394835E-1
8.906798930E-1	-6.592226624E-1	9.734002113E0	-8.757730722E-1
8.990829140E-1	-6.382854581E-1	9.729815483E0	-8.470591903E-1
9.074859350E-1	-5.862415433E-1	9.731609344E0	-8.452646136E-1
9.158889560E-1	-5.204389095E-1	9.734002113E0	-8.673982024E-1
9.242919760E-1	-4.797609448E-1	9.730413437E0	-9.134600163E-1
9.326949970E-1	-4.959124923E-1	9.717850685E0	-9.589236975E-1
9.410980180E-1	-5.653043389E-1	9.731011391E0	-9.553344250E-1
9.495010390E-1	-6.556333899E-1	9.745368004E0	-9.092726111E-1
9.579040600E-1	-6.987041831E-1	9.738189697E0	-8.566305041E-1
9.663070810E-1	-6.951149702E-1	9.731609344E0	-8.338986635E-1
9.747101010E-1	-6.293123364E-1	9.715457916E0	-8.608179688E-1
9.831131220E-1	-5.665007830E-1	9.720243454E0	-9.002995491E-1
9.915161430E-1	-5.503492355E-1	9.725028992E0	-9.164510965E-1
9.999191640E-1	-5.210371017E-1	9.724431038E0	-8.721838593E-1
1.008322185E0	-5.204389095E-1	9.705288887E0	-8.476574421E-1
1.016725206E0	-5.365904570E-1	9.722636223E0	-9.248259664E-1
1.025128226E0	-5.647061467E-1	9.772287369E0	-1.004387259E0
1.033531247E0	-5.461617708E-1	9.797411919E0	-9.463613629E-1
1.041934268E0	-5.294120312E-1	9.768099785E0	-7.477570772E-1
1.050337289E0	-5.557330847E-1	9.689735413E0	-6.137589812E-1
1.058740310E0	-5.988038778E-1	9.675378799E0	-7.202396393E-1
1.067143331E0	-5.880361795E-1	9.708877563E0	-8.255237937E-1
1.075546351E0	-5.270192027E-1	9.759127617E0	-8.943174481E-1
1.083949372E0	-5.234299302E-1	9.716055870E0	-8.129615188E-1
1.092352393E0	-5.306084156E-1	9.689735413E0	-7.555337548E-1
1.100755414E0	-5.838487148E-1	9.673583984E0	-7.417750359E-1
1.109158435E0	-6.179464459E-1	9.690333366E0	-7.399803996E-1
1.117561456E0	-6.436693072E-1	9.710074425E0	-6.999006271E-1
1.125964476E0	-6.843472719E-1	9.717850685E0	-7.142575383E-1
1.134367497E0	-7.322037220E-1	9.746564865E0	-7.531409264E-1
1.142770518E0	-7.190431952E-1	9.750752449E0	-8.602197170E-1
1.151173539E0	-7.280163169E-1	9.742975235E0	-9.044869542E-1
1.159576560E0	-7.603194118E-1	9.716055870E0	-8.769695163E-1
1.167979581E0	-7.902296782E-1	9.698110580E0	-8.135597110E-1
1.176382601E0	-7.926225066E-1	9.680762291E0	-7.441678643E-1
1.184785622E0	-7.716853023E-1	9.660423279E0	-6.879364848E-1
1.193188643E0	-7.268198729E-1	9.638887405E0	-7.028916478E-1
1.201591664E0	-6.604190469E-1	9.637093544E0	-6.999006271E-1
1.209994685E0	-6.179464459E-1	9.696913719E0	-6.640082598E-1
1.218397706E0	-6.305087805E-1	9.720842361E0	-6.999006271E-1
1.226800726E0	-6.424728632E-1	9.671789169E0	-8.285148144E-1
1.235203747E0	-6.741777658E-1	9.663414001E0	-9.523434043E-1
1.243606768E0	-6.616154313E-1	9.671789169E0	-9.062815905E-1
1.252009789E0	-5.419743061E-1	9.676574707E0	-7.758727670E-1
1.260412810E0	-4.223332107E-1	9.674181938E0	-6.233302951E-1
1.268815831E0	-2.985046208E-1	9.677172661E0	-6.484549642E-1
1.277218851E0	-2.063809484E-1	9.659226418E0	-8.578268886E-1
1.285621872E0	-1.316052526E-1	9.668199539E0	-1.056431174E0
1.294024893E0	-7.657032460E-2	9.734601021E0	-1.147358418E0
1.302427914E0	-1.256231815E-1	9.762118340E0	-1.070788145E0
1.310830935E0	-2.901297510E-1	9.728618622E0	-1.071984529E0
1.319233956E0	-4.498506486E-1	9.666405678E0	-1.350748420E0
1.327636976E0	-4.348955154E-1	9.692726135E0	-1.582253933E0
1.336039997E0	-2.087737769E-1	9.775279045E0	-1.628315806E0
1.344443018E0	2.452643216E-2	9.784252167E0	-1.579861164E0
1.352846039E0	3.050848842E-2	9.684949875E0	-1.485344648E0
1.361249060E0	-1.513460279E-1	9.629316330E0	-1.497906923E0
1.369652081E0	-4.115654826E-1	9.686145782E0	-1.467996716E0
1.378055101E0	-5.856433511E-1	9.736394882E0	-1.365703583E0
1.386458122E0	-6.059823632E-1	9.737591743E0	-1.337587833E0
1.394861143E0	-5.174478889E-1	9.682557106E0	-1.353739381E0
1.403264164E0	-3.804588020E-1	9.650852203E0	-1.290329576E0
1.411667185E0	-3.068794906E-1	9.620942116E0	-1.030110121E0
1.420070206E0	-2.991028428E-1	9.592227936E0	-8.297112584E-1
1.428473226E0	-4.319044948E-1	9.586843491E0	-8.123632669E-1
1.436876247E0	-6.406782866E-1	9.672985077E0	-9.379864931E-1
1.445279268E0	-7.692924738E-1	9.739386559E0	-1.121037364E0
1.453682289E0	-7.525427341E-1	9.705886841E0	-1.267597795E0
1.462085310E0	-6.257231236E-1	9.622138023E0	-1.295713425E0
1.470488331E0	-5.054838061E-1	9.617352486E0	-1.092323542E0
1.478891351E0	-4.588237405E-1	9.622138023E0	-9.649057388E-1
1.487294372E0	-4.695914388E-1	9.635896683E0	-8.919246197E-1
1.495697393E0	-4.582255483E-1	9.662816048E0	-9.589236975E-1
1.504100414E0	-3.954139352E-1	9.726225853E0	-1.163509965E0
1.512503435E0	-3.032902777E-1	9.842277527E0	-1.214357495E0
1.520906456E0	-1.686939895E-1	9.934999466E0	-1.139581800E0
1.529309476E0	-1.100698411E-1	9.842277527E0	-1.158126116E0
1.537712497E0	-1.417747438E-1	9.604789734E0	-1.378864050E0
1.546115518E0	-2.799602449E-1	9.483354568E0	-1.497906923E0
1.554518539E0	-4.827519655E-1	9.508479118E0	-1.549950838E0
1.562921560E0	-5.850451589E-1	9.696315765E0	-1.869990945E0
1.571324581E0	-5.012963414E-1	9.915857315E0	-2.172683001E0
1.579727601E0	-2.793620527E-1	9.986445427E0	-2.248655081E0
1.588130622E0	-1.387837082E-1	9.906285286E0	-2.083550215E0
1.596533643E0	-1.848455518E-1	9.802198410E0	-1.854437590E0
1.604936664E0	-3.445664644E-1	9.747760773E0	-1.751546144E0
1.613339685E0	-5.090730190E-1	9.765109062E0	-1.792224169E0
1.621742706E0	-5.886343718E-1	9.854840279E0	-1.871187329E0
1.630145726E0	-5.000999570E-1	9.987043381E0	-1.978266120E0
1.638548747E0	-2.703889608E-1	1.015334511E1	-2.081755638E0
1.646951768E0	-4.187439568E-3	1.030409241E1	-2.018944025E0
1.655354789E0	2.231307179E-1	1.034417248E1	-1.816152334E0
1.663757810E0	3.224328458E-1	1.024367332E1	-1.613360643E0
1.672160831E0	2.237289101E-1	1.011266708E1	-1.336989641E0
1.680563851E0	-7.417750359E-2	9.951749802E0	-1.121037364E0
1.688966872E0	-3.936193287E-1	9.862616539E0	-9.684949517E-1
1.697369893E0	-6.089733839E-1	9.865608215E0	-8.620143533E-1
1.705772914E0	-5.964110494E-1	1.007258701E1	-7.477570772E-1
1.714175935E0	-3.547359705E-1	1.029990482E1	-7.298108935E-1
1.722578956E0	-3.714857101E-1	1.061157036E1	-3.481557071E-1
1.730981976E0	-6.346961856E-1	1.070608711E1	-6.077769399E-1
1.739384997E0	-7.196413875E-1	1.068634605E1	-1.286142230E0
1.747788018E0	-5.958128572E-1	1.052243805E1	-1.174277663E0
1.756191039E0	6.101697683E-2	1.039083195E1	-1.123430252E0
1.764594060E0	1.016351461E0	1.056311512E1	-9.056833982E-1
1.772997081E0	1.700698733E0	1.072821999E1	-3.672982752E-1
1.781400101E0	1.731207132E0	1.045424175E1	-4.905286431E-1
1.789803122E0	1.059422255E0	1.007856941E1	-9.930213690E-1
1.798206143E0	-6.460621208E-2	9.687342644E0	-1.528415442E0
1.806609164E0	-1.124028444E0	9.394820213E0	-2.008774519E0
1.815012185E0	-1.776072621E0	9.269196510E0	-1.907079697E0
1.823415206E0	-1.879562140E0	9.260223389E0	-1.450050473E0
1.831818226E0	-1.499103427E0	9.299106598E0	-1.033699393E0
1.840221247E0	-8.907282352E-1	9.351150513E0	-7.483552694E-1
1.848624268E0	-4.546363056E-1	9.406784058E0	-4.396811724E-1
1.857027289E0	-4.468596280E-1	9.455837250E0	-2.303091735E-1
1.865430310E0	-8.434699774E-1	9.500103951E0	-1.692921966E-1
1.873833331E0	-1.333998680E0	9.564111710E0	-2.446661144E-1
1.882236351E0	-1.786242127E0	9.562915802E0	-6.364908218E-1
1.890639372E0	-2.284547329E0	9.481559753E0	-1.375274777E0
1.899042393E0	-2.771486759E0	9.407382011E0	-1.913659930E0
1.907445414E0	-3.030509949E0	9.305686951E0	-2.226521492E0
1.915848435E0	-2.804986238E0	9.254241943E0	-2.310270309E0
1.924251456E0	-2.061416626E0	9.325428009E0	-2.124228239E0
1.932654476E0	-1.135992527E0	9.441479683E0	-1.862214208E0
1.941057497E0	-3.720839322E-1	9.534201622E0	-1.583450437E0
1.949460518E0	2.039881349E-1	9.512666702E0	-1.442273855E0
1.957863539E0	5.712863803E-1	9.373882294E0	-1.645663738E0
1.966266560E0	6.406782866E-1	9.218947411E0	-1.963310957E0
1.974669581E0	4.426721931E-1	9.107083321E0	-2.295315027E0
1.983072601E0	3.768695518E-2	9.018548965E0	-2.429911375E0
1.991475622E0	-3.176472187E-1	9.021539688E0	-2.513660192E0
1.999878643E0	-3.942175210E-1	9.111269951E0	-2.659024239E0
2.008281664E0	-1.513460279E-1	9.262018204E0	-2.635694027E0
2.016684685E0	2.931207716E-1	9.414560318E0	-2.507079840E0
2.025087706E0	6.664010882E-1	9.507282257E0	-2.392822742E0
2.033490726E0	8.608179688E-1	9.564710617E0	-2.407179594E0
2.041893747E0	8.075776696E-1	9.451051712E0	-2.701496840E0
2.050296768E0	4.971089065E-1	9.368498802E0	-2.973082066E0
2.058699789E0	7.357929647E-2	9.356534958E0	-3.064607620E0
2.067102810E0	-1.268195957E-1	9.562317848E0	-3.008974552E0
2.075505831E0	-2.991028363E-3	9.626923561E0	-3.238685369E0
2.083908851E0	4.366901219E-1	9.572486877E0	-3.138785124E0
2.092311872E0	9.379864931E-1	9.448657990E0	-2.843271494E0
2.100714893E0	1.409372568E0	9.320642471E0	-2.786442041E0
2.109117914E0	1.862214208E0	9.340981483E0	-2.919841766E0
2.117520935E0	2.126022816E0	9.303294182E0	-2.749353170E0
2.125923956E0	2.224128723E0	9.286544800E0	-2.185245275E0
2.134326976E0	2.238485575E0	9.236893654E0	-2.262413740E0
2.142729997E0	2.256431818E0	9.215357780E0	-2.651845694E0
2.151133018E0	2.400599241E0	9.285946846E0	-2.755335331E0
2.159536039E0	2.816950560E0	9.387042999E0	-2.961716175E0
2.167939060E0	3.206980467E0	9.442676544E0	-2.934797049E0
2.176342081E0	3.500101328E0	9.338588715E0	-2.676372051E0
2.184745101E0	3.792025566E0	9.012566566E0	-2.782852650E0
2.193148122E0	4.202992916E0	8.697312355E0	-3.004188776E0
2.201551143E0	4.667200565E0	8.707481384E0	-2.836092949E0
2.209954164E0	4.947160721E0	9.004789352E0	-2.608774900E0
2.218357185E0	4.530809879E0	9.264410973E0	-2.109273195E0
2.226760206E0	3.239283562E0	9.239286423E0	-1.792822361E0
2.235163226E0	1.630110383E0	9.053244591E0	-1.890329838E0
2.243566247E0	1.830509305E-1	8.879166603E0	-1.893919110E0
2.251969268E0	-7.363911867E-1	8.972486496E0	-1.589432478E0
2.260372289E0	-8.488538265E-1	9.348159790E0	-1.369890928E0
2.268775310E0	-3.098705411E-1	9.920044899E0	-1.409372568E0
2.277178331E0	4.989035130E-1	1.053619671E1	-1.409372568E0
2.285581351E0	1.193420291E0	1.097767162E1	-1.095314622E0
2.293984372E0	1.504487276E0	1.098843956E1	-5.874379873E-1
2.302387393E0	1.516451359E0	1.068455124E1	-3.074777126E-1
2.310790414E0	1.246660590E0	1.023410225E1	-3.332005441E-1
2.319193435E0	8.739784956E-1	9.795019150E0	-6.059823632E-1
2.327596456E0	7.190431952E-1	9.535398483E0	-1.010369420E0
2.335999476E0	1.089332461E0	9.534799576E0	-1.655235052E0
2.344402497E0	1.987239242E0	9.676574707E0	-2.160718918E0
2.352805518E0	2.851048231E0	9.444471359E0	-1.919641972E0
2.361208539E0	3.459423304E0	9.306285858E0	-1.241276741E0
2.369611560E0	3.705285788E0	9.448060036E0	-9.649057388E-1
2.378014581E0	3.348755360E0	9.478569031E0	-1.204187989E0
2.386417601E0	2.688934565E0	9.334401131E0	-8.380861282E-1
2.394820622E0	2.184048891E0	9.333803177E0	-5.036891699E-1
2.403223643E0	1.884945989E0	9.612566948E0	-4.576273263E-1
2.411626664E0	1.578664780E0	1.004806042E1	-6.825526357E-1
2.420029685E0	1.414158225E0	1.047039413E1	-6.472585201E-1
2.428432706E0	1.482353687E0	1.059422207E1	-7.405785918E-1
2.436835726E0	1.655833244E0	1.029990482E1	-5.527420044E-1
2.445238747E0	1.725823283E0	9.996016502E0	4.725824669E-2
2.453641768E0	1.707877159E0	9.867402077E0	5.306084156E-1
2.462044789E0	1.635494232E0	9.792626381E0	6.783652306E-1
2.470447810E0	1.580459356E0	9.721440315E0	6.239284873E-1
2.478850831E0	1.601396561E0	9.613164902E0	5.653043389E-1
2.487253851E0	1.580459356E0	9.479166985E0	4.941178858E-1
2.495656872E0	1.527219057E0	9.418149948E0	5.407779217E-1
2.504059893E0	1.572682738E0	9.369695663E0	4.666004181E-1
2.512462914E0	1.599601984E0	9.351749420E0	1.651047617E-1
2.520865935E0	1.522433400E0	9.437891006E0	-1.884347796E-1
2.529268956E0	1.318445325E0	9.505488396E0	-2.703889608E-1
2.537671976E0	1.083948612E0	9.543174744E0	-2.919243574E-1
2.546074997E0	9.230313301E-1	9.725028992E0	-3.451646566E-1
2.554478018E0	8.560323119E-1	9.982257843E0	-7.836493850E-2
2.562881039E0	9.367900491E-1	9.998409271E0	2.763710022E-1
2.571284060E0	1.006181955E0	9.868598938E0	1.986042857E-1
2.579687081E0	9.714859724E-1	9.754341125E0	3.308077157E-1
2.588090101E0	9.541380405E-1	9.638289452E0	6.484549642E-1
2.596493122E0	1.095314622E0	9.594022751E0	4.624129832E-1
2.604896143E0	1.275374413E0	9.672985077E0	3.206382394E-1
2.613299164E0	1.414158225E0	9.745966911E0	3.074777126E-1
2.621702185E0	1.671984792E0	9.773484230E0	5.084748194E-2
2.630105206E0	1.898704767E0	9.805787086E0	-1.214357466E-1
2.638508226E0	1.913659930E0	9.754341125E0	-3.230310604E-2
2.646911247E0	1.777867198E0	9.722636223E0	-4.905286431E-2
2.655314268E0	1.646860242E0	9.787840843E0	-1.256231871E-2
2.663717289E0	1.673779488E0	9.782457352E0	-1.914258115E-2
2.672120310E0	1.824527264E0	9.760323524E0	1.974078640E-2
2.680523331E0	1.950150490E0	9.760921478E0	1.860419661E-1
2.688926351E0	2.070987940E0	9.714262009E0	2.476571500E-1
2.697329372E0	2.184048891E0	9.641879082E0	1.579262912E-1
2.705732393E0	2.229512453E0	9.570692062E0	9.810572863E-2
2.714135414E0	2.143969059E0	9.534201622E0	1.866401732E-1
2.722538435E0	2.003390789E0	9.613762856E0	1.357926875E-1
2.730941456E0	1.852044702E0	9.734002113E0	-2.392822644E-3
2.739344476E0	1.731805444E0	9.798608780E0	-3.230310604E-2
2.747747497E0	1.537986755E0	9.739386559E0	4.067798331E-2
2.756150518E0	1.328614831E0	9.607182503E0	7.896314561E-2
2.764553539E0	1.241276741E0	9.528818130E0	1.567298770E-1
2.772956560E0	1.205384374E0	9.514460564E0	1.196411327E-1
2.781359581E0	1.143769264E0	9.594022751E0	-5.204389244E-2
2.789762601E0	1.083948612E0	9.740582466E0	2.871387079E-2
2.798165622E0	1.097109199E0	9.807581902E0	3.014956415E-1
2.806568643E0	1.100100160E0	9.717850685E0	4.414757788E-1
2.814971664E0	1.118046403E0	9.583852768E0	3.110669553E-1
2.823374685E0	1.134796143E0	9.542576790E0	1.974078715E-1
2.831777706E0	1.129412293E0	9.544969559E0	2.614158690E-1
2.840180726E0	1.166501045E0	9.541978836E0	2.638086975E-1
2.848583747E0	1.243071318E0	9.585647583E0	3.266202807E-1
2.856986768E0	1.222134113E0	9.659226418E0	6.484549642E-1
2.865389789E0	1.133599758E0	9.652048111E0	6.035895348E-1
2.873792810E0	1.091127157E0	9.617352486E0	4.384847581E-1
2.882195831E0	1.081555843E0	9.546165466E0	4.689932466E-1
2.890598851E0	1.021735311E0	9.437891006E0	4.725824594E-1
2.899001872E0	9.296116233E-1	9.473783493E0	1.435693651E-1
2.907404893E0	9.164510965E-1	9.702297211E0	1.280160099E-1
2.915807914E0	9.655039310E-1	9.831509590E0	1.495514214E-1
2.924210935E0	1.109671474E0	9.836894035E0	1.854437590E-1
2.932613956E0	1.270588875E0	9.816555023E0	2.715853751E-1
2.941016976E0	1.276570916E0	9.747162819E0	3.337987661E-1
2.949419997E0	1.165304661E0	9.643074989E0	4.313062727E-1
2.957823018E0	1.042672515E0	9.542576790E0	5.126622319E-1
2.966226039E0	1.036690354E0	9.524630547E0	4.181457460E-1
2.974629060E0	1.173081279E0	9.626325607E0	3.780659735E-1
2.983032081E0	1.199402332E0	9.838089943E0	6.233302951E-1
2.991435101E0	1.098305583E0	1.035852909E1	1.243071318E0
2.999838122E0	1.103091240E0	1.093041420E1	1.526620865E0
3.008241143E0	1.018744230E0	1.119362450E1	1.414756417E0
3.016644164E0	7.190431952E-1	1.110150051E1	8.961120844E-1
3.025047185E0	5.054838061E-1	1.108175945E1	1.136590764E-1
3.033450206E0	5.814558864E-1	1.155434227E1	-2.225325108E-1
3.041853226E0	8.614161611E-1	1.211426258E1	-5.090730190E-1
3.050256247E0	1.053440213E0	1.219262791E1	-7.136593461E-1
3.058659268E0	1.430309772E0	1.233500099E1	-7.615157962E-1
3.067062289E0	1.392622828E0	1.306660652E1	3.026920557E-1
3.075465310E0	2.416750938E-1	1.306002617E1	2.787638307E-1
3.083868331E0	-8.901300430E-1	1.221775246E1	-1.046261668E0
3.092271351E0	-1.173081279E0	1.159681511E1	-1.881955028E0
3.100674372E0	-6.658028960E-1	1.138804150E1	-1.498505235E0
3.109077393E0	1.890329868E-1	1.139103222E1	-1.061815023E0
3.117480414E0	1.174277663E0	1.146879864E1	-1.207179070E0
3.125883435E0	2.207378864E0	1.152203941E1	-1.173081279E0
3.134286456E0	3.200998545E0	1.139821053E1	-4.923232496E-1
3.142689476E0	4.295116425E0	1.102732277E1	-1.459621787E-1
3.151092497E0	5.118845940E0	1.084606647E1	1.854437590E-1
3.159495518E0	5.118845940E0	1.056251717E1	-6.879365444E-2
3.167898539E0	4.216153622E0	1.021436119E1	-4.612165689E-1
3.176301560E0	3.071786165E0	9.735198975E0	-8.237292171E-1
3.184704581E0	2.180459738E0	9.264410973E0	-1.249651670E0
3.193107601E0	1.657627940E0	8.925827026E0	-1.183848977E0
3.201510622E0	1.465603828E0	8.626724243E0	-1.108475089E0
3.209913643E0	1.494915962E0	8.529216766E0	-1.027717352E0
3.218316664E0	1.522433400E0	8.481958389E0	-8.644071817E-1
3.226719685E0	1.334596872E0	8.337192535E0	-9.505487680E-1
3.235122706E0	1.089930773E0	8.111668587E0	-1.114457130E0
3.243525726E0	1.112064362E0	8.093722343E0	-1.179063320E0
3.251928747E0	1.724626899E0	7.657630444E0	-7.142575383E-1
3.260331768E0	3.343969584E0	7.125825882E0	-1.094716311E0
3.268734789E0	4.512863636E0	7.174280643E0	-6.203392744E-1
3.277137810E0	4.542773724E0	7.416553974E0	-7.740781307E-1
3.285540831E0	3.442075491E0	7.739584923E0	-9.272187948E-1
3.293943851E0	1.927418590E0	7.899903774E0	-1.019342422E0
3.302346872E0	4.097708762E-1	7.631309509E0	-1.106680512E0
3.310749893E0	-3.894318938E-1	7.219145775E0	-1.811964989E0
3.319152914E0	-2.584248483E-1	7.256234646E0	-2.027917147E0
3.327555935E0	3.463610709E-1	7.380661488E0	-1.723430514E0
3.335958956E0	1.152144074E0	7.519444942E0	-1.489532113E0
3.344361976E0	2.014158487E0	7.817351341E0	-1.206580877E0
3.352764997E0	2.869592667E0	8.255238533E0	-1.137188911E0
3.361168018E0	3.389433384E0	8.572287560E0	-9.696913958E-1
3.369571039E0	3.403192043E0	8.663214684E0	-6.532405615E-1
3.377974060E0	2.982055187E0	8.671588898E0	-6.239284873E-1
3.386377081E0	2.380858421E0	8.741579056E0	-8.309076428E-1
3.394780101E0	1.941177368E0	8.820542336E0	-1.171884894E0
3.403183122E0	1.904686809E0	8.976674080E0	-1.371087432E0
3.411586143E0	2.178664923E0	9.325428009E0	-1.150349498E0
3.419989164E0	2.452044964E0	9.640084267E0	-8.309076428E-1
3.428392185E0	2.587837696E0	9.747162819E0	-6.699903607E-1
3.436795206E0	2.669193745E0	9.879964828E0	-8.362914920E-1
3.445198226E0	2.763710260E0	9.996614456E0	-1.128215909E0
3.453601247E0	2.947957516E0	1.013898754E1	-1.256830096E0
3.462004268E0	3.170490026E0	1.025623608E1	-1.056431174E0
3.470407289E0	3.464209080E0	1.029990482E1	-9.146564603E-1
3.478810310E0	3.739981890E0	1.039083195E1	-7.776673436E-1
3.487213331E0	3.993621111E0	1.046261692E1	-7.812566161E-1
3.495616351E0	4.215555191E0	1.042911720E1	-9.487541914E-1
3.504019372E0	4.301696777E0	1.048893833E1	-9.206385016E-1
3.512422393E0	4.217350006E0	1.059601688E1	-8.350951076E-1
3.520825414E0	4.067200184E0	1.066241741E1	-8.985049129E-1
3.529228435E0	4.083950043E0	1.071984577E1	-8.991031051E-1
3.537631456E0	4.185046673E0	1.080897808E1	-8.105686903E-1
3.546034476E0	4.256233215E0	1.088315582E1	-5.611169338E-1
3.554437497E0	4.188037872E0	1.098006535E1	-5.210371017E-1
3.562840518E0	4.005585194E0	1.073779202E1	-6.143572330E-1
3.571243539E0	3.835096598E0	1.049791145E1	-5.784648657E-1
3.579646560E0	3.771088600E0	1.024008465E1	-4.881358147E-1
3.588049581E0	3.671786308E0	9.924830437E0	-4.289134443E-1
3.596452601E0	3.705285788E0	9.586245537E0	7.477571070E-2
3.604855622E0	3.954139471E0	9.078369141E0	2.225325108E-1
3.613258643E0	4.441677094E0	8.743971825E0	2.542374134E-1
3.621661664E0	4.883152962E0	8.699107170E0	-1.812563092E-1
3.630064685E0	4.972285271E0	8.918647766E0	-2.847459018E-1
3.638467706E0	4.615156651E0	9.198608398E0	-2.524427772E-1
3.646870726E0	3.957130432E0	9.454042435E0	-1.746760458E-1
3.655273747E0	3.190230846E0	9.288339615E0	-7.645068169E-1
3.663676768E0	2.498106956E0	9.013164520E0	-3.696911037E-1
3.672079789E0	2.158924341E0	8.903095245E0	-2.392822644E-3
3.680482810E0	2.103291035E0	8.695517540E0	-5.629115105E-1
3.688885831E0	2.250449657E0	8.542975426E0	-5.778666735E-1
3.697288851E0	2.415554523E0	8.630910873E0	-5.503492057E-2
3.705691872E0	2.657827854E0	8.521439552E0	-2.937189937E-1
3.714094893E0	3.040081263E0	8.373682976E0	-8.560323119E-1
3.722497914E0	3.388834953E0	8.433503151E0	-7.704889178E-1
3.730900935E0	3.543770313E0	8.609973907E0	-2.033899277E-1
3.739303956E0	3.559323788E0	8.685347557E0	8.135596663E-2
3.747706976E0	3.346362352E0	8.624331474E0	1.459621787E-1
3.756109997E0	2.970091105E0	8.736793518E0	8.009973764E-1
3.764513018E0	2.400599241E0	8.920442581E0	4.953143001E-1
3.772916039E0	1.932204247E0	9.136993408E0	1.262213886E-1
3.781319060E0	1.591227055E0	9.314660072E0	-2.015953064E-1
3.789722081E0	1.323230863E0	9.269794464E0	-2.877369225E-1
3.798125101E0	1.213759303E0	9.100502968E0	-2.799602449E-1
3.806528122E0	1.431506157E0	8.913264275E0	-2.087737769E-1
3.814931143E0	1.936989903E0	8.796015739E0	-4.247260094E-2
3.823334164E0	2.633301258E0	8.732007980E0	-4.959124923E-1
3.831737185E0	3.206980467E0	8.984451294E0	-9.373882413E-1
3.840140206E0	3.455235958E0	9.926624298E0	-1.947159410E0
3.848543226E0	3.130410194E0	1.211545944E1	-3.549752474E0
3.856946247E0	1.234098315E0	1.454357624E1	-3.387638569E0
3.865349268E0	-2.024926186E0	1.558923912E1	-2.840280533E0
3.873752289E0	-5.792425632E0	1.479960823E1	-1.754537225E0
3.882155310E0	-8.541778564E0	1.201196957E1	-1.406979680E0
3.890558331E0	-8.507680893E0	8.855237961E0	-2.242672920E0
3.898961351E0	-6.276971817E0	7.401598454E0	-2.375474691E0
3.907364372E0	-3.156731367E0	7.929215908E0	-2.041675806E0
3.915767393E0	-2.141576260E-1	9.314660072E0	-1.799402595E0
3.924170414E0	2.214557409E0	1.058943653E1	-1.050449133E0
3.932573435E0	3.693919897E0	1.102971554E1	-3.068794906E-1
3.940976456E0	3.600001574E0	1.028315544E1	-4.043870270E-1
3.949379476E0	2.057827473E0	9.325428009E0	-4.097708762E-1
3.957782497E0	1.980060786E-1	8.889336586E0	3.332005441E-1
3.966185518E0	-1.165304661E0	9.028120041E0	1.049252748E0
3.974588539E0	-1.542174220E0	9.507881165E0	9.732806087E-1
3.982991560E0	-6.843472719E-1	1.032203865E1	6.083751321E-1
3.991394581E0	1.986042857E-1	1.069352436E1	3.714857101E-1
3.999797601E0	3.008974493E-1	9.920044899E0	-8.973085321E-3
4.008200622E0	3.589233849E-3	9.053244591E0	-5.778666735E-1
4.016603643E0	3.002992272E-1	9.235098839E0	-1.040877819E0
4.025006664E0	8.979067206E-1	9.829715729E0	-1.221535921E0
4.033409685E0	1.259821177E0	1.014855862E1	-1.204786181E0
4.041812706E0	1.243071318E0	1.026221848E1	-1.289133191E0
4.050215726E0	8.141579032E-1	1.018265629E1	-1.294517040E0
4.058618747E0	2.536391914E-1	1.004506969E1	-1.283151150E0
4.067021768E0	-1.854437590E-2	1.002831936E1	-1.394417405E0
4.075424789E0	2.147558331E-1	1.014018440E1	-1.430907965E0
4.083827810E0	8.967102766E-1	1.025145054E1	-1.140179992E0
4.092230831E0	1.588834286E0	1.025803089E1	-4.953143001E-1
4.100633851E0	1.774278045E0	1.002951622E1	2.650051117E-1
4.109036872E0	1.317847013E0	9.709476471E0	1.034895778E0
4.117439893E0	4.977070987E-1	9.406784058E0	1.607976794E0
4.125842914E0	-2.333002090E-1	9.204590797E0	1.630110383E0
4.134245935E0	-6.849454641E-1	9.142376900E0	1.358525038E0
4.142648956E0	-9.026923180E-1	9.262018204E0	1.063011408E0
4.151051976E0	-9.326026440E-1	9.565308571E0	6.652047038E-1
4.159454997E0	-7.674978375E-1	9.875179291E0	3.505485058E-1
4.167858018E0	-5.389832854E-1	9.961918831E0	2.703889608E-1
4.176261039E0	-8.434699476E-2	1.002413273E1	7.022934556E-1
4.184664060E0	4.432703853E-1	1.011565781E1	2.366501570E0
4.193067081E0	4.456632137E-1	9.780662537E0	1.477568001E-1
4.201470101E0	3.194418252E-1	9.778867722E0	6.717849374E-1
4.209873122E0	1.351944804E-1	9.806385040E0	1.875972986E0
4.218276143E0	2.045863420E-1	9.371489525E0	2.001596212E0
4.226679164E0	5.808576941E-1	9.408578873E0	1.458425403E0
4.235082185E0	9.583254457E-1	9.505488396E0	1.198205948E0
4.243485206E0	1.312463164E0	9.541978836E0	1.191027522E0
4.251888226E0	1.673181176E0	9.797411919E0	8.775677085E-1
4.260291247E0	1.844866276E0	9.988838196E0	3.326023519E-1
4.268694268E0	1.788634896E0	9.963115692E0	-2.009970993E-1
4.277097289E0	1.522433400E0	9.931410789E0	-2.392822644E-3
4.285500310E0	1.186241865E0	9.744172096E0	-1.603191197E-1
4.293903331E0	1.029511929E0	9.652647018E0	-2.165504545E-1
4.302306351E0	1.122832060E0	9.661021233E0	4.546362907E-2
4.310709372E0	1.345364571E0	9.693324089E0	9.571290761E-2
4.319112393E0	1.472782373E0	9.760323524E0	-2.991028363E-3
4.327515414E0	1.439282775E0	9.762118340E0	4.666004330E-2
4.335918435E0	1.298704505E0	9.693922997E0	2.183450609E-1
4.344321456E0	1.182652593E0	9.644869804E0	9.451649338E-2
4.352724476E0	1.119242787E0	9.634700775E0	4.007977992E-2
4.361127497E0	1.105484009E0	9.665806770E0	2.267199457E-1
4.369530518E0	1.133001566E0	9.693324089E0	1.274178028E-1
4.377933539E0	1.147358418E0	9.724431038E0	1.232303679E-1
4.386336560E0	1.097707391E0	9.686145782E0	1.794617027E-1
4.394739581E0	1.082154036E0	9.644869804E0	1.411765367E-1
4.403142601E0	1.124028444E0	9.605388641E0	1.339980662E-1
4.411545622E0	1.200598717E0	9.590433121E0	2.153540403E-1
4.419948643E0	1.249053478E0	9.510871887E0	3.768695593E-1
4.428351664E0	1.249651670E0	9.422935486E0	4.863412082E-1
4.436754685E0	1.241874933E0	9.388837814E0	4.959124923E-1
4.445157706E0	1.252044439E0	9.417551994E0	6.855437160E-1
4.453560726E0	1.380658627E0	9.561120987E0	8.476574421E-1
4.461963747E0	1.515853167E0	9.612566948E0	8.841479421E-1
4.470366768E0	1.600200176E0	9.708279610E0	7.962117195E-1
4.478769789E0	1.369292736E0	9.640682220E0	6.233302951E-1
4.487172810E0	1.162911773E0	9.535398483E0	4.444667995E-1
4.495575831E0	1.303490162E0	9.534799576E0	2.667997181E-1
4.503978851E0	1.569691658E0	9.574281693E0	9.391828626E-2
4.512381872E0	1.765304923E0	9.616155624E0	6.281159073E-2
4.520784893E0	1.809572101E0	9.625128746E0	-6.580262445E-3
4.529187914E0	1.681556106E0	9.690333366E0	-2.931207791E-2
4.537590935E0	1.592423439E0	9.765707016E0	3.768695518E-2
4.545993956E0	1.664208174E0	9.672387123E0	-3.529413417E-2
4.554396976E0	1.682154298E0	9.545567513E0	-3.050848842E-2
4.562799997E0	1.714457393E0	9.499505997E0	-7.058826834E-2
4.571203018E0	1.803590059E0	9.605986595E0	-4.785645381E-2
4.579606039E0	1.847259045E0	9.718449593E0	8.374879509E-2
4.588009060E0	1.682752490E0	9.790832520E0	1.016949639E-1
4.596412081E0	1.491326690E0	9.996614456E0	2.650051117E-1
4.604815101E0	1.485344648E0	1.050987530E1	4.378865361E-1
4.613218122E0	1.582852125E0	1.144666576E1	8.087740541E-1
4.621621143E0	1.606780410E0	1.227039433E1	6.675975323E-1
4.630024164E0	1.300499082E0	1.285125256E1	-1.806581169E-1
4.638427185E0	3.062812984E-1	1.292243862E1	-4.845465720E-2
4.646830206E0	-7.603194118E-1	1.299123192E1	2.919243574E-1
4.655233226E0	-1.817947030E0	1.410628796E1	1.402194023E0
4.663636247E0	-2.602194548E0	1.528834248E1	1.130608678E0
4.672039268E0	-2.383849621E0	1.551685619E1	-2.111666054E-1
4.680442289E0	-7.746763229E-1	1.513400459E1	-1.282552958E0
4.688845310E0	1.525424480E0	1.441256905E1	-7.190431952E-1
4.697248331E0	3.567698479E0	1.332921886E1	4.749752879E-1
4.705651351E0	4.721637249E0	1.215853024E1	7.286145091E-1
4.714054372E0	4.880760193E0	1.114217854E1	6.095715761E-1
4.722457393E0	4.505684853E0	1.035733318E1	8.536394835E-1
4.730860414E0	4.098307133E0	9.668199539E0	5.856433511E-1
4.739263435E0	3.785445452E0	9.086744308E0	1.674975902E-1
4.747666456E0	3.425923824E0	8.622536659E0	9.571290575E-3
4.756069476E0	3.076571703E0	8.178668022E0	-2.009970993E-1
4.764472497E0	2.854637384E0	7.962117195E0	-4.073780477E-1
4.772875518E0	2.597409010E0	8.054839134E0	-3.170489967E-1
4.781278539E0	2.056631088E0	8.001599312E0	-1.411765367E-1
4.789681560E0	1.158724308E0	8.247461319E0	7.058826834E-2
4.798084581E0	1.274178028E-1	7.889734268E0	3.996013701E-1
4.806487601E0	-4.426721856E-2	7.567899704E0	-8.213363886E-1
4.814890622E0	-2.231307179E-1	7.807182312E0	-1.051645517E0
4.823293643E0	-6.687939167E-1	7.652246952E0	-2.335394859E0
4.831696664E0	-9.972088337E-1	7.776075363E0	-2.443670034E0
4.840099685E0	-1.214955688E0	8.108677864E0	-1.420738459E0
4.848502706E0	-1.096511006E0	8.273782730E0	-8.111668825E-1
4.856905726E0	-4.576273263E-1	8.303094864E0	-6.687939167E-1
4.865308747E0	5.138586760E-1	8.423334122E0	-9.355936646E-1
4.873711768E0	1.311266780E0	8.644669533E0	-1.216152072E0
4.882114789E0	1.470389485E0	8.480761528E0	-1.454237938E0
4.890517810E0	1.087537885E0	8.204988480E0	-1.152144074E0
4.898920831E0	5.240281820E-1	8.058428764E0	-4.827519655E-1
4.907323851E0	1.710868180E-1	8.026124954E0	-3.260220885E-1
4.915726872E0	7.776673883E-2	8.225327492E0	-6.149554253E-1
4.924129893E0	1.142572835E-1	8.643473625E0	-9.655039310E-1
4.932532914E0	2.279163599E-1	9.150752068E0	-1.313659668E0
4.940935935E0	3.816552162E-1	9.568898201E0	-1.415952802E0
4.949338956E0	7.417750359E-1	9.818947792E0	-1.368694544E0
4.957741976E0	1.351944804E0	1.005763149E1	-1.206580877E0
4.966144997E0	1.970489502E0	1.027418232E1	-1.126421213E0
4.974548018E0	2.352742910E0	1.050269699E1	-9.116654396E-1
4.982951039E0	2.580060959E0	1.073958588E1	-7.782655358E-1
4.991354060E0	2.702095032E0	1.093878841E1	-7.944171429E-1
4.999757081E0	2.814557552E0	1.110628605E1	-9.780662656E-1
5.008160101E0	2.878565550E0	1.128993511E1	-1.103091240E0
5.016563122E0	2.891726255E0	1.154357433E1	-1.077368379E0
5.024966143E0	2.848057270E0	1.169551849E1	-1.122233868E0
5.033369164E0	2.806182861E0	1.169731331E1	-1.067198873E0
5.041772185E0	2.858226538E0	1.161117172E1	-7.926225066E-1
5.050175206E0	2.986242771E0	1.145085239E1	-4.408775866E-1
5.058578226E0	3.162713289E0	1.130848026E1	-2.333002090E-1
5.066981247E0	3.314657450E0	1.128156090E1	-8.015955985E-2
5.075384268E0	3.440878868E0	1.119841003E1	-4.797609448E-1
5.083787289E0	3.349353552E0	1.076650524E1	-1.228714466E0
5.092190310E0	3.116053343E0	1.024786091E1	-1.007378340E0
5.100593331E0	2.976073265E0	9.469595909E0	-8.027920127E-1
5.108996351E0	3.140579700E0	8.705088615E0	-4.719842672E-1
5.117399372E0	3.759124279E0	8.198408127E0	-2.051845491E-1
5.125802393E0	4.617549419E0	8.286943436E0	4.666004330E-2
5.134205414E0	5.321637630E0	8.836095810E0	9.272187948E-2
5.142608435E0	5.529214859E0	9.620942116E0	-5.431707501E-1
5.151011456E0	5.088935375E0	1.011147022E1	-9.433703423E-1
5.159414476E0	4.400999069E0	1.015155029E1	-6.430711150E-1
5.167817497E0	3.897309780E0	9.783653259E0	-2.123630047E-1
5.176220518E0	3.885345697E0	9.257232666E0	-1.938186288E-1
5.184623539E0	4.308277130E0	8.898907661E0	-6.580262631E-2
5.193026560E0	4.794020176E0	8.619544983E0	4.420739710E-1
5.201429581E0	5.447260857E0	8.245068550E0	7.148557901E-1
5.209832601E0	6.611369133E0	7.877171993E0	2.009970993E-1
5.218235622E0	7.999206066E0	7.990232944E0	6.879365444E-2
5.226638643E0	8.678768158E0	8.399405479E0	6.077769399E-1
5.235041664E0	8.091927528E0	8.595617294E0	6.873382926E-1
5.243444685E0	6.499504566E0	8.349754333E0	4.516452849E-1
5.251847706E0	5.064409256E0	8.008178711E0	4.959124923E-1
5.260250726E0	4.453042984E0	7.623532772E0	4.833501875E-1
5.268653747E0	4.628915310E0	7.323832035E0	5.264210105E-1
5.277056768E0	5.296513081E0	7.582854748E0	7.058826834E-2
5.285459789E0	6.097510338E0	7.920841217E0	-4.683950245E-1
5.293862810E0	6.186044693E0	9.568898201E0	-2.699702263E0
5.302265831E0	3.739383698E0	1.453579903E1	-4.597808838E0
5.310668851E0	-1.906481385E0	2.057049751E1	-1.655235052E0
5.319071872E0	-1.103509998E1	2.343111801E1	2.187039852E0
5.327474893E0	-1.561974812E1	1.829432487E1	1.391426325E0
5.335877914E0	-1.061097240E1	1.117328548E1	1.836491376E-1
5.344280935E0	-3.792025566E0	7.198806763E0	-2.970689297E0
5.352683956E0	2.551347256E0	6.131608009E0	-4.118047714E0
5.361086976E0	7.138388157E0	6.895516872E0	-3.090330362E0
5.369489997E0	9.538389206E0	7.884948730E0	-1.467996716E0
5.377893018E0	9.132207870E0	8.780462265E0	1.649253011E0
5.386296039E0	6.498308182E0	9.808777809E0	3.604189157E0
5.394699060E0	3.430709362E0	1.069830990E1	3.200998545E0
5.403102081E0	8.506484628E-1	1.149332523E1	2.013560295E0
5.411505101E0	-1.159322619E0	1.167697430E1	-9.690931439E-2
5.419908122E0	-2.299502611E0	1.086401272E1	-2.343171597E0
5.428311143E0	-2.083550215E0	9.732806206E0	-2.763111830E0
5.436714164E0	-7.525427341E-1	9.085547447E0	-1.673779488E0
5.445117185E0	6.520441771E-1	9.340981483E0	-3.822534084E-1
5.453520206E0	1.100698471E0	9.981060982E0	6.131607890E-1
5.461923226E0	6.717849374E-1	1.027178955E1	1.167697430E0
5.470326247E0	1.980060786E-1	1.057866859E1	9.774680734E-1
5.478729268E0	-3.068794906E-1	1.024427223E1	1.063011408E0
5.487132289E0	-3.816552162E-1	9.608379364E0	1.622931957E0
5.495535310E0	1.226321608E-1	9.212965012E0	1.942373753E0
5.503938331E0	1.049252748E0	9.160323143E0	2.154736757E0
5.512341351E0	2.026720762E0	9.518050194E0	1.907677889E0
5.520744372E0	2.385644197E0	9.813564301E0	1.620539188E0
5.529147393E0	2.115255117E0	9.911669731E0	1.563111424E0
5.537550414E0	1.547558069E0	9.948758125E0	1.243071318E0
5.545953435E0	8.416753411E-1	9.811769485E0	7.543373108E-1
5.554356456E0	2.961117923E-1	9.693324089E0	1.322034448E-1
5.562759476E0	1.686939895E-1	9.682557106E0	-3.475574851E-1
5.571162497E0	6.370890141E-1	9.782457352E0	-8.333004713E-1
5.579565518E0	1.339980721E0	9.997213364E0	-7.770691514E-1
5.587968539E0	1.830509305E0	1.003250694E1	-3.643072546E-1
5.596371560E0	1.921436548E0	9.857233047E0	6.041877344E-2
5.604774581E0	1.663609982E0	9.653842926E0	3.134597540E-1
5.613177601E0	1.357328653E0	9.545567513E0	2.727817893E-1
5.621580622E0	1.104885817E0	9.545567513E0	1.956132501E-1
5.629983643E0	9.068797827E-1	9.592227936E0	3.014956415E-1
5.638386664E0	7.734799385E-1	9.639486313E0	2.536391914E-1
5.646789685E0	8.315058947E-1	9.607781410E0	5.922235921E-2
5.655192706E0	1.060020447E0	9.591629982E0	-9.870393574E-2
5.663595726E0	1.319641709E0	9.657432556E0	-7.178467698E-3
5.671998747E0	1.397408366E0	9.716055870E0	3.834498227E-1
5.680401768E0	1.299302697E0	9.703494072E0	6.526423693E-1
5.688804789E0	1.137787223E0	9.625727654E0	4.618147612E-1
5.697207810E0	1.044467092E0	9.548559189E0	3.888336718E-1
5.705610831E0	1.101894855E0	9.501300812E0	4.079762697E-1
5.714013851E0	1.455434322E0	9.525228500E0	3.690928817E-1
5.722416872E0	1.869990945E0	9.589237213E0	2.075773627E-1
5.730819893E0	2.037488461E0	9.521040916E0	2.243271172E-1
5.739222914E0	2.029113531E0	9.421739578E0	1.615155339E-1
5.747625935E0	1.980658889E0	9.568898201E0	2.733799815E-1
5.756028956E0	1.818545222E0	9.782457352E0	3.092723191E-1
5.764431976E0	1.564307809E0	9.831509590E0	3.762713671E-1
5.772834997E0	1.446461320E0	9.692726135E0	3.732803464E-1
5.781238018E0	1.514656782E0	9.506086349E0	-4.606183618E-2
5.789641039E0	1.618146300E0	9.533005714E0	2.033899166E-2
5.798044060E0	1.705484390E0	9.550353050E0	4.546362907E-2
5.806447081E0	1.804188251E0	9.558130264E0	-2.291127741E-1
5.814850101E0	1.853839397E0	9.684351921E0	8.434699476E-2
5.823253122E0	1.866999865E0	9.799804688E0	1.010967568E-1
5.831656143E0	1.822732687E0	9.922437668E0	-1.226321608E-1
5.840059164E0	1.700698733E0	9.973882675E0	-3.373879790E-1
5.848462185E0	1.597209096E0	9.899106979E0	-4.630111754E-1
5.856865206E0	1.593619823E0	9.847063065E0	-3.224328458E-1
5.865268226E0	1.763510346E0	9.735198975E0	-1.375873014E-2
5.873671247E0	1.986641049E0	9.792028427E0	2.057827413E-1
5.882074268E0	2.003390789E0	1.006002426E1	5.449653864E-1
5.890477289E0	1.807777524E0	1.027298546E1	1.044467092E0
5.898880310E0	1.573280931E0	1.043749237E1	1.159322619E0
5.907283331E0	1.514058471E0	1.087178993E1	9.924231768E-1
5.915686351E0	1.524826288E0	1.144965649E1	1.000798106E0
5.924089372E0	1.375274777E0	1.190668583E1	9.726824164E-1
5.932492393E0	8.422735929E-1	1.177508068E1	4.043870270E-1
5.940895414E0	-2.889333367E-1	1.156331539E1	2.117647976E-1
5.949298435E0	-1.895713687E0	1.153220844E1	7.357929349E-1
5.957701456E0	-2.904886723E0	1.193420315E1	-2.715853751E-1
5.966104476E0	-2.806182861E0	1.296550941E1	-2.560320199E-1
5.974507497E0	-1.888535261E0	1.381197071E1	-6.017948985E-1
5.982910518E0	-4.007977843E-1	1.449512100E1	-1.883151412E0
5.991313539E0	1.228714466E0	1.471944809E1	-1.085145116E0
5.999716560E0	2.535793781E0	1.418106365E1	-2.769692242E-1
6.008119581E0	3.336791277E0	1.348774338E1	4.307080805E-1
6.016522601E0	3.503690481E0	1.273998642E1	1.202991605E0
6.024925622E0	3.141177893E0	1.201675510E1	1.057627559E0
6.033328643E0	2.720041037E0	1.154536915E1	6.699903607E-1
6.041731664E0	2.502294302E0	1.109970570E1	6.538388133E-1
6.050134685E0	2.573480844E0	1.061336517E1	4.420739710E-1
6.058537706E0	2.567498684E0	1.013420200E1	1.034895778E-1
6.066940726E0	2.497508526E0	9.727422714E0	-2.075773627E-1
6.075343747E0	2.446063042E0	9.483354568E0	-3.391826153E-1
6.083746768E0	2.322832584E0	9.442078590E0	-1.280160099E-1
6.092149789E0	2.082353830E0	9.450452805E0	-5.024927482E-2
6.100552810E0	1.680359721E0	9.725627899E0	-4.743770957E-1
6.108955831E0	9.511470199E-1	9.729216576E0	1.238285750E-1
6.117358851E0	8.255237937E-1	9.471389771E0	-8.416753411E-1
6.125761872E0	-1.639083475E-1	9.086744308E0	-1.453639716E-1
6.134164893E0	-1.630110383E0	8.133204460E0	-1.582852125E0
6.142567914E0	-2.855235577E0	7.339385033E0	-2.910868645E0
6.150970935E0	-3.822534084E0	7.114459991E0	-1.524227977E0
6.159373956E0	-4.112065792E0	7.048058987E0	-1.310070455E-1
6.167776976E0	-3.498904943E0	6.991827965E0	-1.399801224E-1
6.176179997E0	-2.414956331E0	7.193423271E0	-5.000999570E-1
6.184583018E0	-1.607976794E0	7.445865631E0	-1.302891970E0
6.192986039E0	-1.090528965E0	7.527221680E0	-2.106880426E0
6.201389060E0	-6.179464459E-1	7.890332699E0	-1.814357758E0
6.209792081E0	-1.663011760E-1	8.412566185E0	-9.930213690E-1
6.218195101E0	1.692921966E-1	8.509475708E0	-4.193421602E-1
6.226598122E0	4.689932466E-1	8.552546501E0	-4.893322289E-1
6.235001143E0	8.805587292E-1	8.857032776E0	-9.834501147E-1
6.243404164E0	1.429711580E0	9.384650230E0	-1.286740422E0
6.251807185E0	2.012962103E0	9.847063065E0	-1.159920812E0
6.260210206E0	2.737389088E0	1.039621639E1	-8.632107973E-1
6.268613226E0	3.435495138E0	1.075872898E1	-5.605186820E-1
6.277016247E0	4.009772778E0	1.085563850E1	-3.158525825E-1
6.285419268E0	4.412364960E0	1.074855900E1	-3.104687333E-1
6.293822289E0	4.665405750E0	1.074317551E1	-4.558327198E-1
6.302225310E0	4.663012981E0	1.094058323E1	-4.504488707E-1
6.310628331E0	4.452444553E0	1.117208862E1	-4.157529473E-1
6.319031351E0	4.168895245E0	1.121456146E1	-5.742774606E-1
6.327434372E0	3.919443607E0	1.115055370E1	-5.754738450E-1
6.335837393E0	3.751945972E0	1.105603695E1	-3.804588020E-1
6.344240414E0	3.664009571E0	1.094357395E1	-1.860419661E-1
6.352643435E0	3.686741590E0	1.082393360E1	-1.800599098E-1
6.361046456E0	3.711866140E0	1.069113159E1	-1.351944804E-1
6.369449476E0	3.733401537E0	1.055653572E1	-1.890329868E-1
6.377852497E0	3.655036688E0	1.041894817E1	-4.695914388E-1
6.386255518E0	3.599403381E0	1.021555805E1	-4.743770957E-1
6.394658539E0	3.923032761E0	1.010907745E1	-1.609173268E-1
6.403061560E0	4.533800602E0	9.941579819E0	-8.003991842E-1
6.411464581E0	5.132604599E0	9.652048111E0	-1.298704505E0
6.419867601E0	5.400002480E0	9.301499367E0	-9.565308690E-1
6.428270622E0	5.532804012E0	9.178867340E0	-2.883351147E-1
6.436673643E0	5.882156372E0	9.134600639E0	-1.848455518E-1
6.445076664E0	6.312266350E0	8.927022934E0	-1.836491376E-1
6.453479685E0	6.540182590E0	8.961718559E0	-3.750749528E-1
6.461882706E0	6.492326260E0	9.087342262E0	-8.895317912E-1
6.470285726E0	6.163312912E0	9.061020851E0	-7.262216806E-1
6.478688747E0	5.846263885E0	8.901300430E0	-8.434699476E-2
6.487091768E0	5.683551788E0	8.498109818E0	7.896314561E-2
6.495494789E0	5.606981754E0	7.919644833E0	1.980060786E-1
6.503897810E0	5.577669621E0	7.456035137E0	-2.333002165E-2
6.512300831E0	5.724229813E0	7.295117855E0	-3.361915946E-1
6.520703851E0	6.208776474E0	7.321439266E0	-7.680960894E-1
6.529106872E0	6.800402164E0	7.388438225E0	-9.852447510E-1
6.537509893E0	6.963712215E0	7.552346706E0	-1.095912814E0
6.545912914E0	6.656234264E0	7.919644833E0	-1.549352705E-1
6.554315935E0	6.671787739E0	7.551149845E0	-3.403790295E-1
6.562718956E0	7.299903870E0	8.581858635E0	-1.460219979E0
6.571121976E0	6.838686943E0	1.146162033E1	-2.560320199E-1
6.579524997E0	6.580262184E0	1.462134266E1	6.705885530E-1
6.587928018E0	5.038686275E0	1.824108505E1	4.077968121E0
6.596331039E0	6.179464459E-1	1.976112556E1	5.598008633E0
6.604734060E0	-4.376472473E0	1.793121529E1	1.908874273E0
6.613137081E0	-8.115856171E0	1.306840134E1	-3.967299938E0
6.621540101E0	-8.312665939E0	7.931010723E0	-4.776073933E0
6.629943122E0	-4.951946259E0	5.155336380E0	-4.971089065E-1
6.638346143E0	-4.420739710E-1	4.484149456E0	4.277170599E-1
6.646749164E0	3.905086517E0	5.935396671E0	-7.710871100E-1
6.655152185E0	7.382455826E0	8.773882866E0	-9.690931439E-1
6.663555206E0	8.803792953E0	1.140897846E1	3.038884699E-1
6.671958226E0	7.205387115E0	1.265922832E1	1.338186026E0
6.680361247E0	3.878167391E0	1.237986660E1	8.380861282E-1
6.688764268E0	6.017948985E-1	1.164048386E1	-6.149554253E-1
6.697167289E0	-2.047657967E0	1.069292641E1	-1.834098577E0
6.705570310E0	-3.429512978E0	9.571290970E0	-2.614757061E0
6.713973331E0	-3.111267567E0	8.917451859E0	-2.070389748E0
6.722376351E0	-1.584048629E0	9.176474571E0	-7.668996453E-1
6.730779372E0	3.768695518E-2	9.936196327E0	3.840480447E-1
6.739182393E0	1.102493048E0	1.046381378E1	9.026923180E-1
6.747585414E0	1.686341763E0	1.038305569E1	1.342971683E0
6.755988435E0	2.299502611E0	9.945767403E0	2.099701881E0
6.764391456E0	3.011367321E0	9.805787086E0	2.225325108E0
6.772794476E0	3.019742250E0	9.567701340E0	1.972284079E0
6.781197497E0	2.499303341E0	9.564710617E0	1.981855392E0
6.789600518E0	1.679761529E0	9.626325607E0	1.977069736E0
6.798003539E0	8.386843204E-1	9.637691498E0	1.763510346E0
6.806406560E0	4.384847581E-1	9.651450157E0	9.314061999E-1
6.814809581E0	6.987041831E-1	9.753145218E0	3.326023519E-1
6.823212601E0	1.402792215E0	9.993623734E0	2.129612118E-1
6.831615622E0	2.180459738E0	1.009890842E1	2.123630047E-1
6.840018643E0	2.460419893E0	1.016530895E1	7.238288522E-1
6.848421664E0	2.218744755E0	1.000259686E1	9.080761671E-1
6.856824685E0	1.716850281E0	9.718449593E0	8.578268886E-1
6.865227706E0	1.334596872E0	9.422935486E0	8.781659007E-1
6.873630726E0	1.207777262E0	9.254241943E0	1.095912814E0
6.882033747E0	1.325623751E0	9.247062683E0	1.301695466E0
6.890436768E0	1.599601984E0	9.387641907E0	1.174277663E0
6.898839789E0	1.755135417E0	9.631111145E0	1.223928809E0
6.907242810E0	1.645663738E0	9.711869240E0	1.264606714E0
6.915645831E0	1.352542996E0	9.601201057E0	1.219143152E0
6.924048851E0	1.104287624E0	9.367900848E0	1.097109199E0
6.932451872E0	1.055234790E0	9.262018204E0	1.020538807E0
6.940854893E0	1.075573802E0	9.309276581E0	9.888339639E-1
6.949257914E0	1.001994491E0	9.510273933E0	1.082154036E0
6.957660935E0	9.206385016E-1	9.692726135E0	1.019940615E0
6.966063956E0	9.589236975E-1	9.698708534E0	8.350951076E-1
6.974466976E0	1.071984529E0	9.543174744E0	7.525427341E-1
6.982869997E0	1.181456208E0	9.375677109E0	8.422735929E-1
6.991273018E0	1.262812138E0	9.275776863E0	9.260223508E-1
6.999676039E0	1.360319614E0	9.304491043E0	1.065404296E0
7.008079060E0	1.487139225E0	9.401400566E0	1.148554921E0
7.016482081E0	1.597807288E0	9.514460564E0	1.001396298E0
7.024885101E0	1.607976794E0	9.530014038E0	9.236295223E-1
7.033288122E0	1.635494232E0	9.485149384E0	6.831508875E-1
7.041691143E0	1.761117458E0	9.477372169E0	4.342973232E-1
7.050094164E0	1.893919110E0	9.556933403E0	3.068794906E-1
7.058497185E0	1.889133453E0	9.702896118E0	1.866401732E-1
7.066900206E0	1.822134495E0	9.788438797E0	5.682953820E-2
7.075303226E0	1.835294962E0	9.692128181E0	-9.750752151E-2
7.083706247E0	1.977667928E0	9.564111710E0	-1.363908947E-1
7.092109268E0	2.155334949E0	9.518648148E0	-5.623133108E-2
7.100512289E0	2.313261271E0	9.578469276E0	2.273181528E-1
7.108915310E0	2.401795626E0	9.660423279E0	3.607180119E-1
7.117318331E0	2.435295343E0	9.700503349E0	3.726821244E-1
7.125721351E0	2.409572363E0	9.704092026E0	3.020938635E-1
7.134124372E0	2.361716032E0	9.690931320E0	2.949153781E-1
7.142527393E0	2.269592285E0	9.679565430E0	3.068794906E-1
7.150930414E0	2.254637241E0	9.678967476E0	3.056831062E-1
7.159333435E0	2.345564365E0	9.784252167E0	1.674975902E-1
7.167736456E0	2.512463808E0	9.992427826E0	4.247260094E-2
7.176139476E0	2.690130949E0	1.018205833E1	-8.913264424E-2
7.184542497E0	2.813361168E0	1.031725311E1	-1.351944804E-1
7.192945518E0	2.938386202E0	1.047697353E1	-2.506481707E-1
7.201348539E0	2.964707375E0	1.070847988E1	-2.596212626E-1
7.209751560E0	2.846860647E0	1.088136101E1	-1.896311939E-1
7.218154581E0	2.749951363E0	1.117508030E1	-4.743770957E-1
7.226557601E0	2.573480844E0	1.168893814E1	-4.007977992E-2
7.234960622E0	2.355135679E0	1.191386414E1	1.220339537E-1
7.243363643E0	2.134397745E0	1.221954727E1	5.802594870E-2
7.251766664E0	1.684547186E0	1.257248878E1	4.965106845E-1
7.260169685E0	1.152144074E0	1.250369453E1	2.811566554E-2
7.268572706E0	8.291130662E-1	1.240259838E1	-7.280163169E-1
7.276975726E0	6.370890141E-1	1.246241856E1	-7.986045480E-1
7.285378747E0	5.449653864E-1	1.245344543E1	-1.169492126E0
7.293781768E0	5.288137794E-1	1.241456223E1	-1.181456208E0
7.302184789E0	5.383850932E-1	1.223270798E1	-7.878368497E-1
7.310587810E0	7.519445419E-1	1.188814068E1	-3.571287692E-1
7.318990831E0	1.492523074E0	1.161356449E1	-2.147558331E-1
7.327393851E0	2.934198856E0	1.145862961E1	-5.144568533E-2
7.335796872E0	4.814359188E0	1.151605701E1	9.457631707E-1
7.344199893E0	6.487540245E0	1.179183006E1	2.328216314E0
7.352602914E0	7.232306480E0	1.199761295E1	1.942971945E0
7.361005935E0	6.561119556E0	1.206281757E1	1.437488198E0
7.369408956E0	4.724030018E0	1.187737370E1	8.315058947E-1
7.377811976E0	2.583052158E0	1.149691486E1	8.434699476E-2
7.386214997E0	7.914260626E-1	1.104168034E1	-3.230310678E-1
7.394618018E0	-4.480560422E-1	1.050030422E1	-3.792623878E-1
7.403021039E0	-1.130608678E0	9.949954987E0	-4.468596280E-1
7.411424060E0	-1.466202021E0	9.423533440E0	-6.466603279E-1
7.419827081E0	-1.644467354E0	9.086744308E0	-7.166503668E-1
7.428230101E0	-1.817348838E0	8.767900467E0	-6.867401004E-1
7.436633122E0	-1.558923960E0	8.660223007E0	-2.154138565E0
7.445036143E0	-1.246062398E0	8.440083504E0	-2.241476536E0
7.453439164E0	-1.363908887E0	8.159524918E0	-2.063809484E-1
7.461842185E0	-1.767697692E0	7.431509018E0	7.339983582E-1
7.470245206E0	-1.978864312E0	7.015756130E0	-1.363908947E-1
7.478648226E0	-2.100898266E0	7.265805721E0	-8.099704385E-1
7.487051247E0	-2.050648928E0	7.697112083E0	-8.901300430E-1
7.495454268E0	-1.650449395E0	8.198408127E0	-7.884350419E-1
7.503857289E0	-1.015753269E0	8.578269005E0	-8.470591903E-1
7.512260310E0	-3.990031779E-1	8.781061172E0	-8.009973764E-1
7.520663331E0	8.374879509E-2	8.860622406E0	-6.071787477E-1
7.529066351E0	5.347958803E-1	8.918647766E0	-5.503492355E-1
7.537469372E0	9.122636318E-1	8.991629601E0	-4.414757788E-1
7.545872393E0	1.255633712E0	9.073583603E0	-3.002992272E-1
7.554275414E0	1.574477315E0	9.195018768E0	-3.278166950E-1
7.562678435E0	1.795215130E0	9.362516403E0	-3.661018610E-1
7.571081456E0	1.914856315E0	9.457033157E0	-4.079762697E-1
7.579484476E0	2.112862349E0	9.513862610E0	-6.041877270E-1
7.587887497E0	2.471785784E0	9.506086349E0	-7.543373108E-1
7.596290518E0	2.811566591E0	9.529416084E0	-6.897311211E-1
7.604693539E0	3.021536827E0	9.626325607E0	-5.395814776E-1
7.613096560E0	3.113062143E0	9.809376717E0	-4.576273263E-1
7.621499581E0	3.196212769E0	1.008754253E1	-5.623133183E-1
7.629902601E0	3.363710403E0	1.039083195E1	-7.160521746E-1
7.638305622E0	3.536591768E0	1.071147060E1	-7.058826685E-1
7.646708643E0	3.656831264E0	1.095015430E1	-4.390829504E-1
7.655111664E0	3.667000771E0	1.105663490E1	-1.830509305E-1
7.663514685E0	3.604787350E0	1.102672482E1	-4.486542568E-2
7.671917706E0	3.559323788E0	1.091246796E1	1.615155302E-2
7.680320726E0	3.616153240E0	1.075573826E1	-1.328016520E-1
7.688723747E0	3.722633839E0	1.054397297E1	-1.543370634E-1
7.697126768E0	3.887738705E0	1.041715336E1	-3.367897868E-1
7.705529789E0	4.082753658E0	1.051346493E1	-3.894318938E-1
7.713932810E0	4.391427994E0	1.074796104E1	1.142572835E-1
7.722335831E0	4.558925152E0	1.060439205E1	-4.019941986E-1
7.730738851E0	4.671986103E0	1.041894817E1	-3.637090325E-1
7.739141872E0	4.662415028E0	1.034118080E1	-5.204389095E-1
7.747544893E0	4.693521500E0	1.040937710E1	-5.796613097E-1
7.755947914E0	4.816154003E0	1.039801121E1	-8.673982024E-1
7.764350935E0	5.150550842E0	1.015155029E1	-8.183453679E-1
7.772753956E0	5.566303730E0	9.819545746E0	-3.230310604E-2
7.781156976E0	6.036493301E0	9.527023315E0	7.980063558E-1
7.789559997E0	6.498308182E0	9.167501450E0	1.314257860E0
7.797963018E0	6.912864685E0	8.810373306E0	1.137787223E0
7.806366039E0	7.103094101E0	8.545966148E0	6.029912829E-1
7.814769060E0	7.016952515E0	8.418548584E0	1.818545163E-1
7.823172081E0	6.732206345E0	8.345566750E0	-2.219343036E-1
7.831575101E0	6.387042046E0	8.242077827E0	-4.331009090E-1
7.839978122E0	5.974279881E0	8.033902168E0	-9.272187948E-2
7.848381143E0	5.589035511E0	7.812565804E0	2.458625287E-1
7.856784164E0	5.359324455E0	7.376473904E0	-2.476571500E-1
7.865187185E0	5.303092957E0	6.924230576E0	-4.881358147E-1
7.873590206E0	5.379663467E0	6.872784615E0	-9.714859724E-1
7.881993226E0	5.548955917E0	7.427919865E0	-8.291130662E-1
7.890396247E0	5.807978630E0	8.044670105E0	-5.928218365E-1
7.898799268E0	6.015556335E0	8.921639442E0	-2.333002090E-1
7.907202289E0	5.522634506E0	1.097527885E1	-4.582255483E-1
7.915605310E0	3.460021496E0	1.458844185E1	-1.077368379E0
7.924008331E0	-1.604387641E0	1.980539322E1	5.420341492E0
7.932411351E0	-9.814760208E0	2.223231316E1	6.949355125E0
7.940814372E0	-1.404527092E1	1.823570061E1	-4.146761417E0
7.949217393E0	-9.175876617E0	1.180738354E1	-1.027657509E1
7.957620414E0	-2.605783939E0	8.712266922E0	-7.769495010E0
7.966023435E0	1.778465390E0	8.257032394E0	-1.349551916E0
7.974426456E0	4.251447678E0	8.868997574E0	3.301496983E0
7.982829476E0	5.781657696E0	9.083154678E0	1.936989903E0
7.991232497E0	6.597609997E0	9.008378983E0	-1.417747378E0
7.999635518E0	6.973283291E0	9.150752068E0	-2.441277266E0
8.008038539E0	6.358327866E0	9.684949875E0	5.539384484E-1
8.016441560E0	4.528416634E0	9.915857315E0	3.424129248E0
8.024844581E0	2.103291035E0	9.981060982E0	3.681357622E0
8.033247601E0	-5.228317380E-1	1.010967541E1	2.252244234E0
8.041650622E0	-2.714657307E0	1.007617569E1	3.649054468E-2
8.050053643E0	-3.665804386E0	1.000259686E1	-1.752742529E0
8.058456664E0	-3.254238844E0	1.013599682E1	-2.328216314E0
8.066859685E0	-1.762313843E0	1.027298546E1	-2.048854351E0
8.075262706E0	2.033899166E-2	1.020000458E1	-1.003789067E0
8.083665726E0	1.767099500E0	1.037767220E1	8.931210637E-1
8.092068747E0	2.420340061E0	1.016171932E1	2.114656925E0
8.100471768E0	2.248056889E0	9.497113228E0	2.359921217E0
8.108874789E0	2.057827473E0	9.278767586E0	1.990828395E0
8.117277810E0	1.856830359E0	9.208778381E0	1.322034478E0
8.125680831E0	1.569093466E0	9.388239861E0	1.109073281E0
8.134083851E0	1.446461320E0	9.818349838E0	1.198205948E0
8.142486872E0	1.506281853E0	1.011147022E1	1.219143152E0
8.150889893E0	1.563709617E0	1.006899738E1	7.663014531E-1
8.159292914E0	1.447657704E0	9.838089943E0	4.857429862E-1
8.167695935E0	1.211366415E0	9.692726135E0	7.100701332E-1
8.176098956E0	1.047458172E0	9.613762856E0	7.884350419E-1
8.184501976E0	1.177268744E0	9.644869804E0	4.719842672E-1
8.192904997E0	1.630708575E0	9.842875481E0	5.982056609E-4
8.201308018E0	2.110469580E0	1.005583763E1	-1.274178028E-1
8.209711039E0	2.213361025E0	1.007677460E1	1.525424421E-1
8.218114060E0	1.877767563E0	9.842277527E0	5.850451589E-1
8.226517081E0	1.426122308E0	9.588040352E0	8.249256015E-1
8.234920101E0	1.139581800E0	9.509675026E0	7.728816867E-1
8.243323122E0	1.024128079E0	9.625128746E0	8.249256015E-1
8.251726143E0	1.035493970E0	9.695717812E0	8.596215248E-1
8.260129164E0	1.075573802E0	9.662218094E0	7.633104324E-1
8.268532185E0	1.111466169E0	9.659226418E0	7.070791125E-1
8.276935206E0	1.091127157E0	9.597013474E0	7.088736892E-1
8.285338226E0	1.101894855E0	9.620343208E0	5.473581553E-1
8.293741247E0	1.142572761E0	9.637691498E0	5.114658475E-1
8.302144268E0	1.158724308E0	9.648459435E0	6.119644046E-1
8.310547289E0	1.061216831E0	9.738788605E0	6.161518097E-1
8.318950310E0	8.949156404E-1	9.787840843E0	7.519445419E-1
8.327353331E0	8.327022791E-1	9.724431038E0	7.986045480E-1
8.335756351E0	9.529415965E-1	9.645467758E0	6.831508875E-1
8.344159372E0	1.104885817E0	9.549157143E0	4.857429862E-1
8.352562393E0	1.091127157E0	9.542576790E0	5.844469070E-1
8.360965414E0	9.487541914E-1	9.613762856E0	8.883354068E-1
8.369368435E0	8.285148144E-1	9.645467758E0	1.050449133E0
8.377771456E0	9.314061999E-1	9.494720459E0	9.385846853E-1
8.386174476E0	1.213161111E0	9.367900848E0	6.472585201E-1
8.394577497E0	1.539781332E0	9.410971642E0	5.533402562E-1
8.402980518E0	1.705484390E0	9.509077072E0	6.729813814E-1
8.411383539E0	1.781456470E0	9.524032593E0	5.533402562E-1
8.419786560E0	1.791625977E0	9.603593826E0	5.994020700E-1
8.428189581E0	1.777269006E0	9.803992271E0	6.323033571E-1
8.436592601E0	1.730010748E0	9.887741089E0	4.845465720E-1
8.444995622E0	1.686939955E0	9.692726135E0	3.302095234E-1
8.453398643E0	1.808973908E0	9.595816612E0	3.750749528E-1
8.461801664E0	2.084148407E0	9.723833084E0	2.506481707E-1
8.470204685E0	2.291725874E0	9.941579819E0	2.679961324E-1
8.478607706E0	2.363510609E0	1.009771156E1	2.584248483E-1
8.487010726E0	2.281556368E0	1.018385315E1	1.872383654E-1
8.495413747E0	2.167299032E0	1.030887794E1	2.129612118E-1
8.503816768E0	2.093121529E0	1.043868923E1	1.579262912E-1
8.512219789E0	2.030908108E0	1.046800041E1	2.051845491E-1
8.520622810E0	1.971685886E0	1.051645565E1	2.584248483E-1
8.529025831E0	1.693520188E0	1.068096161E1	5.192425251E-1
8.537428851E0	1.575075507E0	1.077966595E1	1.022931710E-1
8.545831872E0	1.753340840E0	1.112722397E1	4.845465720E-2
8.554234893E0	1.887937069E0	1.152263737E1	-8.913264424E-2
8.562637914E0	1.813161373E0	1.195693493E1	-1.986042857E-1
8.571040935E0	1.687538147E0	1.269332600E1	-1.196411345E-2
8.579443956E0	1.601994753E0	1.320479202E1	-5.419743061E-1
8.587846976E0	1.444666624E0	1.348176098E1	-6.466603279E-1
8.596249997E0	9.116654396E-1	1.329930782E1	-8.823533654E-1
8.604653018E0	2.315055877E-1	1.303370476E1	-1.376471281E0
8.613056039E0	-3.056831062E-1	1.314377499E1	-1.064207911E0
8.621459060E0	-2.799602449E-1	1.324905872E1	-7.722834945E-1
8.629862081E0	5.222335458E-1	1.304925823E1	-9.200403094E-1
8.638265101E0	1.928016901E0	1.255693531E1	-1.469791293E0
8.646668122E0	3.368496180E0	1.189531994E1	-7.698906660E-1
8.655071143E0	4.578666210E0	1.116012478E1	1.884347796E-1
8.663474164E0	5.568098068E0	1.030349445E1	6.669993401E-1
8.671877185E0	6.190232277E0	9.682557106E0	1.557129383E0
8.680280206E0	6.247660160E0	9.170493126E0	2.043470621E0
8.688683226E0	5.880361557E0	8.745766640E0	1.724028707E0
8.697086247E0	5.155336380E0	8.598608017E0	1.085145116E0
8.705489268E0	4.180261135E0	8.720642090E0	9.529415965E-1
8.713892289E0	3.114856958E0	8.797212601E0	7.537391186E-1
8.722295310E0	1.770090580E0	8.816953659E0	8.811569214E-1
8.730698331E0	-1.615155302E-2	8.654839516E0	7.716853023E-1
8.739101351E0	-1.960918188E0	8.236693382E0	-3.194418252E-1
8.747504372E0	-3.478565931E0	7.906484127E0	-1.194616675E0
8.755907393E0	-3.794418573E0	7.835896015E0	-2.096112728E0
8.764310414E0	-2.831307411E0	7.956135273E0	-2.183450699E0
8.772713435E0	-1.797009826E0	7.920841217E0	-5.132604837E-1
8.781116456E0	-1.191027522E0	7.637889862E0	-1.268195957E-1
8.789519476E0	-8.027920127E-1	7.568498135E0	-9.816554785E-1
8.797922497E0	-6.640082598E-1	8.180462837E0	-1.124028444E0
8.806325518E0	-6.448656917E-1	8.882157326E0	-6.735795736E-1
8.814728539E0	-4.498506486E-1	9.446864128E0	-6.478567123E-1
8.823131560E0	-1.322034448E-1	9.857831001E0	-8.727820516E-1
8.831534581E0	1.854437590E-1	9.921240807E0	-8.937192559E-1
8.839937601E0	4.869394004E-1	9.592825890E0	-8.015955687E-1
8.848340622E0	6.765705943E-1	9.235696793E0	-5.455635786E-1
8.856743643E0	7.722834945E-1	9.244669914E0	-3.649054468E-1
8.865146664E0	7.902296782E-1	9.613762856E0	-2.512463629E-1
8.873549685E0	9.104689956E-1	1.014855862E1	-1.890329868E-1
8.881952706E0	1.175474167E0	1.061396313E1	-2.632105052E-1
8.890355726E0	1.467996716E0	1.073240757E1	-3.337987661E-1
8.898758747E0	1.766501307E0	1.068873882E1	-2.739782035E-1
8.907161768E0	2.018944025E0	1.060319519E1	-2.632105052E-1
8.915564789E0	2.350948334E0	1.058524895E1	-4.211367965E-1
8.923967810E0	2.584846735E0	1.062652493E1	-3.188436031E-1
8.932370831E0	2.771486759E0	1.065763187E1	-2.410768867E-1
8.940773851E0	3.056830883E0	1.065583706E1	-4.259224236E-1
8.949176872E0	3.399004459E0	1.072702408E1	-5.850451589E-1
8.957579893E0	3.756731510E0	1.088255692E1	-6.227321029E-1
8.965982914E0	4.033102512E0	1.096032429E1	-5.712863803E-1
8.974385935E0	4.144368649E0	1.091246796E1	-4.588237405E-1
8.982788956E0	4.037888050E0	1.078146076E1	-2.608176768E-1
8.991191976E0	3.804588079E0	1.063968563E1	-3.128615618E-1
8.999594997E0	3.570689678E0	1.057807064E1	-5.090730190E-1
9.007998018E0	3.574278831E0	1.080299568E1	-3.308077157E-1
9.016401039E0	3.622733593E0	1.080359459E1	-7.728816867E-1
9.024804060E0	3.535993576E0	1.047398281E1	-1.128814101E0
9.033207081E0	3.402593851E0	1.023290634E1	-2.333002090E-1
9.041610101E0	3.448655605E0	9.904491425E0	3.002992272E-1
9.050013122E0	3.859622955E0	9.515657425E0	-2.033899166E-2
9.058416143E0	4.417150497E0	9.513264656E0	-1.292124242E-1
9.066819164E0	4.716253281E0	9.622138023E0	-6.185446382E-1
9.075222185E0	4.686343193E0	9.789635658E0	-1.092323542E0
9.083625206E0	4.226323128E0	9.953543663E0	-7.794619799E-1
9.092028226E0	3.708875179E0	1.000738239E1	-3.649054468E-1
9.100431247E0	3.562314749E0	9.793823242E0	-2.961117923E-1
9.108834268E0	3.897907972E0	9.468399048E0	-4.402793646E-1
9.117237289E0	4.615755081E0	9.346963882E0	-4.779663086E-1
9.125640310E0	5.402395248E0	9.281759262E0	-3.002992272E-1
9.134043331E0	6.037091732E0	9.189037323E0	-5.084748194E-2
9.142446351E0	6.422934055E0	8.982057571E0	3.379862010E-1
9.150849372E0	6.500700951E0	8.654241562E0	1.009771109E0
9.159252393E0	6.552744865E0	8.233702660E0	1.250848055E0
9.167655414E0	6.881159782E0	7.867600918E0	1.118046403E0
9.176058435E0	7.641479015E0	7.654639721E0	7.519445419E-1
9.184461456E0	8.637491226E0	7.482954502E0	1.585244983E-1
9.192864476E0	9.272786140E0	7.451249599E0	2.590230405E-1
9.201267497E0	9.010173798E0	7.521838188E0	8.117650747E-1
9.209670518E0	7.891529083E0	7.515855789E0	1.077368379E0
9.218073539E0	6.682555676E0	7.432705402E0	1.095314622E0
9.226476560E0	6.105885029E0	7.281359196E0	1.188036442E0
9.234879581E0	6.247061729E0	7.271189690E0	8.255237937E-1
9.243282601E0	6.237490654E0	7.731808186E0	1.746760458E-1
9.251685622E0	5.375475883E0	1.045424175E1	-3.188436270E0
9.260088643E0	2.268395901E0	1.718226051E1	-3.865006685E0
9.268491664E0	-5.584249973E0	2.464786720E1	4.106083870E0
9.276894685E0	-1.902952003E1	2.452882576E1	4.459623337E0
9.285297706E0	-1.850728607E1	1.589910984E1	-6.972685337E0
9.293700726E0	-1.077906799E1	8.237292290E0	-1.004566765E1
9.302103747E0	-3.608376503E0	5.058426857E0	-7.953144073E0
9.310506768E0	1.970489502E0	5.743372440E0	-3.519842148E0
9.318909789E0	6.360122681E0	8.854042053E0	1.265803218E0
9.327312810E0	9.856036186E0	1.132522964E1	1.128215909E0
9.335715831E0	1.127677536E1	1.152622700E1	-2.965305567E0
9.344118851E0	9.836296082E0	1.093101215E1	-1.947159410E0
9.352521872E0	6.665207386E0	1.014197922E1	4.182653904E0
9.360924893E0	2.849851847E0	9.248259544E0	8.554341316E0
9.369327914E0	-7.166503668E-1	8.934201241E0	6.149554253E0
9.377730935E0	-3.570689678E0	9.074181557E0	1.622931957E0
9.386133956E0	-4.963312149E0	9.222537041E0	-1.164108157E0
9.394536976E0	-3.893122435E0	9.308678627E0	-2.195414782E0
9.402939997E0	-9.924231768E-1	9.909874916E0	-1.269990563E0
9.411343018E0	1.607378602E0	1.063908768E1	3.918247223E-1
9.419746039E0	2.991626501E0	1.079342461E1	1.518844128E0
9.428149060E0	3.074777126E0	1.028076267E1	2.132603168E0
9.436552081E0	3.084348440E0	1.012821960E1	1.974078655E0
9.444955101E0	2.661417007E0	9.747760773E0	1.213759303E0
9.453358122E0	1.927418590E0	9.367900848E0	1.126421213E0
9.461761143E0	1.262213945E0	9.448657990E0	1.338784218E0
9.470164164E0	6.975077987E-1	9.412766457E0	1.040877819E0
9.478567185E0	5.569294691E-1	9.620343208E0	3.972085714E-1
9.486970206E0	7.686942816E-1	9.986445427E0	3.798605800E-1
9.495373226E0	1.094118118E0	9.984650612E0	9.421738982E-1
9.503776247E0	1.487139225E0	9.767501831E0	1.053440213E0
9.512179268E0	1.787438512E0	9.600603104E0	7.812566161E-1
9.520582289E0	1.965703845E0	9.668199539E0	7.680960894E-1
9.528985310E0	2.079961061E0	9.692726135E0	6.460621357E-1
9.537388331E0	2.194218397E0	9.734601021E0	1.591227055E-1
9.545791351E0	2.225923300E0	9.856635094E0	-3.116651475E-1
9.554194372E0	2.171486616E0	9.932606697E0	-3.140579760E-1
9.562597393E0	2.033301115E0	9.860223770E0	-2.027917206E-1
9.571000414E0	1.902294040E0	9.824331284E0	-2.255235314E-1
9.579403435E0	1.787438512E0	9.774680138E0	7.776673883E-2
9.587806456E0	1.737189293E0	9.649655342E0	3.140579760E-1
9.596209476E0	1.807777524E0	9.555138588E0	5.605186820E-1
9.604612497E0	1.936989903E0	9.558728218E0	6.909275651E-1
9.613015518E0	2.009970903E0	9.550353050E0	8.536394835E-1
9.621418539E0	2.007578135E0	9.558728218E0	8.338986635E-1
9.629821560E0	1.938784599E0	9.566504478E0	7.298108935E-1
9.638224581E0	1.779063582E0	9.491728783E0	7.812566161E-1
9.646627601E0	1.606182218E0	9.466604233E0	9.134600163E-1
9.655030622E0	1.519442320E0	9.546764374E0	8.488538265E-1
9.663433643E0	1.507478237E0	9.559326172E0	7.172485590E-1
9.671836664E0	1.599601984E0	9.564710617E0	6.873382926E-1
9.680239685E0	1.772483349E0	9.558130264E0	7.106683254E-1
9.688642706E0	1.869990945E0	9.515657425E0	6.843472719E-1
9.697045726E0	1.830509305E0	9.445667267E0	6.101697683E-1
9.705448747E0	1.765304923E0	9.409774780E0	5.676971674E-1
9.713851768E0	1.752144337E0	9.447462082E0	4.809573591E-1
9.722254789E0	1.690529227E0	9.461220741E0	5.036891699E-1
9.730657810E0	1.569093466E0	9.432506561E0	6.149554253E-1
9.739060831E0	1.458425403E0	9.418747902E0	6.263213158E-1
9.747463851E0	1.409970760E0	9.523433685E0	5.934200287E-1
9.755866872E0	1.381855130E0	9.622735977E0	6.717849374E-1
9.764269893E0	1.462014675E0	9.739984512E0	5.659025311E-1
9.772672914E0	1.596610904E0	9.766903877E0	2.129612118E-1
9.781075935E0	1.665404558E0	9.708279610E0	2.632104978E-2
9.789478956E0	1.640279889E0	9.709476471E0	2.476571500E-1
9.797881976E0	1.560718536E0	9.809376717E0	4.498506486E-1
9.806284997E0	1.417747378E0	9.836296082E0	5.814558864E-1
9.814688018E0	1.366899967E0	9.853643417E0	5.623133183E-1
9.823091039E0	1.502094388E0	9.879964828E0	4.713860750E-1
9.831494060E0	1.695913076E0	9.908679008E0	4.199403822E-1
9.839897081E0	1.868794441E0	9.967901230E0	3.858426511E-1
9.848300101E0	1.996212244E0	1.001276588E1	3.649054468E-1
9.856703122E0	2.087737799E0	9.988240242E0	2.087737769E-1
9.865106143E0	2.141576290E0	1.000738239E1	3.571287692E-1
9.873509164E0	2.136192322E0	1.017846966E1	5.617151260E-1
9.881912185E0	2.075773716E0	1.030169964E1	7.429714203E-1
9.890315206E0	2.065006018E0	1.051466084E1	7.663014531E-1
9.898718226E0	2.105085611E0	1.086640549E1	6.514459848E-1
9.907121247E0	2.154138565E0	1.151186943E1	6.723831892E-1
9.915524268E0	2.179263115E0	1.255514050E1	7.190431952E-1
9.923927289E0	2.117049932E0	1.352303696E1	4.570291340E-1
9.932330310E0	1.958525300E0	1.408056450E1	-3.140579760E-1
9.940733331E0	1.653440475E0	1.407398415E1	-1.328614831E0
9.949136351E0	1.133001566E0	1.366421413E1	-2.003988981E0
9.957539372E0	6.951149702E-1	1.328136253E1	-2.301297188E0
9.965942393E0	6.221339107E-1	1.329691505E1	-2.241476536E0
9.974345414E0	7.501499057E-1	1.348235893E1	-2.300100803E0
9.982748435E0	9.936196208E-1	1.361456299E1	-1.725823283E0
9.991151456E0	1.432104349E0	1.384905910E1	-1.289731383E0
9.999554476E0	1.872383714E0	1.387717533E1	-7.830511928E-1
1.000795750E1	1.996212244E0	1.353500175E1	5.132604837E-1
1.001636052E1	2.091326952E0	1.272144127E1	1.276570916E0
1.002476354E1	2.789433002E0	1.168295670E1	6.873382926E-1
1.003316656E1	4.275974274E0	1.128694439E1	8.171489239E-1
1.004156958E1	5.666203976E0	1.129771233E1	1.746760488E0
1.004997260E1	6.202196121E0	1.126540947E1	2.389233351E0
1.005837562E1	5.464608669E0	1.088375378E1	2.189432621E0
1.006677864E1	3.855435371E0	1.032263660E1	1.649851203E0
1.007518166E1	2.258824587E0	9.723833084E0	1.427916884E0
1.008358468E1	1.336989641E0	9.244669914E0	1.404586911E0
1.009198771E1	1.573280931E0	9.043673515E0	7.220342159E-1
1.010039073E1	2.340778828E0	9.050253868E0	5.982056856E-1
1.010879375E1	2.821736097E0	9.143573761E0	7.890332937E-1
1.011719677E1	2.359921217E0	9.378069878E0	1.259222865E0
1.012559979E1	1.511665702E0	9.182456970E0	2.626122832E-1
1.013400281E1	1.369292736E0	8.889934540E0	-2.663809776E0
1.014240583E1	8.159525394E-1	8.536993027E0	-8.135597110E-1
1.015080885E1	-3.433700502E-1	7.363911629E0	7.339983582E-1
1.015921187E1	-1.348355532E0	5.991627693E0	-1.429711580E-1
1.016761489E1	-2.085345030E0	5.278566837E0	-5.407779217E-1
1.017601791E1	-2.433500528E0	5.181657314E0	-1.369891018E-1
1.018442094E1	-2.158924341E0	5.493322372E0	-1.537388563E-1
1.019282396E1	-1.496112347E0	6.143572330E0	-3.170489967E-1
1.020122698E1	-7.848458290E-1	6.877570629E0	-3.050848842E-1
1.020963000E1	-2.494517565E-1	7.310073376E0	-3.870390654E-1
1.021803302E1	7.357929647E-2	7.444669247E0	-3.822534084E-1
1.022643604E1	3.194418252E-1	7.381259441E0	-3.553341627E-1
1.023483906E1	6.783652306E-1	7.293323517E0	-4.402793646E-1
1.024324208E1	1.144367456E0	7.421937466E0	-5.970092416E-1
1.025164510E1	1.484746456E0	7.753942013E0	-5.096712112E-1
1.026004812E1	1.625923038E0	8.167900085E0	-4.366901219E-1
1.026845114E1	1.658226132E0	8.592626572E0	-6.269195080E-1
1.027685416E1	1.682752490E0	8.986844063E0	-7.495517135E-1
1.028525718E1	1.826920033E0	9.355937004E0	-7.214360237E-1
1.029366021E1	2.167897224E0	9.638289452E0	-9.308080077E-1
1.030206323E1	2.614757061E0	9.996016502E0	-1.101296663E0
1.031046625E1	3.041277647E0	1.049192905E1	-1.044467092E0
1.031886927E1	3.439084291E0	1.102134132E1	-8.362914920E-1
1.032727229E1	3.911666870E0	1.141077328E1	-5.982056856E-1
1.033567531E1	4.527220249E0	1.151665497E1	-6.933203340E-1
1.034407833E1	5.212165833E0	1.151545906E1	-8.518448472E-1
1.035248135E1	5.770291805E0	1.153220844E1	-6.251249313E-1
1.036088437E1	5.944369793E0	1.157109165E1	-2.350948304E-1
1.036928739E1	5.675775528E0	1.151306629E1	4.785645287E-3
1.037769041E1	5.132006168E0	1.146999550E1	-1.794616925E-3
1.038609344E1	4.545166492E0	1.145563793E1	-9.930214286E-2
1.039449646E1	4.220939159E0	1.145025444E1	-1.537388563E-1
1.040289948E1	4.256233215E0	1.139581776E1	-5.617151260E-1
1.041130250E1	4.697709084E0	1.131147099E1	-3.266202807E-1
1.041970552E1	5.625525951E0	1.154178047E1	3.690928817E-1
1.042810854E1	6.592226505E0	1.114816093E1	-6.251249313E-1
1.043651156E1	7.345367432E0	1.068156052E1	-1.620539188E0
1.044491458E1	7.864609718E0	1.073599720E1	-1.607378602E0
1.045331760E1	8.108677864E0	1.065464115E1	-1.463809252E0
1.046172062E1	8.417949677E0	1.019162941E1	-1.395613790E0
1.047012364E1	8.978468895E0	9.502496719E0	2.392822690E-2
1.047852666E1	9.883553505E0	8.809176445E0	1.207777262E0
1.048692968E1	1.118465137E1	8.352746010E0	8.542376757E-1
1.049533271E1	1.222672558E1	8.286943436E0	4.295116663E-1
1.050373573E1	1.227458191E1	8.308478355E0	5.042873621E-1
1.051213875E1	1.094237804E1	8.319844246E0	6.801598072E-1
1.052054177E1	9.013762474E0	7.963313580E0	4.223332107E-1
1.052894479E1	7.345367432E0	7.581658363E0	8.045865893E-1
1.053734781E1	6.176473618E0	7.411767960E0	1.273579836E0
1.054575083E1	5.516054630E0	7.276573658E0	9.553344250E-1
1.055415385E1	5.328217983E0	7.637291908E0	2.213360928E-2
1.056255687E1	5.280361176E0	9.157332420E0	-9.912267923E-1
1.057095989E1	4.574478626E0	1.208195972E1	-1.896910191E0
1.057936291E1	2.120639086E0	1.661277008E1	4.193421602E-1
1.058776594E1	-2.580060959E0	2.095454597E1	5.909673691E0
1.059616896E1	-8.768498421E0	2.174836540E1	5.006981373E0
1.060457198E1	-1.142333508E1	1.658764458E1	-4.142574310E0
1.061297500E1	-9.245268822E0	1.042014408E1	-8.575278282E0
1.062137802E1	-5.074578762E0	6.906284332E0	-6.468397617E0
1.062978104E1	-9.481559992E-1	6.217151642E0	-1.634297848E0
1.063818406E1	2.888136864E0	7.031907558E0	4.360919297E-1
1.064658708E1	6.359524250E0	8.315058708E0	-6.999006271E-1
1.065499010E1	8.471788406E0	9.575477600E0	-2.621337175E0
1.066339312E1	8.177471161E0	1.050867844E1	-1.860419631E0
1.067179614E1	6.084948063E0	1.120977592E1	1.030708313E0
1.068019916E1	3.466003656E0	1.141555882E1	3.343371391E0
1.068860218E1	1.095912814E0	1.105304623E1	3.165704250E0
1.069700521E1	-1.042672515E0	1.048654556E1	1.756331801E0
1.070540823E1	-2.727219582E0	1.000020409E1	1.094716340E-1
1.071381125E1	-3.597608805E0	9.555737495E0	-9.254241586E-1
1.072221427E1	-3.051447153E0	9.290133476E0	-1.007378340E0
1.073061729E1	-1.496710539E0	9.568299294E0	-4.785645287E-3
1.073902031E1	-5.742774159E-2	9.960722923E0	1.437488198E0
1.074742333E1	6.418746710E-1	9.993623734E0	2.290529490E0
1.075582635E1	1.006181955E0	9.990633011E0	2.111665964E0
1.076422937E1	1.349551916E0	1.009711361E1	1.548156261E0
1.077263239E1	1.454237938E0	9.793225288E0	1.293918848E0
1.078103541E1	1.657627940E0	9.652647018E0	1.249053478E0
1.078943844E1	1.601994753E0	9.503094673E0	1.205384374E0
1.079784146E1	1.293320656E0	9.462417603E0	1.345962763E0
1.080624448E1	9.762716293E-1	9.695118904E0	8.416753411E-1
1.081464750E1	8.656035662E-1	1.011565781E1	3.008974493E-1
1.082305052E1	6.305087805E-1	1.013061333E1	4.594219327E-1
1.083145354E1	4.055834413E-1	9.793823242E0	6.735795736E-1
1.083985656E1	3.487538993E-1	9.554540634E0	5.431707501E-1
1.084825958E1	5.210371017E-1	9.580862045E0	4.372883439E-1
1.085666260E1	8.344969153E-1	9.648459435E0	4.630111754E-1
1.086506562E1	1.207777262E0	9.606584549E0	5.324030519E-1
1.087346864E1	1.609771490E0	9.585647583E0	5.449653864E-1
1.088187166E1	1.948355794E0	9.583852768E0	6.753742099E-1
1.089027469E1	2.129014015E0	9.616155624E0	5.641079545E-1
1.089867771E1	2.097907305E0	9.647860527E0	4.552344978E-1
1.090708073E1	1.835893154E0	9.628718376E0	5.114658475E-1
1.091548375E1	1.448255897E0	9.622138023E0	5.401797295E-1
1.092388677E1	1.073779106E0	9.622735977E0	4.785645306E-1
1.093228979E1	8.033902049E-1	9.644271851E0	3.678964674E-1
1.094069281E1	7.034898400E-1	9.674779892E0	4.707878530E-1
1.094909583E1	7.818548083E-1	9.622735977E0	7.363911867E-1
1.095749885E1	1.030708313E0	9.547362328E0	9.008977413E-1
1.096590187E1	1.423131227E0	9.480362892E0	8.560323119E-1
1.097430489E1	1.831107497E0	9.476176262E0	7.561319470E-1
1.098270791E1	2.164906263E0	9.595816612E0	8.069794178E-1
1.099111094E1	2.335394859E0	9.776474953E0	7.716853023E-1
1.099951396E1	2.114058733E0	9.659825325E0	5.371887088E-1
1.100791698E1	1.762912035E0	9.494122505E0	4.055834413E-1
1.101632000E1	1.507478237E0	9.424730301E0	4.360919297E-1
1.102472302E1	1.450050473E0	9.363713264E0	3.684946895E-1
1.103312604E1	1.597209096E0	9.375677109E0	1.196411327E-1
1.104152906E1	1.820937991E0	9.422935486E0	-3.332005441E-1
1.104993208E1	1.966900229E0	9.585647583E0	-2.494517565E-1
1.105833510E1	2.058425665E0	9.814162254E0	9.032905847E-2
1.106673812E1	2.080559254E0	9.900303841E0	9.511470050E-2
1.107514114E1	2.091326952E0	9.853643417E0	2.458625287E-1
1.108354416E1	2.158325911E0	9.673583984E0	3.206382394E-1
1.109194718E1	2.101496458E0	9.549755096E0	4.187439680E-1
1.110035021E1	1.967498422E0	9.497711182E0	4.695914388E-1
1.110875323E1	1.915454507E0	9.635896683E0	3.948157430E-1
1.111715625E1	1.932204247E0	9.920044899E0	4.283152521E-1
1.112555927E1	2.030309916E0	1.013599682E1	2.171486616E-1
1.113396229E1	2.179861546E0	1.020837975E1	1.740778536E-1
1.114236531E1	2.309073925E0	1.017966557E1	3.655036688E-1
1.115076833E1	2.385644197E0	1.008993530E1	3.511467278E-1
1.115917135E1	2.390429735E0	1.007497978E1	4.049852192E-1
1.116757437E1	2.456830740E0	1.001336479E1	3.086741269E-1
1.117597739E1	2.258226395E0	1.023170948E1	5.006981492E-1
1.118438041E1	1.612762451E0	1.037228775E1	3.559323549E-1
1.119278344E1	1.196411371E0	1.057866859E1	-7.178467698E-3
1.120118646E1	1.065404296E0	1.110987568E1	4.007977843E-1
1.120958948E1	9.487541914E-1	1.191745281E1	7.591229677E-1
1.121799250E1	8.476574421E-1	1.314556980E1	9.296116233E-1
1.122639552E1	8.925228715E-1	1.465424442E1	5.808576941E-1
1.123479854E1	1.155733347E0	1.565384579E1	-8.757730722E-1
1.124320156E1	9.846464992E-1	1.550190163E1	-1.929811478E0
1.125160458E1	1.854437590E-1	1.448016644E1	-2.641676188E0
1.126000760E1	-7.310073376E-1	1.348953724E1	-2.936591625E0
1.126841062E1	-1.249651670E0	1.313898945E1	-2.419143677E0
1.127681364E1	-1.282552958E0	1.340279770E1	-1.672582984E0
1.128521666E1	-8.069794178E-1	1.406979752E1	-6.059823632E-1
1.129361969E1	7.854440212E-1	1.454417419E1	-1.562513232E0
1.130202271E1	2.687737942E0	1.493480206E1	-1.771286964E0
1.131042573E1	3.847060680E0	1.477388477E1	-7.974081635E-1
1.131882875E1	4.133002758E0	1.373599815E1	-4.540380836E-1
1.132723177E1	4.022933006E0	1.241874981E1	-4.307080805E-2
1.133563479E1	4.049852371E0	1.156511021E1	7.202396393E-1
1.134403781E1	4.037290096E0	1.137189007E1	1.757528186E0
1.135244083E1	3.495913982E0	1.141735363E1	1.759921074E0
1.136084385E1	2.529213428E0	1.127198887E1	9.014959335E-1
1.136924687E1	1.718644857E0	1.083529949E1	5.090730190E-1
1.137764989E1	1.576271892E0	1.015394306E1	7.345965505E-1
1.138605291E1	2.053041935E0	9.498908043E0	1.121037364E0
1.139445594E1	2.593819857E0	9.207581520E0	1.124028444E0
1.140285896E1	2.885145903E0	9.217152596E0	9.834501147E-1
1.141126198E1	2.870190859E0	9.321838379E0	7.567301393E-1
1.141966500E1	2.600399971E0	9.318847656E0	8.231309652E-1
1.142806802E1	1.967498422E0	9.206983566E0	5.000999570E-1
1.143647104E1	1.207777262E0	8.821739197E0	-5.886343718E-1
1.144487406E1	1.399801254E0	8.349156380E0	-1.805982947E0
1.145327708E1	1.719841242E0	7.549953461E0	-3.409772366E-2
1.146168010E1	1.533201098E0	6.482754707E0	1.195214868E0
1.147008312E1	1.113260746E0	5.642275810E0	8.679963946E-1
1.147848614E1	6.466603279E-1	5.556732178E0	3.834498227E-1
1.148688916E1	8.075776696E-2	5.771488190E0	2.554338276E-1
1.149529218E1	-3.110669553E-1	5.989234924E0	7.178467698E-3
1.150369521E1	-3.900300860E-1	6.186643124E0	-3.343969584E-1
1.151209823E1	-3.290131092E-1	6.263213158E0	-5.856433511E-1
1.152050125E1	-1.698904037E-1	6.208178520E0	-7.208378315E-1
1.152890427E1	1.878365725E-1	6.196812630E0	-9.385846853E-1
1.153730729E1	6.741777658E-1	6.322435856E0	-1.107278705E0
1.154571031E1	1.027119160E0	6.480959892E0	-8.303094506E-1
1.155411333E1	1.319641709E0	6.577271461E0	-6.849454641E-1
1.156251635E1	1.665404558E0	6.774080753E0	-8.374879360E-1
1.157091937E1	1.892722726E0	7.183253765E0	-9.032905698E-1
1.157932239E1	1.987837434E0	7.654041290E0	-1.084546804E0
1.158772541E1	2.133201361E0	8.038089752E0	-1.453639746E0
1.159612844E1	2.449054003E0	8.312665939E0	-1.661815286E0
1.160453146E1	2.666202545E0	8.529216766E0	-1.673181176E0
1.161293448E1	2.697907448E0	8.795417786E0	-1.558923960E0
1.162133750E1	2.431705952E0	9.145966530E0	-1.354935765E0
1.162974052E1	2.051247120E0	9.581459999E0	-1.317847013E0
1.163814354E1	1.746162295E0	1.011386299E1	-1.353141189E0
1.164654656E1	1.605584025E0	1.072223854E1	-1.212562919E0
1.165494958E1	1.667199135E0	1.116132164E1	-9.559326172E-1
1.166335260E1	2.025524378E0	1.128514957E1	-7.286145091E-1
1.167175562E1	2.811566591E0	1.123370457E1	-8.997012973E-1
1.168015864E1	4.092923164E0	1.143171024E1	-1.146162033E0
1.168856166E1	5.679364681E0	1.196531010E1	-9.690931439E-1
1.169696469E1	7.103692055E0	1.246959686E1	-7.250252366E-1
1.170536771E1	8.055437088E0	1.263888931E1	-2.410768867E-1
1.171377073E1	8.553742409E0	1.242413330E1	8.494520187E-2
1.172217375E1	8.755337715E0	1.204008579E1	1.914258115E-2
1.173057677E1	8.869595528E0	1.209751320E1	1.268195957E-1
1.173897979E1	8.633303642E0	1.179900837E1	-6.705885530E-1
1.174738281E1	8.169694901E0	1.133719349E1	-1.089332461E0
1.175578583E1	8.015955925E0	1.119661522E1	-8.560323119E-1
1.176418885E1	8.458627701E0	1.101177025E1	-5.688936114E-1
1.177259187E1	9.288937569E0	1.062114143E1	2.566302419E-1
1.178099489E1	9.906285286E0	9.712467194E0	8.865407705E-1
1.178939791E1	1.042253685E1	8.792427063E0	1.513460279E0
1.179780094E1	1.076530933E1	8.779864311E0	1.645663738E0
1.180620396E1	1.065583706E1	8.125427246E0	5.156532526E-1
1.181460698E1	1.012044334E1	7.011568546E0	3.026920557E-1
1.182301000E1	9.346364975E0	6.616752625E0	4.767699242E-1
1.183141302E1	8.961718559E0	6.618547440E0	-5.228317380E-1
1.183981604E1	9.299106598E0	6.942774773E0	-1.241276741E0
1.184821906E1	9.662816048E0	7.296912670E0	-1.144965649E0
1.185662208E1	9.253045082E0	8.275577545E0	-1.217946768E0
1.186502510E1	7.198208809E0	1.151127148E1	-3.230908871E0
1.187342812E1	2.229512453E0	1.830150414E1	-2.222334146E0
1.188183114E1	-8.218149185E0	2.665544510E1	7.304090977E0
1.189023416E1	-2.556431961E1	2.589572525E1	8.921639442E0
1.189863718E1	-2.284308052E1	1.458664703E1	-7.129415035E0
1.190704021E1	-1.210349560E1	6.360720634E0	-1.173799133E1
1.191544323E1	-2.980858803E0	3.527618885E0	-9.287740707E0
1.192384625E1	2.786442041E0	4.974080086E0	-1.821536183E0
1.193224927E1	7.858029366E0	8.478966713E0	3.940380573E0
1.194065229E1	1.336630726E1	1.186540890E1	1.671386600E0
1.194905531E1	1.613241005E1	1.312941742E1	-1.536790371E0
1.195745833E1	1.315514088E1	1.241097260E1	7.070791125E-1
1.196586135E1	7.918448448E0	1.083709335E1	4.680361271E0
1.197426437E1	3.182454109E0	9.628718376E0	7.222136974E0
1.198266739E1	-7.040880919E-1	9.302098274E0	7.210172653E0
1.199107041E1	-3.845864296E0	9.331410408E0	2.761317253E0
1.199947344E1	-5.790032387E0	9.731609344E0	-3.033500910E0
1.200787646E1	-5.773283005E0	1.017966557E1	-6.349354744E0
1.201627948E1	-3.326023579E0	1.046022415E1	-3.996013880E0
1.202468250E1	-2.105683982E-1	1.038604641E1	6.167500615E-1
1.203308552E1	2.251646042E0	1.017428207E1	2.593221426E0
1.204148854E1	3.616751432E0	9.993025780E0	1.813161373E0
1.204989156E1	3.655634880E0	9.817750931E0	8.494520187E-1
1.205829458E1	2.867797852E0	9.809376717E0	5.048855543E-1
1.206669760E1	1.819143414E0	9.937990189E0	9.439685345E-1
1.207510062E1	1.154536963E0	1.032562828E1	1.715653777E0
1.208350364E1	1.435693651E-1	9.994820595E0	1.498505235E0
1.209190666E1	-4.396811724E-1	9.625128746E0	1.335195065E0
1.210030969E1	-1.609173268E-1	9.724431038E0	6.664010882E-1
1.210871271E1	4.384847581E-1	9.818947792E0	3.260220885E-1
1.211711573E1	5.802595019E-1	9.568299294E0	9.607182741E-1
1.212551875E1	5.270192027E-1	9.464211464E0	1.561915040E0
1.213392177E1	4.947160780E-1	9.692726135E0	1.123430252E0
1.214232479E1	5.096712112E-1	1.001156998E1	4.426721931E-1
1.215072781E1	5.736792088E-1	1.015155029E1	2.685943544E-1
1.215913083E1	6.705885530E-1	1.003071213E1	5.653043389E-1
1.216753385E1	6.460621357E-1	9.803394318E0	9.810572863E-1
1.217593687E1	3.864408433E-1	9.607781410E0	1.139581800E0
1.218433989E1	1.076770201E-1	9.464211464E0	1.170688510E0
1.219274291E1	7.238288224E-2	9.406784058E0	1.146760225E0
1.220114594E1	2.386840582E-1	9.375677109E0	1.162911773E0
1.220954896E1	5.443671346E-1	9.426525116E0	9.900303483E-1
1.221795198E1	9.332008362E-1	9.694520950E0	1.074975610E0
1.222635500E1	1.151545882E0	9.981659889E0	1.540977836E0
1.223475802E1	1.027119160E0	9.946963310E0	1.578066587E0
1.224316104E1	8.440681696E-1	9.717252731E0	1.240678549E0
1.225156406E1	8.530412912E-1	9.528818130E0	9.690931439E-1
1.225996708E1	9.176474810E-1	9.527621269E0	7.830511928E-1
1.226837010E1	8.943174481E-1	9.598808289E0	8.793623447E-1
1.227677312E1	9.212366939E-1	9.647262573E0	8.853443861E-1
1.228517614E1	1.170688510E0	9.617950439E0	7.477570772E-1
1.229357916E1	1.528415442E0	9.592825890E0	7.561319470E-1
1.230198218E1	1.794616938E0	9.588040352E0	9.876375198E-1
1.231038521E1	1.947159410E0	9.585647583E0	1.238883972E0
1.231878823E1	2.000998020E0	9.408578873E0	1.220937729E0
1.232719125E1	2.005185366E0	9.306883812E0	1.395015597E0
1.233559427E1	2.073979139E0	9.185447693E0	1.534397483E0
1.234399729E1	2.222932339E0	9.144769669E0	1.592423439E0
1.235240031E1	2.314457655E0	9.035298347E0	1.498505235E0
1.236080333E1	2.357528448E0	8.979066849E0	1.196411371E0
1.236920635E1	2.324627161E0	9.078967094E0	6.574280262E-1
1.237760937E1	2.221137524E0	9.305088997E0	4.809573591E-1
1.238601239E1	2.044667006E0	9.540781975E0	6.221339107E-1
1.239441541E1	1.854437590E0	9.569496155E0	5.377869010E-1
1.240281844E1	1.886740685E0	9.616155624E0	1.501496136E-1
1.241122146E1	2.045265198E0	9.803394318E0	4.079762697E-1
1.241962448E1	2.242672920E0	9.975079536E0	1.956132501E-1
1.242802750E1	2.290529490E0	1.012044334E1	-1.621137410E-1
1.243643052E1	2.072184324E0	1.014676476E1	-4.181457460E-1
1.244483354E1	1.686341763E0	1.018983555E1	-4.959124923E-1
1.245323656E1	1.517647743E0	1.028495026E1	-6.149554253E-1
1.246163958E1	1.727019787E0	1.043509960E1	-6.927221417E-1
1.247004260E1	2.194816589E0	1.058046341E1	-6.424728632E-1
1.247844562E1	2.712862730E0	1.061037350E1	-6.640082598E-1
1.248684864E1	3.120240688E0	1.064985561E1	-4.534398913E-1
1.249525166E1	3.277568817E0	1.072283649E1	-1.842473447E-1
1.250365468E1	3.149552822E0	1.088255692E1	-1.621137410E-1
1.251205771E1	2.876172781E0	1.122293663E1	-2.572284266E-2
1.252046073E1	2.609971285E0	1.165723324E1	1.256231871E-2
1.252886375E1	2.402992249E0	1.235534000E1	7.537391037E-2
1.253726677E1	2.199003935E0	1.334596825E1	3.828516230E-2
1.254566979E1	1.791027784E0	1.415175152E1	-5.347958803E-1
1.255407281E1	1.180858016E0	1.441017628E1	-1.583450437E0
1.256247583E1	2.590230405E-1	1.411346626E1	-2.315654039E0
1.257087885E1	-6.915257573E-1	1.339143181E1	-3.026322365E0
1.257928187E1	-1.215553880E0	1.255274773E1	-3.477369547E0
1.258768489E1	-9.176474810E-1	1.237866974E1	-3.632902861E0
1.259608791E1	-1.495514214E-1	1.271725368E1	-1.669592023E0
1.260449094E1	1.358525038E0	1.254018497E1	-5.018945336E-1
1.261289396E1	3.763311863E0	1.213579845E1	4.719842672E-1
1.262129698E1	6.648457527E0	1.169551849E1	2.067398787E0
1.262970000E1	9.414560318E0	1.123968601E1	2.879163742E0
1.263810302E1	1.124088287E1	1.111107159E1	2.980858803E0
1.264650604E1	1.128036404E1	1.152861977E1	3.125026464E0
1.265490906E1	9.279964447E0	1.178824043E1	2.893520832E0
1.266331208E1	6.483951092E0	1.159561825E1	2.104487419E0
1.267171510E1	3.921836376E0	1.112602711E1	9.810572863E-1
1.268011812E1	1.954936147E0	1.049731255E1	3.230310678E-1
1.268852114E1	7.531409264E-1	9.973882675E0	4.905286431E-2
1.269692416E1	9.631111473E-2	9.348159790E0	-3.553341627E-1
1.270532719E1	-1.872383654E-1	9.040681839E0	5.982056726E-3
1.271373021E1	-2.673979402E-1	8.840881348E0	5.802594870E-2
1.272213323E1	6.388836503E-1	9.056235313E0	-2.763710260E0
1.273053625E1	1.404586911E0	9.276374817E0	-6.753742099E-1
1.273893927E1	1.283151150E0	8.538188934E0	2.081157446E0
1.274734229E1	7.417750359E-1	7.217351437E0	2.237887383E0
1.275574531E1	1.579262912E-1	6.315257072E0	1.302293777E0
1.276414833E1	-5.509474277E-1	5.885745525E0	1.099501967E0
1.277255135E1	-9.493523836E-1	5.604588985E0	7.932206988E-1
1.278095437E1	-8.099704385E-1	5.799005508E0	3.134597540E-1
1.278935739E1	-4.163511395E-1	6.281757832E0	-2.991028363E-3
1.279776041E1	9.930214286E-2	6.715456963E0	-2.841476798E-1
1.280616344E1	5.042873621E-1	6.742375851E0	-5.270192027E-1
1.281456646E1	7.196413875E-1	6.509075642E0	-7.142575383E-1
1.282296948E1	7.734799385E-1	6.192026615E0	-5.676971674E-1
1.283137250E1	8.321040869E-1	5.965306759E0	-2.805584669E-1
1.283977552E1	1.001396298E0	5.949155331E0	8.015955985E-2
1.284817854E1	1.305284739E0	6.181857109E0	2.237289101E-1
1.285658156E1	1.631905079E0	6.624529362E0	1.651047617E-1
1.286498458E1	1.841277003E0	7.092924595E0	1.381855011E-1
1.287338760E1	2.051247120E0	7.500302792E0	1.962114573E-1
1.288179062E1	2.309672117E0	7.877171993E0	2.769692242E-1
1.289019364E1	2.605185747E0	8.242675781E0	3.188436031E-1
1.289859666E1	2.732603550E0	8.448458672E0	4.857429862E-1
1.290699968E1	2.837887764E0	8.795417786E0	6.263213158E-1
1.291540271E1	2.994617462E0	9.126225471E0	6.771687865E-1
1.292380573E1	3.113660574E0	9.482755661E0	4.534398913E-1
1.293220875E1	3.192025423E0	9.809974670E0	4.438686073E-1
1.294061177E1	3.426522017E0	1.015394306E1	4.253242314E-1
1.294901479E1	3.902693748E0	1.052662468E1	3.900300860E-1
1.295741781E1	4.463212490E0	1.089811039E1	4.797609448E-1
1.296582083E1	4.931607246E0	1.121815109E1	5.018945336E-1
1.297422385E1	5.228915691E0	1.145803165E1	4.755735099E-1
1.298262687E1	5.238486767E0	1.154596710E1	3.696911037E-1
1.299102989E1	5.111667156E0	1.160339546E1	6.041877344E-2
1.299943291E1	4.963312149E0	1.172423267E1	-5.802594870E-2
1.300783594E1	4.746761799E0	1.183669567E1	3.349951655E-2
1.301623896E1	4.554139614E0	1.197308636E1	5.922235921E-2
1.302464198E1	4.648057938E0	1.237807178E1	2.327020019E-1
1.303304500E1	4.961517811E0	1.268375492E1	-9.391828626E-2
1.304144802E1	5.192425251E0	1.250429249E1	-6.071787477E-1
1.304985104E1	5.245067120E0	1.215135193E1	-3.708875179E-1
1.305825406E1	5.255835056E0	1.152203941E1	-2.542374134E-1
1.306665708E1	5.506483078E0	1.087717342E1	2.087737769E-1
1.307506010E1	6.328417778E0	1.040578747E1	-4.307080805E-2
1.308346312E1	7.855038643E0	1.026819992E1	-1.896910191E0
1.309186614E1	9.705886841E0	1.060738277E1	-2.641676188E0
1.310026916E1	1.070728302E1	1.082991505E1	-1.493719578E0
1.310867219E1	1.008694363E1	1.036391354E1	7.597211748E-2
1.311707521E1	8.635697365E0	9.339186668E0	4.127618968E-1
1.312547823E1	7.123433113E0	8.450851440E0	7.274180651E-1
1.313388125E1	6.187839508E0	7.920841217E0	2.344966233E-1
1.314228427E1	5.826523304E0	7.671389580E0	-1.050449133E0
1.315068729E1	5.774479389E0	7.752147198E0	-1.999801517E0
1.315909031E1	5.801996708E0	8.173882484E0	-1.252044439E0
1.316749333E1	5.992226124E0	8.244470596E0	-4.498506486E-1
1.317589635E1	6.233901024E0	7.950751305E0	1.304088384E-1
1.318429937E1	6.531209469E0	7.895118237E0	7.184450030E-1
1.319270239E1	6.439085960E0	8.883354187E0	1.475175142E0
1.320110541E1	5.770890236E0	1.086042404E1	2.608774900E0
1.320950844E1	4.298706055E0	1.314198017E1	3.583251953E0
1.321791146E1	9.445667267E-1	1.577468300E1	7.571488857E0
1.322631448E1	-4.573282242E0	1.748076630E1	9.735198975E0
1.323471750E1	-1.000139999E1	1.676112366E1	7.722834945E-1
1.324312052E1	-1.170389366E1	1.354397392E1	-1.069113159E1
1.325152354E1	-7.818548203E0	1.028016472E1	-1.126899815E1
1.325992656E1	-2.280958176E0	8.976076126E0	-4.645665169E0
1.326832958E1	2.280958176E0	8.675178528E0	1.811366796E0
1.327673260E1	5.360520840E0	8.347960472E0	3.501895905E0
1.328513562E1	6.900302410E0	8.488538742E0	5.802594870E-2
1.329353864E1	7.055237770E0	9.503693581E0	-2.056032896E0
1.330194166E1	6.256632805E0	1.076770210E1	-2.413161755E0
1.331034468E1	5.251049519E0	1.181635666E1	-1.322632670E0
1.331874771E1	4.026522160E0	1.226501083E1	3.822534084E-1
1.332715073E1	2.516651154E0	1.202034473E1	8.805587292E-1
1.333555375E1	3.732803464E-1	1.114696407E1	9.529415965E-1
1.334395677E1	-1.923829436E0	1.007198906E1	1.459621787E-1
1.335235979E1	-3.394817114E0	9.329615593E0	-2.069791555E-1
1.336076281E1	-3.634099483E0	9.055039406E0	-3.080759048E-1
1.336916583E1	-2.669791937E0	9.172885895E0	-2.512463629E-1
1.337756885E1	-1.041476011E0	9.521040916E0	3.972085714E-1
1.338597187E1	7.375875711E-1	1.011147022E1	1.716252089E0
1.339437489E1	1.982453585E0	1.030229759E1	2.522035122E0
1.340277791E1	2.506481647E0	9.748359680E0	2.091925144E0
1.341118094E1	2.633899450E0	9.087342262E0	1.764706731E0
1.341958396E1	2.630908489E0	8.922237396E0	1.792822361E0
1.342798698E1	2.508874655E0	9.380462646E0	1.517049551E0
1.343639000E1	2.094916344E0	1.013779163E1	9.990034699E-1
1.344479302E1	1.455434322E0	1.037468052E1	7.010970116E-1
1.345319604E1	9.750752449E-1	1.011266708E1	6.143572330E-1
1.346159906E1	7.944171429E-1	9.833903313E0	3.469592929E-1
1.347000208E1	7.944171429E-1	9.798010826E0	1.986042857E-1
1.347840510E1	8.811569214E-1	9.749555588E0	2.871387303E-1
1.348680812E1	1.135394335E0	9.638289452E0	5.976074338E-1
1.349521114E1	1.539781332E0	9.511469841E0	9.451649189E-1
1.350361416E1	1.928615093E0	9.479764938E0	8.991031051E-1
1.351201719E1	2.106282234E0	9.555737495E0	1.057627559E0
1.352042021E1	2.087737799E0	9.624530792E0	1.186840057E0
1.352882323E1	1.956132531E0	9.638887405E0	1.214955688E0
1.353722625E1	1.835294962E0	9.613762856E0	1.080359459E0
1.354562927E1	1.626521230E0	9.521040916E0	1.045065284E0
1.355403229E1	1.315454245E0	9.430712700E0	1.083948612E0
1.356243531E1	1.058824062E0	9.431310654E0	1.087537885E0
1.357083833E1	9.595218897E-1	9.516854286E0	1.067198873E0
1.357924135E1	1.066600680E0	9.585647583E0	1.006780148E0
1.358764437E1	1.309472203E0	9.574879646E0	9.595218897E-1
1.359604739E1	1.545165181E0	9.546165466E0	1.073779106E0
1.360445041E1	1.692921996E0	9.484550476E0	1.240080357E0
1.361285344E1	1.810170293E0	9.466006279E0	1.089332461E0
1.362125646E1	1.786242127E0	9.516854286E0	9.840483069E-1
1.362965948E1	1.593619823E0	9.540184021E0	9.804590940E-1
1.363806250E1	1.384846091E0	9.543174744E0	8.602197170E-1
1.364646552E1	1.282552958E0	9.524032593E0	7.908278704E-1
1.365486854E1	1.296311617E0	9.452845573E0	7.112665176E-1
1.366327156E1	1.467996716E0	9.395418167E0	6.346961856E-1
1.367167458E1	1.792822361E0	9.458230019E0	5.491527915E-1
1.368007760E1	1.965105653E0	9.531808853E0	6.819544435E-1
1.368848062E1	2.013560295E0	9.607182503E0	7.956135273E-1
1.369688364E1	2.018345833E0	9.677172661E0	6.807580590E-1
1.370528666E1	2.039283037E0	9.692128181E0	6.293123364E-1
1.371368968E1	2.115255117E0	9.604191780E0	6.161518097E-1
1.372209271E1	2.342573404E0	9.503094673E0	5.096712112E-1
1.373049573E1	2.662015200E0	9.510871887E0	4.289134443E-1
1.373889875E1	2.898306370E0	9.576674461E0	4.671986103E-1
1.374730177E1	2.964108944E0	9.622735977E0	5.437689424E-1
1.375570479E1	2.903690338E0	9.662218094E0	5.946164131E-1
1.376410781E1	2.796013355E0	9.608379364E0	2.656033039E-1
1.377251083E1	2.693121910E0	9.719047546E0	2.410768867E-1
1.378091385E1	2.598007202E0	9.865608215E0	1.172483116E-1
1.378931687E1	2.540579557E0	9.960722923E0	7.776673883E-2
1.379771989E1	2.629712105E0	1.003071213E1	1.226321608E-1
1.380612291E1	2.788834810E0	1.010847950E1	1.579262912E-1
1.381452594E1	2.901895761E0	1.016770172E1	2.793620527E-1
1.382292896E1	2.828316450E0	1.026580715E1	3.966103494E-1
1.383133198E1	2.645863533E0	1.027059269E1	2.961117923E-1
1.383973500E1	2.517847538E0	1.028853893E1	1.992024779E-1
1.384813802E1	2.418545485E0	1.037647533E1	2.386840582E-1
1.385654104E1	2.422134638E0	1.045424175E1	3.672982752E-1
1.386494406E1	2.558525562E0	1.051585770E1	3.810569942E-1
1.387334708E1	2.689532757E0	1.058345413E1	3.302095234E-1
1.388175010E1	2.698505640E0	1.066899776E1	2.374876440E-1
1.389015312E1	2.579462767E0	1.091964626E1	2.333002090E-1
1.389855614E1	2.400599241E0	1.136710358E1	2.967100143E-1
1.390695916E1	2.205584288E0	1.194317627E1	5.724828243E-1
1.391536219E1	2.267797709E0	1.257308674E1	5.653043389E-1
1.392376521E1	2.438884497E0	1.306481171E1	-1.435693540E-2
1.393216823E1	2.284547329E0	1.303310680E1	-2.961117923E-1
1.394057125E1	1.827518344E0	1.231466198E1	-5.144568682E-1
1.394897427E1	1.599003673E0	1.167517948E1	-8.482556343E-1
1.395737729E1	1.750947952E0	1.167159081E1	-7.597211599E-1
1.396578031E1	2.039881229E0	1.198385429E1	-8.889335990E-1
1.397418333E1	2.394019127E0	1.226082325E1	-1.328016520E0
1.398258635E1	2.927618504E0	1.229910851E1	-1.093519926E0
1.399098937E1	3.531806231E0	1.213759327E1	-1.004985496E-1
1.399939239E1	4.049852371E0	1.166979599E1	1.007378340E0
1.400779541E1	4.566701889E0	1.087657547E1	1.692323804E0
1.401619844E1	5.398207664E0	1.019761181E1	1.995015860E0
1.402460146E1	6.451648235E0	1.007497978E1	2.193022013E0
1.403300448E1	6.952944279E0	1.047936630E1	2.291127682E0
1.404140750E1	6.363711834E0	1.066421223E1	1.700698733E0
1.404981052E1	4.955535889E0	1.039262676E1	1.055832982E0
1.405821354E1	3.276970625E0	9.933204651E0	6.993024349E-1
1.406661656E1	1.651645780E0	9.464810371E0	4.516452849E-1
1.407501958E1	3.649054468E-2	9.061020851E0	5.659025311E-1
1.408342260E1	-1.532602906E0	8.590831757E0	1.369891018E-1
1.409182562E1	-2.690729141E0	8.151150703E0	-4.905286431E-1
1.410022864E1	-2.848655462E0	7.753343582E0	-8.793623447E-1
1.410863166E1	-2.242672920E0	7.512865067E0	-6.035895348E-1
1.411703468E1	-1.342971683E0	8.003393173E0	-4.486542344E-1
1.412543771E1	-9.625129104E-1	8.145168304E0	3.032902777E-1
1.413384073E1	-9.409775138E-1	7.748558044E0	7.250252366E-1
1.414224375E1	-9.798609018E-1	7.300501823E0	5.982056856E-1
1.415064677E1	-9.942178130E-1	7.214958668E0	1.274178028E-1
1.415904979E1	-8.470591903E-1	7.616354465E0	-2.715853751E-1
1.416745281E1	-4.971089065E-1	8.210970879E0	-4.331009090E-1
1.417585583E1	-1.974078640E-2	8.713463783E0	-4.001995921E-1
1.418425885E1	4.504488707E-1	8.992227554E0	-4.917250574E-1
1.419266187E1	8.123632669E-1	9.075378418E0	-8.602197170E-1
1.420106489E1	1.000199914E0	9.135198593E0	-1.004985452E0
1.420946791E1	9.601200819E-1	9.092725754E0	-7.926225066E-1
1.421787094E1	8.620143533E-1	9.079565048E0	-6.735795736E-1
1.422627396E1	1.060618639E0	9.270991325E0	-6.957131624E-1
1.423467698E1	1.641476393E0	9.556933403E0	-5.694918036E-1
1.424308000E1	2.478964329E0	9.900303841E0	-3.565305769E-1
1.425148302E1	3.281756163E0	1.020479012E1	-2.398804724E-1
1.425988604E1	3.810570002E0	1.046560764E1	-3.098705411E-1
1.426828906E1	4.040879250E0	1.071266651E1	-2.279163599E-1
1.427669208E1	4.016951084E0	1.086700439E1	-1.770688742E-1
1.428509510E1	3.795016766E0	1.093041420E1	-1.501496136E-1
1.429349812E1	3.476173162E0	1.096451187E1	-5.682953820E-2
1.430190114E1	3.133999348E0	1.096152020E1	3.888336942E-2
1.431030416E1	3.044268608E0	1.095972633E1	1.740778536E-1
1.431870719E1	3.233301640E0	1.097647572E1	7.657032460E-2
1.432711021E1	3.641277790E0	1.100518990E1	-1.800599098E-1
1.433551323E1	4.039682865E0	1.112542915E1	-3.266202807E-1
1.434391625E1	4.329214573E0	1.128514957E1	-2.380858511E-1
1.435231927E1	4.526023865E0	1.144128132E1	-1.250249892E-1
1.436072229E1	4.694119930E0	1.149153042E1	3.529413417E-2
1.436912531E1	4.890929699E0	1.148076344E1	-1.184447184E-1
1.437752833E1	5.027918816E0	1.142692471E1	-2.763710022E-1
1.438593135E1	4.864010334E0	1.128933716E1	-4.396811724E-1
1.439433437E1	4.703691006E0	1.105424213E1	-1.226321608E-1
1.440273739E1	4.962115765E0	1.095075321E1	-9.870393574E-2
1.441114041E1	5.235496044E0	1.073300552E1	-7.375875711E-1
1.441954344E1	5.373681545E0	1.050508976E1	-5.928218365E-1
1.442794646E1	5.527420521E0	1.036630630E1	2.446661144E-1
1.443634948E1	5.972485542E0	1.036092186E1	1.680957973E-1
1.444475250E1	6.604788780E0	1.022572803E1	-2.943171859E-1
1.445315552E1	7.411767960E0	1.018624592E1	1.776670814E-1
1.446155854E1	8.243872643E0	9.885947227E0	3.822534084E-1
1.446996156E1	8.793622971E0	9.288339615E0	3.284149170E-1
1.447836458E1	8.993423462E0	8.656634331E0	4.109672904E-1
1.448676760E1	9.230911255E0	8.295317650E0	8.356932998E-1
1.449517062E1	9.689735413E0	7.781459332E0	3.511467278E-1
1.450357364E1	9.974481583E0	7.575676441E0	1.722832322E-1
1.451197666E1	9.610772133E0	7.515257835E0	3.918247223E-1
1.452037969E1	8.574680328E0	7.199405193E0	2.273181528E-1
1.452878271E1	7.506284714E0	6.919445038E0	-7.417750359E-2
1.453718573E1	6.967301369E0	7.079165936E0	-2.452643216E-2
1.454558875E1	6.887740135E0	7.495516777E0	3.876372576E-1
1.455399177E1	7.026523590E0	7.969893932E0	1.183250785E0
1.456239479E1	7.919046402E0	8.315656662E0	8.243274093E-1
1.457079781E1	1.015394306E1	1.013479996E1	-4.576273263E-1
1.457920083E1	1.128335476E1	1.392682552E1	-1.728814393E-1
1.458760385E1	8.900103569E0	1.704228020E1	2.084148407E0
1.459600687E1	4.155136585E0	1.914377785E1	4.098905087E0
1.460440989E1	-1.874178290E0	1.920957947E1	2.462214470E0
1.461281291E1	-8.213961601E0	1.515075493E1	-2.953939438E0
1.462121594E1	-1.171705437E1	9.349954605E0	-7.351349354E0
1.462961896E1	-1.091605663E1	5.126622677E0	-6.008377552E0
1.463802198E1	-7.001399040E0	3.458226919E0	-2.827120066E0
1.464642500E1	-2.013560295E0	4.339384079E0	-1.274776220E0
1.465482802E1	3.282952785E0	7.121638298E0	-1.279561877E0
1.466323104E1	8.065009117E0	1.051645565E1	-1.423131227E0
1.467163406E1	1.012582684E1	1.244806194E1	5.988038778E-1
1.468003708E1	8.851051331E0	1.237208939E1	2.927618504E0
1.468844010E1	5.912066460E0	1.202094269E1	3.342773199E0
1.469684312E1	3.346362352E0	1.191087246E1	2.230110645E0
1.470524614E1	1.112662554E0	1.130130100E1	5.018945336E-1
1.471364916E1	-8.949156404E-1	1.025384331E1	-1.036092162E0
1.472205218E1	-2.404188633E0	9.296713829E0	-1.646261930E0
1.473045521E1	-2.897109985E0	8.826524734E0	-9.852447510E-1
1.473885823E1	-1.951945066E0	9.031110764E0	1.345962733E-1
1.474726125E1	-2.213360965E-1	9.513264656E0	1.295713425E0
1.475566427E1	1.324427366E0	9.878767967E0	1.390828133E0
1.476406729E1	2.486740828E0	1.013719273E1	9.152546525E-1
1.477247031E1	3.328416348E0	1.024128056E1	7.561319470E-1
1.478087333E1	3.836292982E0	1.030110168E1	1.040279627E0
1.478927635E1	3.343969584E0	9.846465111E0	1.427318692E0
1.479767937E1	2.307279348E0	9.227322578E0	1.685145378E0
1.480608239E1	1.581655741E0	9.467801094E0	1.182054400E0
1.481448541E1	9.948160052E-1	9.897313118E0	2.667997181E-1
1.482288844E1	4.325026870E-1	9.824331284E0	3.020938635E-1
1.483129146E1	3.152543902E-1	9.710074425E0	5.174478889E-1
1.483969448E1	8.440681696E-1	9.784252167E0	4.301098585E-1
1.484809750E1	1.786242127E0	9.866804123E0	2.679961324E-1
1.485650052E1	2.535793781E0	9.723833084E0	5.324030519E-1
1.486490354E1	2.914458036E0	9.662816048E0	9.116654396E-1
1.487330656E1	2.857030153E0	9.689137459E0	8.985049129E-1
1.488170958E1	2.395215511E0	9.662218094E0	9.200403094E-1
1.489011260E1	1.849053741E0	9.580862045E0	9.349954724E-1
1.489851562E1	1.476371527E0	9.415159225E0	7.339983582E-1
1.490691864E1	1.381256819E0	9.379266739E0	6.885347366E-1
1.491532166E1	1.484746456E0	9.536594391E0	8.087740541E-1
1.492372469E1	1.636690736E0	9.733404160E0	9.978070259E-1
1.493212771E1	1.797608018E0	9.743574142E0	1.083948612E0
1.494053073E1	1.929811478E0	9.597013474E0	1.118046403E0
1.494893375E1	1.987837434E0	9.413364410E0	1.040877819E0
1.495733677E1	2.030908108E0	9.296713829E0	9.768698215E-1
1.496573979E1	2.136192322E0	9.435498238E0	9.756734371E-1
1.497414281E1	2.312064886E0	9.680762291E0	9.308080077E-1
1.498254583E1	2.394617319E0	9.777072906E0	7.740781307E-1
1.499094885E1	2.305484533E0	9.681360245E0	6.251249313E-1
1.499935187E1	2.117648125E0	9.573084831E0	6.029912829E-1
1.500775489E1	2.017747641E0	9.641280174E0	5.210371017E-1
1.501615791E1	2.043470621E0	9.778269768E0	2.763710022E-1
1.502456094E1	2.126022816E0	9.793225288E0	1.208375469E-1
1.503296396E1	2.341377020E0	9.669994354E0	1.974078640E-2
1.504136698E1	2.510669231E0	9.611968994E0	1.962114573E-1
1.504977000E1	2.541775942E0	9.581459999E0	3.613162339E-1
1.505817302E1	2.413759947E0	9.576076508E0	4.049852192E-1
1.506657604E1	2.248056889E0	9.717850685E0	6.161518097E-1
1.507497906E1	1.907079697E0	9.958329201E0	8.386843204E-1
1.508338208E1	1.555932879E0	1.003250694E1	6.616154313E-1
1.509178510E1	1.472184181E0	9.993623734E0	5.078766346E-1
1.510018812E1	1.555334687E0	9.937990189E0	3.044866920E-1
1.510859114E1	1.742573142E0	9.982855797E0	2.045863420E-1
1.511699416E1	1.988435626E0	1.012164021E1	3.469592705E-2
1.512539718E1	2.185843468E0	1.038066292E1	9.750752151E-2
1.513380021E1	2.258226395E0	1.054995537E1	2.392822690E-2
1.514220323E1	2.229512453E0	1.052961636E1	-1.076770201E-1
1.515060625E1	2.225923300E0	1.053260708E1	-2.009970993E-1
1.515900927E1	2.199003935E0	1.055234814E1	-1.938186288E-1
1.516741229E1	2.252842426E0	1.055533886E1	-2.961117923E-1
1.517581531E1	2.459821701E0	1.066062355E1	-2.261217386E-1
1.518421833E1	2.700898647E0	1.081555843E1	-1.716850251E-1
1.519262135E1	2.766701221E0	1.091246796E1	-1.052841991E-1
1.520102437E1	2.682952404E0	1.107876873E1	-9.571290761E-2
1.520942739E1	2.539382935E0	1.147119141E1	-1.172483116E-1
1.521783041E1	2.245065928E0	1.197906876E1	-1.633101404E-1
1.522623344E1	1.731207132E0	1.269811153E1	1.692921966E-1
1.523463646E1	1.311266780E0	1.378983688E1	2.321037948E-1
1.524303948E1	1.030708313E0	1.499282837E1	-6.759724021E-2
1.525144250E1	6.311069727E-1	1.567238998E1	-8.494520187E-1
1.525984552E1	1.112662554E-1	1.538226032E1	-1.809572101E0
1.526824854E1	-3.505485058E-1	1.463988686E1	-2.006381750E0
1.527665156E1	-3.900300860E-1	1.410150242E1	-1.580459356E0
1.528505458E1	1.710868180E-1	1.412184143E1	-5.078766346E-1
1.529345760E1	1.158126116E0	1.427498150E1	1.097109199E0
1.530186062E1	2.796611547E0	1.377787304E1	1.670788407E0
1.531026364E1	5.329414368E0	1.296251869E1	1.418345571E0
1.531866666E1	8.179265976E0	1.268495083E1	1.791625977E0
1.532706969E1	9.725627899E0	1.282253838E1	3.184248686E0
1.533547271E1	8.793025017E0	1.257248878E1	3.016152859E0
1.534387573E1	6.337390900E0	1.178943729E1	1.735992789E0
1.535227875E1	3.792025566E0	1.071206856E1	5.072783828E-1
1.536068177E1	2.026122570E0	9.535996437E0	2.093719877E-2
1.536908479E1	1.180858016E0	8.341380119E0	1.339980662E-1
1.537748781E1	1.091127157E0	7.149155617E0	-1.333998591E-1
1.538589083E1	1.615753531E0	6.202794552E0	-1.441675574E-1
1.539429385E1	2.362314224E0	6.040680885E0	9.433703423E-1
1.540269687E1	3.430111170E0	6.954140663E0	-4.707878530E-1
1.541109989E1	4.622334957E0	7.950751305E0	-1.517049551E0
1.541950291E1	4.773082733E0	7.837690353E0	1.215553880E0
1.542790594E1	4.012165546E0	6.531807423E0	2.137987137E0
1.543630896E1	2.772683144E0	5.210969448E0	1.127019525E0
1.544471198E1	1.343569875E0	4.591826439E0	4.839483798E-1
1.545311500E1	2.871387079E-2	4.215555191E0	2.709871531E-1
1.546151802E1	-5.330012441E-1	4.028316975E0	-2.811566554E-2
1.546992104E1	-4.319044948E-1	4.348356724E0	-1.046859920E-1
1.547832406E1	1.082752272E-1	4.887938499E0	1.848455518E-1
1.548672708E1	6.975077987E-1	5.274379253E0	2.392822690E-2
1.549513010E1	1.323829174E0	5.603990555E0	-2.739782035E-1
1.550353312E1	1.883151412E0	5.821139336E0	-8.919246197E-1
1.551193614E1	2.163111687E0	5.811567783E0	-8.051848412E-1
1.552033916E1	2.283350945E0	5.600999832E0	-4.612165689E-1
1.552874218E1	2.437089920E0	5.282754421E0	-3.876372576E-1
1.553714521E1	2.535195589E0	5.133800983E0	-4.223332107E-1
1.554554823E1	2.596212626E0	5.378467083E0	-5.449653864E-1
1.555395125E1	2.550748825E0	5.892325878E0	-8.548358679E-1
1.556235427E1	2.350948334E0	6.483353138E0	-1.217946768E0
1.557075729E1	1.958525300E0	7.206583500E0	-1.076770186E0
1.557916031E1	1.478764415E0	7.795815945E0	-6.077769399E-1
1.558756333E1	1.229910851E0	8.158329010E0	-5.090730190E-1
1.559596635E1	1.588834286E0	8.562715530E0	-7.758727670E-1
1.560436937E1	2.583650351E0	9.081359863E0	-7.938188910E-1
1.561277239E1	3.553341627E0	9.586245537E0	-3.852444589E-1
1.562117541E1	4.176671982E0	9.945767403E0	1.477568001E-1
1.562957844E1	4.931607246E0	1.039143085E1	1.022931710E-1
1.563798146E1	5.356333256E0	1.084546852E1	-2.805584669E-1
1.564638448E1	5.394020557E0	1.088076305E1	1.082752272E-1
1.565478750E1	5.564508915E0	1.156391335E1	-1.621137410E-1
1.566319052E1	5.726024628E0	1.200598717E1	-4.396811724E-1
1.567159354E1	5.754140377E0	1.218664551E1	-6.305087805E-1
1.567999656E1	5.681757450E0	1.234158134E1	-4.420739710E-1
1.568839958E1	5.520840168E0	1.255573845E1	-1.782652885E-1
1.569680260E1	5.319842815E0	1.271785259E1	-2.841476798E-1
1.570520562E1	5.325226784E0	1.298883915E1	4.725824669E-2
1.571360864E1	5.608178139E0	1.337707520E1	-1.615155302E-2
1.572201166E1	5.476572990E0	1.217288685E1	-9.894321561E-1
1.573041469E1	5.569892883E0	1.187258816E1	-8.135597110E-1
1.573881771E1	5.727221012E0	1.170509052E1	-6.005984545E-1
1.574722073E1	6.126224041E0	1.173440266E1	-5.730810165E-1
1.575562375E1	6.795018196E0	1.175533962E1	-3.302095234E-1
1.576402677E1	7.314260483E0	1.165723324E1	-5.503492355E-1
1.577242979E1	7.755736351E0	1.118225861E1	-8.350951076E-1
1.578083281E1	8.068597794E0	1.061874866E1	-4.851447940E-1
1.578923583E1	8.087740898E0	1.013719273E1	-8.075776696E-2
1.579763885E1	7.744370461E0	9.646066666E0	-2.566302419E-1
1.580604187E1	7.138986588E0	9.403793335E0	-1.268195957E-1
1.581444489E1	6.507879257E0	9.376275063E0	-9.391828626E-2
1.582284791E1	6.099903107E0	9.196813583E0	-4.271188378E-1
1.583125094E1	5.831308842E0	8.702695847E0	3.200400174E-1
1.583965396E1	5.394020557E0	7.939983845E0	7.740781307E-1
1.584805698E1	5.251049519E0	7.222136974E0	7.178468257E-2
1.585646000E1	5.709274769E0	6.835696220E0	-5.150550604E-1
1.586486302E1	6.350551128E0	6.714260101E0	-8.715856671E-1
1.587326604E1	6.906284332E0	6.565905571E0	-1.138385415E0
1.588166906E1	7.301100254E0	6.802794933E0	-2.249253243E-1
1.589007208E1	7.514659405E0	7.124031067E0	8.847461939E-1
1.589847510E1	7.441080093E0	8.104490280E0	1.433300734E0
1.590687812E1	6.062814236E0	1.093340492E1	1.526022673E0
1.591528114E1	1.951346874E0	1.486361599E1	6.077171326E0
1.592368416E1	-5.316253662E0	1.814178276E1	1.569691658E1
1.593208718E1	-1.472483253E1	1.808136368E1	1.127438164E1
1.594049021E1	-1.919821358E1	1.531944847E1	-6.691528320E0
1.594889323E1	-1.433599854E1	1.127198887E1	-1.349970722E1
1.595729625E1	-5.297709465E0	8.821140289E0	-7.469794273E0
1.596569927E1	2.787040234E0	8.529814720E0	-1.810768485E0
1.597410229E1	8.551948547E0	1.001515961E1	2.258824587E0
1.598250531E1	1.135633659E1	1.162792206E1	1.191625714E0
1.599090833E1	1.130369377E1	1.163868904E1	-3.044268608E0
1.599931135E1	9.311071396E0	1.104826069E1	-2.905484915E0
1.600771437E1	6.032305717E0	1.001695347E1	1.117448211E0
1.601611739E1	2.796611547E0	9.309874535E0	4.041477680E0
1.602452041E1	-1.034895778E-1	9.144769669E0	3.519243956E0
1.603292344E1	-2.118246317E0	9.351749420E0	1.252642632E0
1.604132646E1	-2.702095032E0	9.656833649E0	-1.031306505E0
1.604972948E1	-1.488933921E0	9.912865639E0	-1.778465390E0
1.605813250E1	6.137589812E-1	1.007318497E1	-3.930211067E-1
1.606653552E1	2.099701881E0	9.942776680E0	6.789634228E-1
1.607493854E1	2.852842808E0	9.925428391E0	6.915257573E-1
1.608334156E1	2.924627542E0	1.015394306E1	4.127618968E-1
1.609174458E1	2.568096876E0	1.040818024E1	4.630111754E-1
1.610014760E1	2.194218397E0	1.038126087E1	5.036891699E-1
1.610855062E1	1.797009826E0	9.762716293E0	6.418746710E-1
1.611695364E1	1.989632010E0	9.747760773E0	4.600201547E-1
1.612535666E1	2.498705149E0	1.014377308E1	8.015955985E-2
1.613375968E1	2.693121910E0	1.006421185E1	2.817548811E-1
1.614216271E1	2.385644197E0	9.635896683E0	6.969096065E-1
1.615056573E1	1.785643935E0	9.376275063E0	8.679963946E-1
1.615896875E1	1.297508121E0	9.437891006E0	7.537391186E-1
1.616737177E1	1.052243710E0	9.624530792E0	6.831508875E-1
1.617577479E1	1.119840980E0	9.748359680E0	6.203392744E-1
1.618417781E1	1.409372568E0	9.820143700E0	7.615157962E-1
1.619258083E1	1.679761529E0	9.784252167E0	9.320043921E-1
1.620098385E1	1.824527264E0	9.664012909E0	9.810572863E-1
1.620938687E1	1.822134495E0	9.498908043E0	1.165902853E0
1.621778989E1	1.761715651E0	9.393623352E0	1.141376376E0
1.622619291E1	1.745564103E0	9.410373688E0	9.912267923E-1
1.623459594E1	1.749153376E0	9.561120987E0	9.571290612E-1
1.624299896E1	1.711466432E0	9.727422714E0	1.243669510E0
1.625140198E1	1.648056626E0	9.874580383E0	1.338186026E0
1.625980500E1	1.420140266E0	9.891928673E0	1.266999602E0
1.626820802E1	8.632107973E-1	9.350552559E0	1.274178028E0
1.627661104E1	7.405785918E-1	9.186046600E0	1.223330617E0
1.628501406E1	9.834501147E-1	9.309874535E0	1.007976532E0
1.629341708E1	1.385444283E0	9.536594391E0	8.745766878E-1
1.630182010E1	1.773679733E0	9.655637741E0	9.284151793E-1
1.631022312E1	1.950748682E0	9.678369522E0	1.031904817E0
1.631862614E1	1.871187329E0	9.716654778E0	8.853443861E-1
1.632702916E1	1.593021631E0	9.742975235E0	7.238288522E-1
1.633543219E1	1.457827210E0	9.696315765E0	5.617151260E-1
1.634383521E1	1.488335729E0	9.598209381E0	4.935196638E-1
1.635223823E1	1.651047587E0	9.517452240E0	5.868397355E-1
1.636064125E1	1.880160451E0	9.482157707E0	6.287141442E-1
1.636904427E1	2.088335991E0	9.537791252E0	6.317051649E-1
1.637744729E1	2.181057930E0	9.495916367E0	6.005984545E-1
1.638585031E1	2.154138565E0	9.397810936E0	5.186443329E-1
1.639425333E1	2.194816589E0	9.412766457E0	5.880361795E-1
1.640265635E1	2.391027927E0	9.588040352E0	6.167500615E-1
1.641105937E1	2.623131752E0	9.653842926E0	7.106683254E-1
1.641946239E1	2.474776745E0	9.694520950E0	6.394818425E-1
1.642786541E1	2.169093609E0	9.555737495E0	3.481557071E-1
1.643626844E1	2.033301115E0	9.623932838E0	4.091726840E-1
1.644467146E1	2.027318954E0	9.805189133E0	3.421736360E-1
1.645307448E1	2.057229280E0	1.003908730E1	2.117647976E-1
1.646147750E1	2.060818434E0	1.029691410E1	2.602194548E-1
1.646988052E1	2.009372711E0	1.046082211E1	8.614161611E-2
1.647828354E1	1.932204247E0	1.053440189E1	-3.349951655E-2
1.648668656E1	1.825723648E0	1.049133110E1	-1.292124242E-1
1.649508958E1	1.747956991E0	1.045244789E1	-1.854437590E-1
1.650349260E1	1.761117458E0	1.044467068E1	-2.051845491E-1
1.651189562E1	1.852044702E0	1.054098225E1	-3.296113312E-1
1.652029864E1	2.034497499E0	1.074197865E1	-2.129612118E-1
1.652870166E1	2.210968018E0	1.091007519E1	-1.316052526E-1
1.653710469E1	2.358126640E0	1.097527885E1	-2.039881349E-1
1.654550771E1	2.555534601E0	1.115713406E1	-1.968096644E-1
1.655391073E1	2.523829699E0	1.147956657E1	-1.262213886E-1
1.656231375E1	2.115255117E0	1.126002502E1	-2.344966233E-1
1.657071677E1	2.020738840E0	1.141974640E1	-2.333002165E-2
1.657911979E1	2.333600283E0	1.238345528E1	2.578266263E-1
1.658752281E1	2.751147747E0	1.361815166E1	1.998006850E-1
1.659592583E1	2.673979282E0	1.456810284E1	-5.551348329E-1
1.660432885E1	1.998605132E0	1.497906971E1	-1.106680512E0
1.661273187E1	1.141376376E0	1.493599892E1	-1.934597135E0
1.662113489E1	6.263213158E-1	1.470449352E1	-2.370688915E0
1.662953791E1	5.886343718E-1	1.456092358E1	-2.183450699E0
1.663794094E1	8.362914920E-1	1.402074432E1	-2.381456852E0
1.664634396E1	1.274178028E0	1.345783234E1	-1.580459356E0
1.665474698E1	1.928615093E0	1.271545982E1	-1.125823021E0
1.666315000E1	2.830709219E0	1.178166008E1	1.609173268E-1
1.667155302E1	4.344767570E0	1.076052380E1	1.691725612E0
1.667995604E1	6.501897335E0	1.042552853E1	2.599801779E0
1.668835906E1	8.288737297E0	1.055653572E1	3.392424345E0
1.669676208E1	8.770891190E0	1.054636574E1	3.370888948E0
1.670516510E1	7.850851059E0	1.017966557E1	2.778067112E0
1.671356812E1	6.137589931E0	9.675976753E0	2.048854351E0
1.672197114E1	4.459024906E0	9.156734467E0	1.762912035E0
1.673037416E1	3.196810961E0	8.601598740E0	1.538584948E0
1.673877718E1	2.370090723E0	8.197810173E0	1.327418327E0
1.674718021E1	1.782652855E0	7.828119278E0	1.354337573E0
1.675558323E1	1.406381488E0	7.661220074E0	7.022934556E-1
1.676398625E1	9.343972206E-1	7.597211838E0	-2.057827413E-1
1.677238927E1	9.655039310E-1	8.438887596E0	-3.442673683E0
1.678079229E1	1.628913999E0	8.561519623E0	-3.136990547E0
1.678919531E1	1.681556106E0	7.936992645E0	5.928218365E-1
1.679759833E1	1.293918848E0	6.775277138E0	2.324028969E0
1.680600135E1	1.083350420E0	5.681757450E0	8.817551732E-1
1.681440437E1	9.308080077E-1	5.322834015E0	2.572284266E-2
1.682280739E1	1.088734269E0	5.456233978E0	2.422732860E-1
1.683121041E1	1.701895118E0	5.661418438E0	2.865405083E-1
1.683961344E1	2.566900492E0	5.851049423E0	2.943171859E-1
1.684801646E1	3.417548895E0	6.061617851E0	2.069791555E-1
1.685641948E1	3.968496323E0	6.172286034E0	3.032902777E-1
1.686482250E1	4.079164505E0	6.200401783E0	2.524427772E-1
1.687322552E1	3.844667673E0	6.028118610E0	-2.333002165E-2
1.688162854E1	3.401995659E0	5.783452511E0	-2.171486616E-1
1.689003156E1	2.818146944E0	5.626124382E0	1.453639716E-1
1.689843458E1	2.222334146E0	5.535795212E0	3.930211067E-1
1.690683760E1	1.599601984E0	5.661418438E0	1.986042857E-1
1.691524062E1	1.048056364E0	6.078367710E0	-2.350948304E-1
1.692364364E1	7.812566161E-1	6.805785656E0	-6.933203340E-1
1.693204666E1	9.852447510E-1	7.579265594E0	-7.148557901E-1
1.694044968E1	1.751546144E0	8.243273735E0	-5.246263742E-1
1.694885271E1	2.887538671E0	8.811569214E0	-1.280160099E-1
1.695725573E1	3.996013880E0	9.269794464E0	1.100698411E-1
1.696565875E1	4.782654285E0	9.540781975E0	6.406782866E-1
1.697406177E1	5.428118229E0	9.746564865E0	6.173482537E-1
1.698246479E1	5.961717606E0	1.001276588E1	4.887340367E-1
1.699086781E1	6.329015732E0	1.018146038E1	3.308077157E-1
1.699927083E1	6.479763508E0	1.012522888E1	2.416750938E-1
1.700767385E1	6.534798622E0	9.991230965E0	-1.405783296E-1
1.701607687E1	6.567101955E0	1.005523872E1	-1.950150430E-1
1.702447989E1	6.413362980E0	1.020538902E1	6.161518395E-2
1.703288291E1	6.324230194E0	1.039143085E1	-4.127619043E-2
1.704128594E1	6.302096844E0	1.068814087E1	-1.627119333E-1
1.704968896E1	6.053243160E0	1.079521942E1	-2.356930375E-1
1.705809198E1	5.780461311E0	1.055773163E1	-1.238285750E-1
1.706649500E1	5.776273727E0	1.060738277E1	-1.100698411E-1
1.707489802E1	5.836692810E0	1.050508976E1	-1.201196909E0
1.708330104E1	5.754738331E0	1.038544846E1	-1.296311617E0
1.709170406E1	5.557330608E0	1.036570740E1	-5.814558864E-1
1.710010708E1	5.396413326E0	1.044467068E1	4.283152521E-1
1.710851010E1	5.726024628E0	9.957731247E0	2.991028428E-1
1.711691312E1	6.726224422E0	9.592825890E0	3.523431420E-1
1.712531614E1	7.852645874E0	9.829715729E0	9.332008660E-2
1.713371916E1	8.603393555E0	1.044347477E1	-3.798605800E-1
1.714212218E1	8.721838951E0	1.066421223E1	-1.830509305E-1
1.715052521E1	8.618349075E0	1.037707329E1	1.519442350E-1
1.715892823E1	8.420941353E0	9.617950439E0	4.648058116E-1
1.716733125E1	8.258827209E0	8.514261246E0	2.069791555E-1
1.717573427E1	8.165507317E0	7.588837147E0	-3.385843933E-1
1.718413729E1	7.872984886E0	7.095317364E0	-1.938186288E-1
1.719254031E1	7.512865067E0	6.881159782E0	-1.310070455E-1
1.720094333E1	7.697710514E0	6.908079147E0	-7.878368497E-1
1.720934635E1	8.063812256E0	7.240681171E0	-6.951149702E-1
1.721774937E1	8.157731056E0	7.721040249E0	-1.483550072E-1
1.722615239E1	7.915457249E0	8.371888161E0	-1.764706671E-1
1.723455541E1	7.854440212E0	9.482157707E0	3.152543902E-1
1.724295844E1	8.468199730E0	1.117448139E1	-4.426721931E-1
1.725136146E1	9.455837250E0	1.506939888E1	-1.928615093E0
1.725976448E1	7.452445984E0	1.943390656E1	-6.640082598E-2
1.726816750E1	2.081755638E0	2.113819504E1	1.139581800E0
1.727657052E1	-4.938786030E0	1.867657852E1	-8.799605370E-1
1.728497354E1	-1.103091240E1	1.319940758E1	-2.814557552E0
1.729337656E1	-1.158544922E1	7.456633568E0	-6.185446382E-1
1.730177958E1	-7.239484787E0	3.634099483E0	-1.505085468E0
1.731018260E1	-1.307677627E0	3.607778311E0	-2.283949137E0
1.731858562E1	3.760320902E0	5.883950710E0	-3.867997885E0
1.732698864E1	7.719843864E0	8.930013657E0	-3.299104214E0
1.733539166E1	1.005284595E1	1.167876911E1	1.683948994E0
1.734379469E1	9.557532310E0	1.274178028E1	6.143572330E0
1.735219771E1	6.739983082E0	1.219442272E1	4.373481750E0
1.736060073E1	3.797409534E0	1.134855938E1	2.267199457E-1
1.736900375E1	1.292124271E0	1.054457092E1	-1.875374794E0
1.737740677E1	-5.419743061E-1	9.888937950E0	-1.399801254E0
1.738580979E1	-1.621735573E0	9.486345291E0	-5.581258535E-1
1.739421281E1	-2.087139606E0	9.367302895E0	1.058823988E-1
1.740261583E1	-1.969891191E0	9.330811501E0	4.648058116E-1
1.741101885E1	-1.049850941E0	9.565906525E0	8.751748800E-1
1.741942187E1	3.930211067E-1	9.916455269E0	1.177866936E0
1.742782489E1	1.713859200E0	1.007438183E1	9.667003751E-1
1.743622791E1	2.740978241E0	1.006062317E1	8.512466550E-1
1.744463094E1	3.668795347E0	1.028016472E1	1.469791293E0
1.745303396E1	3.535395384E0	9.818947792E0	2.048256159E0
1.746143698E1	2.855833769E0	9.300303459E0	2.310868502E0
1.746984000E1	2.125424623E0	9.367302895E0	1.825723648E0
1.747824302E1	1.303490162E0	9.530014038E0	1.372283816E0
1.748664604E1	4.396811724E-1	9.439684868E0	1.131206870E0
