"Time (s)"	"Gyroscope x (rad/s)"	"Gyroscope y (rad/s)"	"Gyroscope z (rad/s)"
3.357176800E-2	8.246437646E-3	8.551862091E-3	-1.832541823E-2
4.197478900E-2	1.985253533E-3	1.389677543E-2	-1.206423342E-2
5.037781000E-2	-1.221694518E-3	2.076880634E-2	-1.145338640E-2
5.878083100E-2	3.206948051E-3	3.558185324E-2	-1.343864016E-2
6.718385100E-2	6.261184346E-3	3.695625812E-2	-1.649287529E-2
7.558687200E-2	6.872031838E-3	3.298575059E-2	-1.756185852E-2
8.398989300E-2	1.985253533E-3	2.855710872E-2	-1.313321572E-2
9.239291400E-2	-2.901524538E-3	2.794626169E-2	-1.099525020E-2
1.007959350E-1	-3.817795310E-3	3.008422814E-2	-8.093725890E-3
1.091989560E-1	3.359660041E-3	3.176405653E-2	-5.955760833E-3
1.176019760E-1	1.053711493E-2	3.451287001E-2	-6.261184346E-3
1.260049970E-1	9.620844387E-3	4.184303805E-2	-9.468132630E-3
1.344080180E-1	5.192201585E-3	5.512896553E-2	-8.857285604E-3
1.428110390E-1	1.068982761E-3	5.299099907E-2	-5.650337320E-3
1.512140600E-1	-3.206948051E-3	4.382828996E-2	-6.108472589E-3
1.596170810E-1	-7.177455351E-3	1.725643501E-2	-6.566607859E-3
1.680201010E-1	-7.482878864E-3	-1.130067464E-2	-3.359660041E-3
1.764231220E-1	-8.857285604E-3	-1.939439960E-2	6.108472589E-3
1.848261430E-1	-6.566607859E-3	-2.779355086E-2	7.177455351E-3
1.932291640E-1	9.162708884E-4	-2.305948362E-2	5.039489828E-3
2.016321850E-1	9.926267900E-3	-4.886778072E-3	9.162708884E-4
2.100352060E-1	1.298050396E-2	5.192201585E-3	2.596100792E-3
2.184382260E-1	1.084253844E-2	9.620844387E-3	-1.374406274E-3
2.268412470E-1	6.413896102E-3	7.330167107E-3	-6.108472589E-3
2.352442680E-1	2.901524538E-3	3.206948051E-3	-8.704573847E-3
2.436472890E-1	-1.527118147E-3	1.634016447E-2	-8.551862091E-3
2.520503100E-1	-4.886778072E-3	1.007897966E-2	-3.817795310E-3
2.604533310E-1	-9.009997360E-3	8.551862091E-3	0.000000000E0
2.688563510E-1	-9.926267900E-3	-1.985253533E-3	6.413896102E-3
2.772593720E-1	-7.941014133E-3	-6.413896102E-3	1.267508045E-2
2.856623930E-1	-5.803049076E-3	-1.404948719E-2	1.328592747E-2
2.940654140E-1	-5.039489828E-3	-2.580829710E-2	7.177455351E-3
3.024684350E-1	-7.330167107E-3	-4.169032723E-2	-1.374406274E-3
3.108714560E-1	-4.275931045E-3	-3.695625812E-2	-1.007897966E-2
3.192744760E-1	3.054236295E-4	-1.863084175E-2	-1.572931744E-2
3.276774970E-1	-4.581354442E-4	1.679830020E-3	-1.160609815E-2
3.360805180E-1	-3.665083554E-3	4.734066315E-3	-9.773556143E-3
3.444835390E-1	-4.734066315E-3	6.413896102E-3	-1.114796288E-2
3.528865600E-1	-7.635590620E-3	5.039489828E-3	-7.482878864E-3
3.612895810E-1	-1.023169141E-2	5.803049076E-3	1.221694518E-3
3.696926010E-1	-8.093725890E-3	3.970507067E-3	3.512371797E-3
3.780956220E-1	-5.803049076E-3	-7.635590737E-4	-6.108472589E-4
3.864986430E-1	-3.054236295E-3	-1.068982668E-2	-8.399149403E-3
3.949016640E-1	4.275931045E-3	-1.130067464E-2	-1.557660475E-2
4.033046850E-1	5.497625098E-3	-3.054236295E-3	-1.756185852E-2
4.117077060E-1	9.162709117E-3	3.359660041E-3	-1.572931744E-2
4.201107260E-1	1.328592747E-2	5.039489828E-3	-1.450762246E-2
4.285137470E-1	1.236965694E-2	9.162709117E-3	-1.542389300E-2
4.369167680E-1	8.857285604E-3	1.099525020E-2	-1.191152167E-2
4.453197890E-1	7.941014133E-3	4.886778072E-3	-5.497625098E-3
4.537228100E-1	7.024743594E-3	-3.512371797E-3	-4.734066315E-3
4.621258310E-1	5.497625098E-3	-1.160609815E-2	-4.428642802E-3
4.705288510E-1	4.428642802E-3	-1.236965694E-2	1.832541777E-3
4.789318720E-1	7.330167107E-3	-1.114796288E-2	-3.970507067E-3
4.873348930E-1	8.246437646E-3	4.581354442E-4	-6.108472589E-3
4.957379140E-1	7.635590620E-3	5.955760833E-3	-2.137965523E-3
5.041409350E-1	9.620844387E-3	2.244863659E-2	-1.068982761E-3
5.125439560E-1	1.038440317E-2	3.176405653E-2	2.596100792E-3
5.209469760E-1	8.551862091E-3	2.489202656E-2	5.650337320E-3
5.293499970E-1	9.162709117E-3	1.618745178E-2	9.773556143E-3
5.377530180E-1	7.482878864E-3	1.832541777E-3	2.153236605E-2
5.461560390E-1	4.428642802E-3	-1.175880991E-2	3.939964995E-2
5.545590600E-1	6.108472589E-3	-3.084778599E-2	4.001049697E-2
5.629620810E-1	9.620844387E-3	-4.611896724E-2	3.665083647E-2
5.713651010E-1	1.481304597E-2	-5.787777901E-2	4.230117425E-2
5.797681220E-1	2.412846684E-2	-6.642963737E-2	6.627693027E-2
5.881711430E-1	2.825168520E-2	-4.825693369E-2	8.093725890E-2
5.965741640E-1	3.436015919E-2	-3.161134571E-2	8.765657991E-2
6.049771850E-1	4.886778072E-2	-3.145863488E-2	9.208522737E-2
6.133802060E-1	5.650337320E-3	-1.556133330E-1	2.112004459E-1
6.217832260E-1	9.926267900E-3	-1.250709742E-1	2.664821148E-1
6.301862470E-1	5.008947477E-2	-6.963659078E-2	2.131856978E-1
6.385892680E-1	6.337540597E-2	-1.611109674E-1	1.491994411E-1
6.469922890E-1	4.321744293E-2	-2.002051920E-1	7.818844914E-2
6.553953100E-1	6.261184346E-3	-1.212531775E-1	1.801999472E-2
6.637983310E-1	2.626643144E-2	1.649287529E-2	-6.872031838E-3
6.722013510E-1	5.711421743E-2	1.919587553E-1	2.321219631E-2
6.806043720E-1	7.055285573E-2	3.275668323E-1	7.498150319E-2
6.890073930E-1	6.734590977E-2	2.808370292E-1	1.058292910E-1
6.974104140E-1	5.650337040E-2	9.544488788E-2	9.162709117E-2
7.058134350E-1	5.085303262E-2	-4.153761268E-2	9.529217333E-2
7.142164560E-1	5.482354015E-2	-9.147437662E-2	1.221694499E-1
7.226194760E-1	7.009471953E-2	-5.940489471E-2	1.450762302E-1
7.310224970E-1	7.727217674E-2	-1.023169141E-2	1.369825006E-1
7.394255180E-1	7.574506104E-2	5.497625098E-3	1.120904684E-1
7.478285390E-1	6.642963737E-2	-1.679830020E-3	9.132166207E-2
7.562315600E-1	5.696150661E-2	-1.679829881E-2	8.521319181E-2
7.646345810E-1	4.016320780E-2	-2.535016090E-2	8.444963396E-2
7.730376010E-1	3.252761811E-2	-3.176405653E-2	8.551861346E-2
7.814406220E-1	2.702999115E-2	-4.062134400E-2	7.788302749E-2
7.898436430E-1	2.076880634E-2	-4.413371533E-2	6.398624927E-2
7.982466640E-1	1.343864016E-2	-3.649812192E-2	5.497625470E-2
8.066496850E-1	8.857285604E-3	-2.000524849E-2	5.283828825E-2
8.150527060E-1	6.566607859E-3	-6.566607859E-3	5.268557742E-2
8.234557260E-1	3.512371797E-3	1.099525020E-2	5.176930502E-2
8.318587470E-1	3.054236295E-4	2.321219631E-2	4.520269856E-2
8.402617680E-1	-9.162708884E-4	2.504473738E-2	3.649812192E-2
8.486647890E-1	-7.635590737E-4	1.985253580E-2	3.130592033E-2
8.570678100E-1	4.581354442E-4	1.496575773E-2	2.626643144E-2
8.654708310E-1	1.679830020E-3	1.511846948E-2	2.611372061E-2
8.738738510E-1	4.123218823E-3	1.206423342E-2	2.809897438E-2
8.822768720E-1	8.246437646E-3	6.108472589E-3	2.947338112E-2
8.906798930E-1	9.926267900E-3	-5.344913341E-3	2.932066843E-2
8.990829140E-1	1.007897966E-2	-9.926267900E-3	2.825168520E-2
9.074859350E-1	9.162709117E-3	-8.857285604E-3	2.702999115E-2
9.158889560E-1	1.053711493E-2	-3.206948051E-3	2.657185495E-2
9.242919760E-1	9.926267900E-3	6.872031838E-3	2.260134928E-2
9.326949970E-1	7.788302377E-3	1.588202827E-2	1.832541823E-2
9.410980180E-1	4.581354558E-3	1.603474095E-2	1.374406368E-2
9.495010390E-1	4.275931045E-3	1.206423342E-2	1.404948719E-2
9.579040600E-1	5.039489828E-3	1.038440317E-2	1.588202827E-2
9.663070810E-1	5.497625098E-3	3.817795310E-3	1.817270555E-2
9.747101010E-1	8.551862091E-3	-3.817795310E-3	2.244863659E-2
9.831131220E-1	1.053711493E-2	-6.413896102E-3	2.260134928E-2
9.915161430E-1	1.160609815E-2	1.985253533E-3	2.092151903E-2
9.999191640E-1	8.399149403E-3	1.450762246E-2	1.893626526E-2
1.008322185E0	9.926267900E-3	2.076880634E-2	1.466033421E-2
1.016725206E0	1.588202827E-2	1.710372418E-2	1.206423342E-2
1.025128226E0	1.404948719E-2	1.710372418E-2	1.359135192E-2
1.033531247E0	8.704573847E-3	1.710372418E-2	1.664558798E-2
1.041934268E0	7.635590620E-3	1.817270555E-2	1.496575773E-2
1.050337289E0	2.000524849E-2	3.115320951E-2	1.114796288E-2
1.058740310E0	3.023693897E-2	4.917320609E-2	1.130067464E-2
1.067143331E0	3.634541109E-2	5.436540768E-2	1.557660475E-2
1.075546351E0	3.359659761E-2	5.696150661E-2	1.252236869E-2
1.083949372E0	3.344388679E-2	5.024218559E-2	4.123218823E-3
1.092352393E0	4.306473210E-2	4.474456236E-2	-4.428642802E-3
1.100755414E0	4.993676394E-2	4.825693369E-2	-4.123218823E-3
1.109158435E0	5.329642445E-2	5.436540768E-2	1.527118147E-3
1.117561456E0	5.848862603E-2	6.490252167E-2	4.581354558E-3
1.125964476E0	6.688777357E-2	7.452336699E-2	6.413896102E-3
1.134367497E0	7.452336699E-2	7.330167294E-2	1.068982668E-2
1.142770518E0	8.078455180E-2	6.490252167E-2	1.786728203E-2
1.151173539E0	8.185353130E-2	4.810422286E-2	2.825168520E-2
1.159576560E0	8.399149776E-2	3.374931216E-2	3.558185324E-2
1.167979581E0	8.796200156E-2	2.611372061E-2	4.443913698E-2
1.176382601E0	9.544488788E-2	1.832541823E-2	5.375456065E-2
1.184785622E0	1.085781008E-1	2.550287358E-2	6.872031838E-2
1.193188643E0	1.185043678E-1	5.283828825E-2	8.124268800E-2
1.201591664E0	1.229330078E-1	8.551861346E-2	9.116895497E-2
1.209994685E0	1.279724985E-1	1.078145429E-1	9.025268257E-2
1.218397706E0	1.363716573E-1	1.108687744E-1	9.361234307E-2
1.226800726E0	1.539335102E-1	9.605573118E-2	1.052184403E-1
1.235203747E0	1.617218107E-1	7.773031294E-2	1.175880954E-1
1.243606768E0	1.646233350E-1	8.108997345E-2	1.207950488E-1
1.252009789E0	1.658450365E-1	7.437065244E-2	1.175880954E-1
1.260412810E0	1.751604527E-1	6.474980712E-2	1.119377613E-1
1.268815831E0	1.869192570E-1	7.146912813E-2	1.036913246E-1
1.277218851E0	1.942494214E-1	8.002099395E-2	8.903098851E-2
1.285621872E0	1.924168915E-1	9.101624042E-2	7.589777559E-2
1.294024893E0	1.835595965E-1	1.015533581E-1	6.261184067E-2
1.302427914E0	1.789782494E-1	1.101052165E-1	5.115845799E-2
1.310830935E0	1.860029846E-1	1.099525094E-1	3.405473381E-2
1.319233956E0	1.937913001E-1	9.468132257E-2	2.504473738E-2
1.327636976E0	1.893626451E-1	8.108997345E-2	2.733541466E-2
1.336039997E0	1.730224788E-1	7.559234649E-2	2.596100792E-2
1.344443018E0	1.649287641E-1	6.917845458E-2	6.872031838E-3
1.352846039E0	1.617218107E-1	6.841489673E-2	-2.504473738E-2
1.361249060E0	1.618745178E-1	6.749862432E-2	-4.627167806E-2
1.369652081E0	1.569877416E-1	5.803048983E-2	-4.734066129E-2
1.378055101E0	1.572931707E-1	4.398100078E-2	-4.123219103E-2
1.386458122E0	1.659977436E-1	1.588202827E-2	-4.260659590E-2
1.394861143E0	1.740914732E-1	-3.420744836E-2	-4.596625641E-2
1.403264164E0	1.751604527E-1	-7.543963939E-2	-4.993676394E-2
1.411667185E0	1.725643575E-1	-8.154810965E-2	-5.329642445E-2
1.420070206E0	1.841704547E-1	-6.123743951E-2	-6.154286116E-2
1.428473226E0	2.043284029E-1	-3.130592033E-2	-6.856760383E-2
1.436876247E0	2.246390730E-1	-7.024743594E-3	-6.016845629E-2
1.445279268E0	2.435753495E-1	-4.275931045E-3	-3.970507160E-2
1.453682289E0	2.606790662E-1	-1.847812906E-2	-2.214321308E-2
1.462085310E0	2.683146596E-1	-3.649812192E-2	-1.863084175E-2
1.470488331E0	2.689255178E-1	-5.589252338E-2	-2.779355086E-2
1.478891351E0	2.799207568E-1	-7.360709459E-2	-3.695625812E-2
1.487294372E0	2.919849753E-1	-6.490252167E-2	-3.848337755E-2
1.495697393E0	3.118375242E-1	-5.436540768E-2	-3.588727489E-2
1.504100414E0	3.364241421E-1	-6.230641901E-2	-3.695625812E-2
1.512503435E0	3.578037918E-1	-5.192201585E-2	-5.100574717E-2
1.520906456E0	3.753656447E-1	-1.328592747E-2	-8.307522535E-2
1.529309476E0	3.921639323E-1	2.565558441E-2	-1.131594554E-1
1.537712497E0	4.033119082E-1	3.054236248E-2	-1.148392856E-1
1.546115518E0	4.059080184E-1	2.886253223E-2	-9.773556143E-2
1.554518539E0	4.175141156E-1	6.520794332E-2	-8.444963396E-2
1.562921560E0	4.278984964E-1	1.055238619E-1	-6.795676053E-2
1.571324581E0	4.236225784E-1	9.269607067E-2	-3.756710514E-2
1.579727601E0	4.095730782E-1	4.810422286E-2	-1.236965694E-2
1.588130622E0	3.924693763E-1	1.313321572E-2	-7.941014133E-3
1.596533643E0	3.773508966E-1	4.581354442E-4	-2.244863659E-2
1.604936664E0	3.739912212E-1	-9.926267900E-3	-2.031067200E-2
1.613339685E0	3.695625961E-1	-2.214321308E-2	-3.359660041E-3
1.621742706E0	3.629959822E-1	-3.771981969E-2	2.031067200E-2
1.630145726E0	3.545968235E-1	-6.658235192E-2	4.535540938E-2
1.638548747E0	3.419217467E-1	-1.090362370E-1	7.620319724E-2
1.646951768E0	3.283303976E-1	-1.240019947E-1	1.105633527E-1
1.655354789E0	3.104631305E-1	-1.003316641E-1	1.383569092E-1
1.663757810E0	2.971771955E-1	-3.741439432E-2	1.459924877E-1
1.672160831E0	2.877090573E-1	8.108997345E-2	1.420219839E-1
1.680563851E0	2.845021188E-1	2.483094037E-1	1.377460510E-1
1.688966872E0	2.803788781E-1	4.385883212E-1	1.441599578E-1
1.697369893E0	2.828222811E-1	6.064186096E-1	1.826433241E-1
1.705772914E0	2.661767006E-1	7.553126216E-1	2.461714447E-1
1.714175935E0	2.139492482E-1	9.245173335E-1	3.286358118E-1
1.722578956E0	1.791309565E-1	1.111894727E0	3.692571819E-1
1.730981976E0	1.644706279E-1	1.304158926E0	3.549022675E-1
1.739384997E0	1.156028435E-1	1.435491085E0	3.762819171E-1
1.747788018E0	5.848862603E-2	1.542542100E0	4.477510452E-1
1.756191039E0	-1.542389300E-2	1.703347564E0	5.648810267E-1
1.764594060E0	-1.058292910E-1	1.893168330E0	6.723901033E-1
1.772997081E0	-1.718007922E-1	2.068786860E0	7.197307944E-1
1.781400101E0	-1.811162084E-1	2.193857908E0	7.217160463E-1
1.789803122E0	-1.528645307E-1	2.229287148E0	6.855233312E-1
1.798206143E0	-1.172826737E-1	2.197523117E0	6.224533319E-1
1.806609164E0	-1.030804738E-1	2.103910685E0	5.793886185E-1
1.815012185E0	-1.007898003E-1	1.957918167E0	5.816792846E-1
1.823415206E0	-8.887827396E-2	1.819255829E0	5.798467398E-1
1.831818226E0	-8.185353130E-2	1.692810416E0	5.465555787E-1
1.840221247E0	-1.007898003E-1	1.562089205E0	4.727957845E-1
1.848624268E0	-1.612636745E-1	1.430604339E0	3.645231128E-1
1.857027289E0	-2.399102598E-1	1.317750216E0	2.443388999E-1
1.865430310E0	-3.228327632E-1	1.193595529E0	1.397313178E-1
1.873833331E0	-4.028537571E-1	1.038593054E0	6.933116168E-2
1.882236351E0	-4.688252807E-1	8.070819378E-1	3.115320951E-2
1.890639372E0	-5.263976455E-1	4.689779878E-1	9.620844387E-3
1.899042393E0	-5.757235289E-1	4.672981426E-2	-1.527118147E-4
1.907445414E0	-6.109999418E-1	-3.831539452E-1	1.435491070E-2
1.915848435E0	-6.552863717E-1	-7.809682488E-1	5.528167635E-2
1.924251456E0	-6.959077120E-1	-1.113879919E0	9.132166207E-2
1.932654476E0	-7.233958840E-1	-1.337144613E0	1.020114943E-1
1.941057497E0	-7.375980616E-1	-1.418998241E0	9.284878522E-2
1.949460518E0	-7.296570539E-1	-1.379598498E0	6.719319522E-2
1.957863539E0	-7.142331600E-1	-1.263232112E0	2.183778957E-2
1.966266560E0	-7.096518278E-1	-1.104106426E0	-4.963133857E-2
1.974669581E0	-7.127060294E-1	-9.793408513E-1	-1.272089481E-1
1.983072601E0	-7.093463540E-1	-9.017632604E-1	-1.837123185E-1
1.991475622E0	-6.881194115E-1	-8.631271720E-1	-2.024958730E-1
1.999878643E0	-6.583406329E-1	-8.486195803E-1	-1.966928244E-1
2.008281664E0	-6.300889254E-1	-8.278507590E-1	-1.827960461E-1
2.016684685E0	-6.010736823E-1	-7.857022882E-1	-1.747023165E-1
2.025087706E0	-5.734328628E-1	-7.243121266E-1	-1.750077456E-1
2.033490726E0	-5.409052372E-1	-6.546755433E-1	-1.864611208E-1
2.041893747E0	-5.244123936E-1	-5.989357233E-1	-2.078407854E-1
2.050296768E0	-5.280774832E-1	-5.793886185E-1	-2.157817930E-1
2.058699789E0	-5.363239050E-1	-5.903838873E-1	-2.032594234E-1
2.067102810E0	-5.225798488E-1	-5.799994469E-1	-1.827960461E-1
2.075505831E0	-4.982986450E-1	-5.664080977E-1	-1.539335102E-1
2.083908851E0	-4.767662883E-1	-5.485408306E-1	-1.156028435E-1
2.092311872E0	-4.129327536E-1	-4.656183124E-1	-8.658760041E-2
2.100714893E0	-3.319954872E-1	-3.171824515E-1	-6.230641901E-2
2.109117914E0	-2.808370292E-1	-1.394258887E-1	-3.512371704E-2
2.117520935E0	-2.573194206E-1	-2.199050039E-2	-3.817795310E-3
2.125923956E0	-2.046338320E-1	7.727217674E-2	2.153236605E-2
2.134326976E0	-1.157555580E-1	1.760767251E-1	4.825693369E-2
2.142729997E0	-5.314370990E-2	2.451024652E-1	1.021642014E-1
2.151133018E0	-2.183778957E-2	3.223746419E-1	1.727170646E-1
2.159536039E0	-1.466033421E-2	3.872771561E-1	2.542651594E-1
2.167939060E0	-2.107422985E-2	3.828485310E-1	3.297048211E-1
2.176342081E0	-5.039489828E-3	3.487937748E-1	3.837648034E-1
2.184745101E0	1.267508045E-2	2.936648130E-1	4.538595080E-1
2.193148122E0	1.649287529E-2	2.331909388E-1	5.522059202E-1
2.201551143E0	5.803049076E-3	2.506000996E-1	6.438329816E-1
2.209954164E0	-2.046338283E-2	3.968980014E-1	6.652126908E-1
2.218357185E0	-4.382828996E-2	6.004628539E-1	5.696150661E-1
2.226760206E0	-4.031591862E-2	7.611156702E-1	3.923166394E-1
2.235163226E0	-2.840439789E-2	7.776085734E-1	2.345653474E-1
2.243566247E0	-2.443389036E-2	6.552863717E-1	1.869192570E-1
2.251969268E0	-1.924168877E-2	5.100574493E-1	2.509055138E-1
2.260372289E0	-1.450762246E-2	3.970507085E-1	3.758237660E-1
2.268775310E0	-3.436015919E-2	3.040492237E-1	4.787515402E-1
2.277178331E0	-7.711946964E-2	2.017323077E-1	5.051707029E-1
2.285581351E0	-1.230857223E-1	1.026223376E-1	4.633276463E-1
2.293984372E0	-1.447708011E-1	1.420219894E-2	4.062134326E-1
2.302387393E0	-1.400367320E-1	-4.153761268E-2	3.868190348E-1
2.310790414E0	-1.235438585E-1	-4.963133857E-2	3.991886973E-1
2.319193435E0	-1.110214889E-1	-2.168507688E-2	4.159869850E-1
2.327596456E0	-1.038440317E-1	1.908897609E-2	4.104893506E-1
2.335999476E0	-1.172826737E-1	4.963133857E-2	3.946073353E-1
2.344402497E0	-1.684411317E-1	4.153761268E-2	3.713951409E-1
2.352805518E0	-2.264716178E-1	-1.786728203E-2	3.571929336E-1
2.361208539E0	-2.506000996E-1	-4.840964451E-2	3.416163325E-1
2.369611560E0	-2.431172132E-1	9.162709117E-3	2.663294077E-1
2.378014581E0	-2.444916219E-1	9.651386738E-2	1.563768983E-1
2.386417601E0	-2.701472044E-1	1.863084137E-1	9.300149232E-2
2.394820622E0	-2.800734639E-1	2.440334857E-1	7.681404054E-2
2.403223643E0	-2.883199155E-1	2.454078794E-1	6.490252167E-2
2.411626664E0	-3.026748300E-1	1.876828223E-1	5.344913527E-2
2.420029685E0	-3.014531136E-1	1.096470803E-1	4.978405312E-2
2.428432706E0	-2.974826097E-1	2.855710872E-2	2.855710872E-2
2.436835726E0	-3.006895781E-1	-6.062658876E-2	-8.093725890E-3
2.445238747E0	-3.022166789E-1	-1.061347127E-1	-3.252761811E-2
2.453641768E0	-2.837385535E-1	-7.589777559E-2	-4.520269856E-2
2.462044789E0	-2.652604282E-1	-9.926267900E-3	-4.657710344E-2
2.470447810E0	-2.570139766E-1	5.528167635E-2	-4.428642616E-2
2.478850831E0	-2.475458533E-1	9.086353332E-2	-5.024218559E-2
2.487253851E0	-2.434226274E-1	1.200314835E-1	-6.123743951E-2
2.495656872E0	-2.412846684E-1	1.641651988E-1	-6.704048812E-2
2.504059893E0	-2.376195788E-1	2.070772201E-1	-6.688777357E-2
2.512462914E0	-2.324273884E-1	2.212794125E-1	-6.948387623E-2
2.520865935E0	-2.373141646E-1	2.345653474E-1	-7.085828483E-2
2.529268956E0	-2.463241518E-1	2.402156889E-1	-6.032116711E-2
2.537671976E0	-2.406738251E-1	2.516690791E-1	-4.443913698E-2
2.546074997E0	-2.365505993E-1	2.648022771E-1	-1.786728203E-2
2.554478018E0	-2.385358512E-1	2.831276953E-1	1.206423342E-2
2.562881039E0	-2.180724740E-1	2.968717813E-1	3.100049868E-2
2.571284060E0	-1.960819662E-1	2.817533016E-1	4.642439261E-2
2.579687081E0	-1.889045089E-1	2.732014358E-1	6.917845458E-2
2.588090101E0	-1.719534993E-1	2.855710983E-1	9.483403713E-2
2.596493122E0	-1.466033459E-1	2.727433145E-1	1.183516532E-1
2.604896143E0	-1.328592747E-1	2.452551723E-1	1.330119967E-1
2.613299164E0	-1.159082651E-1	2.292204350E-1	1.380514801E-1
2.621702185E0	-1.021642014E-1	1.892099380E-1	1.392731816E-1
2.630105206E0	-1.036913246E-1	1.163664013E-1	1.255291104E-1
2.638508226E0	-1.038440317E-1	4.398100078E-2	9.819369763E-2
2.646911247E0	-9.544488788E-2	-3.970507067E-3	7.207997888E-2
2.655314268E0	-8.780929446E-2	-2.916795574E-2	6.795676053E-2
2.663717289E0	-7.757759839E-2	-5.299099907E-2	7.070557028E-2
2.672120310E0	-6.872031838E-2	-7.650861889E-2	6.322269142E-2
2.680523331E0	-5.711421743E-2	-8.933641016E-2	4.749337584E-2
2.688926351E0	-4.856235534E-2	-9.437590092E-2	2.657185495E-2
2.697329372E0	-5.008947477E-2	-1.015533581E-1	1.832541777E-3
2.705732393E0	-5.864133686E-2	-1.049130186E-1	-2.580829710E-2
2.714135414E0	-6.261184067E-2	-8.536590636E-2	-4.902049154E-2
2.722538435E0	-5.971032009E-2	-4.077405483E-2	-5.757235363E-2
2.730941456E0	-5.879404768E-2	-4.275931045E-3	-6.551336497E-2
2.739344476E0	-5.696150661E-2	-4.123218823E-3	-7.223268598E-2
2.747747497E0	-5.238015205E-2	-2.199050039E-2	-8.170082420E-2
2.756150518E0	-5.070032179E-2	-3.390202299E-2	-7.696675509E-2
2.764553539E0	-4.886778072E-2	-5.039490014E-2	-5.864133686E-2
2.772956560E0	-4.459185153E-2	-6.872031838E-2	-3.787253052E-2
2.781359581E0	-4.520269856E-2	-1.117850468E-1	-2.367033064E-2
2.789762601E0	-4.703523964E-2	-1.627907902E-1	-1.068982668E-2
2.798165622E0	-3.787253052E-2	-1.973036677E-1	1.282779220E-2
2.806568643E0	-2.122694254E-2	-2.044811249E-1	3.512371704E-2
2.814971664E0	-3.817795310E-3	-2.137965411E-1	5.283828825E-2
2.823374685E0	-2.443389036E-3	-2.290677279E-1	7.269082218E-2
2.831777706E0	-1.221694518E-3	-2.350234836E-1	9.254335612E-2
2.840180726E0	7.177455351E-3	-2.223484069E-1	1.166718230E-1
2.848583747E0	1.710372418E-2	-1.901262105E-1	1.452289373E-1
2.856986768E0	3.237490356E-2	-1.496575773E-1	1.652341783E-1
2.865389789E0	5.512896553E-2	-1.127013192E-1	1.792836636E-1
2.873792810E0	6.734590977E-2	-1.185043678E-1	2.020377368E-1
2.882195831E0	7.360709459E-2	-1.346918195E-1	2.298312783E-1
2.890598851E0	7.986827940E-2	-1.491994411E-1	2.574721277E-1
2.899001872E0	8.338065445E-2	-1.980672181E-1	2.887780368E-1
2.907404893E0	8.842013776E-2	-2.374668717E-1	3.240544796E-1
2.915807914E0	9.697200358E-2	-2.496838123E-1	3.602471650E-1
2.924210935E0	1.070509851E-1	-2.478512824E-1	3.958290219E-1
2.932613956E0	1.240019947E-1	-2.553341687E-1	4.199574888E-1
2.941016976E0	1.444653720E-1	-2.501419485E-1	4.424061179E-1
2.949419997E0	1.579040140E-1	-2.399102598E-1	4.732539058E-1
2.957823018E0	1.724116355E-1	-2.438807636E-1	5.092939138E-1
2.966226039E0	1.840177327E-1	-2.586938143E-1	5.496098399E-1
2.974629060E0	1.983726472E-1	-2.924431264E-1	5.891621709E-1
2.983032081E0	2.232646793E-1	-3.248180151E-1	6.268820167E-1
2.991435101E0	2.667875290E-1	-3.109212518E-1	6.652126908E-1
2.999838122E0	3.197785318E-1	-2.922904193E-1	7.029324770E-1
3.008241143E0	3.591781855E-1	-3.286358118E-1	7.340856791E-1
3.016644164E0	3.755183518E-1	-4.170559645E-1	7.594358325E-1
3.025047185E0	3.553603888E-1	-5.404471159E-1	8.028060198E-1
3.033450206E0	3.338280320E-1	-6.629219651E-1	8.622109294E-1
3.041853226E0	3.295520842E-1	-7.481352091E-1	9.037485123E-1
3.050256247E0	2.932066917E-1	-8.640434742E-1	9.660549164E-1
3.058659268E0	2.412846684E-1	-9.784246087E-1	1.080588818E0
3.067062289E0	1.904316396E-1	-9.526162744E-1	1.136328578E0
3.075465310E0	1.730224788E-1	-8.231166601E-1	1.133121610E0
3.083868331E0	1.592784226E-1	-8.602256775E-1	1.242310643E0
3.092271351E0	1.180462316E-1	-9.054283500E-1	1.443126678E0
3.100674372E0	7.299624383E-2	-8.616000414E-1	1.651272893E0
3.109077393E0	7.498150319E-2	-7.175928354E-1	1.807038903E0
3.117480414E0	7.864658535E-2	-4.999784827E-1	1.924016118E0
3.125883435E0	5.650337040E-2	-2.692309320E-1	2.019613743E0
3.134286456E0	2.702999115E-2	-5.375456065E-2	2.094748020E0
3.142689476E0	-4.581354442E-4	1.513374150E-1	2.145142794E0
3.151092497E0	-1.572931744E-2	3.645231128E-1	2.108950138E0
3.159495518E0	-2.031067200E-2	5.063923597E-1	1.976243615E0
3.167898539E0	-3.084778599E-2	5.616740584E-1	1.800624967E0
3.176301560E0	-3.359659761E-2	5.456393361E-1	1.664864182E0
3.184704581E0	-4.153761268E-2	4.796678126E-1	1.578123927E0
3.193107601E0	-6.108472496E-2	4.147652984E-1	1.514290333E0
3.201510622E0	-7.818844914E-2	3.278722763E-1	1.462368369E0
3.209913643E0	-8.612946421E-2	1.876828223E-1	1.388303161E0
3.218316664E0	-7.269082218E-2	2.596100792E-2	1.259414315E0
3.226719685E0	-2.519745007E-2	-1.462979168E-1	1.084864736E0
3.235122706E0	1.221694518E-2	-2.780882120E-1	9.236010313E-1
3.243525726E0	-9.773556143E-3	-3.811686933E-1	8.281561732E-1
3.251928747E0	-2.015795931E-2	-5.546492934E-1	8.567132950E-1
3.260331768E0	4.092676565E-2	-7.828007340E-1	9.785773158E-1
3.268734789E0	9.437590092E-2	-6.911736727E-1	8.903098702E-1
3.277137810E0	1.348445266E-1	-4.173613787E-1	5.705313683E-1
3.285540831E0	1.621799469E-1	-1.453816444E-1	1.890572309E-1
3.293943851E0	2.002051920E-1	7.773031294E-2	-9.361234307E-2
3.302346872E0	2.519744933E-1	2.441861928E-1	-2.573194206E-1
3.310749893E0	2.872509360E-1	2.548760176E-1	-3.103103936E-1
3.319152914E0	2.817533016E-1	1.279724985E-1	-3.417690396E-1
3.327555935E0	2.602209449E-1	5.176930502E-2	-4.262186885E-1
3.335958956E0	2.402156889E-1	4.657710344E-2	-5.323534012E-1
3.344361976E0	2.301367074E-1	1.000262350E-1	-6.436802745E-1
3.352764997E0	2.218902707E-1	2.383831441E-1	-7.886037827E-1
3.361168018E0	2.139492482E-1	3.742966652E-1	-9.712471366E-1
3.369571039E0	2.200577259E-1	4.802786708E-1	-1.167481780E0
3.377974060E0	2.414373755E-1	5.013529062E-1	-1.337908268E0
3.386377081E0	2.547233105E-1	4.369085133E-1	-1.457328796E0
3.394780101E0	2.376195788E-1	3.477247953E-1	-1.532768488E0
3.403183122E0	1.911951900E-1	2.483094037E-1	-1.584079623E0
3.411586143E0	1.385096163E-1	1.366770715E-1	-1.651425600E0
3.419989164E0	1.142284349E-1	2.535016090E-2	-1.738623977E0
3.428392185E0	1.096470803E-1	-7.788302749E-2	-1.814979911E0
3.436795206E0	1.076618284E-1	-1.649287641E-1	-1.879118919E0
3.445198226E0	9.132166207E-2	-2.585411072E-1	-1.934858680E0
3.453601247E0	5.818320066E-2	-3.509317636E-1	-1.980977654E0
3.462004268E0	2.702999115E-2	-4.156815708E-1	-2.020529985E0
3.470407289E0	1.145338640E-2	-4.427115619E-1	-2.047254562E0
3.478810310E0	5.650337320E-3	-4.260659516E-1	-2.066038132E0
3.487213331E0	3.359660041E-3	-3.613161445E-1	-2.079171419E0
3.495616351E0	1.832541777E-3	-3.167243004E-1	-2.097038746E0
3.504019372E0	1.527118147E-3	-2.878617644E-1	-2.126512051E0
3.512422393E0	8.704573847E-3	-2.454078794E-1	-2.155527353E0
3.520825414E0	1.068982668E-2	-2.099787444E-1	-2.162552118E0
3.529228435E0	-3.359660041E-3	-1.945548505E-1	-2.134453058E0
3.537631456E0	-2.305948362E-2	-1.659977436E-1	-2.096427679E0
3.546034476E0	-4.260659590E-2	-1.394258887E-1	-2.076727867E0
3.554437497E0	-4.077405483E-2	-9.819369763E-2	-2.073215485E0
3.562840518E0	-5.131116882E-2	-1.043021679E-1	-2.062373161E0
3.571243539E0	-6.704048812E-2	-1.220167428E-1	-2.041756868E0
3.579646560E0	-8.811471611E-2	-1.261399537E-1	-2.019766569E0
3.588049581E0	-1.116323397E-1	-1.429382563E-1	-1.990598559E0
3.596452601E0	-1.175880954E-1	-9.452861547E-2	-1.958376288E0
3.604855622E0	-1.032331884E-1	-4.627167806E-2	-1.897902489E0
3.613258643E0	-8.215895295E-2	-1.954711229E-2	-1.815132618E0
3.621661664E0	-7.956285775E-2	-1.740914769E-2	-1.747634053E0
3.630064685E0	-9.544488788E-2	2.657185495E-2	-1.746564984E0
3.638467706E0	-1.157555580E-1	9.009996802E-2	-1.781994224E0
3.646870726E0	-1.091889441E-1	1.342336833E-1	-1.803526521E0
3.655273747E0	-1.044548824E-1	3.405473381E-2	-1.767486572E0
3.663676768E0	-1.178935245E-1	-9.941539168E-2	-1.719229579E0
3.672079789E0	-1.117850468E-1	-1.498102844E-1	-1.657534003E0
3.680482810E0	-1.201841980E-1	-2.182251811E-1	-1.556133389E0
3.688885831E0	-1.498102844E-1	-2.941229641E-1	-1.470309377E0
3.697288851E0	-1.575985998E-1	-2.835858464E-1	-1.437628984E0
3.705691872E0	-1.415638477E-1	-2.321219593E-1	-1.410293579E0
3.714094893E0	-1.637070626E-1	-2.678565085E-1	-1.336381078E0
3.722497914E0	-2.180724740E-1	-3.214583695E-1	-1.264606595E0
3.730900935E0	-2.725905776E-1	-3.034383655E-1	-1.213295341E0
3.739303956E0	-3.136700690E-1	-2.283041626E-1	-1.148087382E0
3.747706976E0	-3.365768492E-1	-1.757712960E-1	-1.051726222E0
3.756109997E0	-3.303156495E-1	-9.743013978E-2	-9.672766328E-1
3.764513018E0	-2.864873707E-1	-1.511846948E-2	-8.860339522E-1
3.772916039E0	-2.615953386E-1	-2.153236605E-2	-7.696675658E-1
3.781319060E0	-2.567085624E-1	-7.986827940E-2	-6.470399499E-1
3.789722081E0	-2.611372173E-1	-1.690519750E-1	-5.286883116E-1
3.798125101E0	-2.611372173E-1	-2.585411072E-1	-3.837648034E-1
3.806528122E0	-2.408265322E-1	-3.081724346E-1	-1.841704547E-1
3.814931143E0	-1.919587553E-1	-2.557922900E-1	2.580829710E-2
3.823334164E0	-1.212531775E-1	-1.495048702E-1	2.275405973E-1
3.831737185E0	-3.833066672E-2	1.420219894E-2	3.929274976E-1
3.840140206E0	4.321744293E-2	3.458922505E-1	5.224271417E-1
3.848543226E0	-9.315420873E-3	7.889092565E-1	5.549547076E-1
3.856946247E0	-1.756185889E-1	1.318666577E0	3.347443044E-1
3.865349268E0	-3.000787199E-1	1.580261827E0	-3.878879920E-2
3.873752289E0	-2.816005945E-1	1.464353561E0	-2.866400778E-1
3.882155310E0	-1.435490996E-1	1.051115394E0	-1.956238300E-1
3.890558331E0	-3.680354729E-2	4.167505503E-1	2.848075330E-1
3.898961351E0	-4.382828996E-2	-1.597365588E-1	8.805363178E-1
3.907364372E0	-1.285833418E-1	-4.518742561E-1	1.311794519E0
3.915767393E0	-2.490729690E-1	-4.984513521E-1	1.499171853E0
3.924170414E0	-3.155026138E-1	-4.344651103E-1	1.435949206E0
3.932573435E0	-2.874036431E-1	-2.916795611E-1	1.153585076E0
3.940976456E0	-2.396048307E-1	-1.837123185E-1	7.893673778E-1
3.949379476E0	-2.467822880E-1	-1.630962193E-1	5.491516590E-1
3.957782497E0	-2.622061968E-1	-1.420219839E-1	5.335750580E-1
3.966185518E0	-2.345653474E-1	-9.834641218E-2	6.694886088E-1
3.974588539E0	-1.939440072E-1	-5.665608495E-2	8.721371889E-1
3.982991560E0	-1.699682474E-1	-1.679829881E-2	1.009883285E0
3.991394581E0	-1.334701329E-1	-2.794626169E-2	9.489512444E-1
3.999797601E0	-8.078455180E-2	-5.207473040E-2	7.760814428E-1
4.008200622E0	-7.238540053E-2	-7.223268598E-2	6.820109487E-1
4.016603643E0	-1.169772521E-1	-7.910472155E-2	6.988092661E-1
4.025006664E0	-1.762294322E-1	-1.151447073E-1	7.232431769E-1
4.033409685E0	-2.179197669E-1	-1.629435122E-1	7.027797699E-1
4.041812706E0	-2.339545041E-1	-2.060082406E-1	6.261184216E-1
4.050215726E0	-2.223484069E-1	-2.591519356E-1	5.427377820E-1
4.058618747E0	-2.087570578E-1	-2.895416021E-1	4.976878166E-1
4.067021768E0	-2.144073844E-1	-2.806843221E-1	4.923428893E-1
4.075424789E0	-2.452551723E-1	-2.640387416E-1	5.125008225E-1
4.083827810E0	-2.817533016E-1	-2.545706034E-1	5.175403357E-1
4.092230831E0	-2.996205688E-1	-2.327328026E-1	4.735593498E-1
4.100633851E0	-2.980934680E-1	-1.656923145E-1	3.837648034E-1
4.109036872E0	-2.805316150E-1	-8.002099395E-2	2.983988822E-1
4.117439893E0	-2.554868758E-1	1.007897966E-2	2.593046725E-1
4.125842914E0	-2.365505993E-1	7.574506104E-2	2.677038014E-1
4.134245935E0	-2.370087355E-1	8.536590636E-2	3.133646548E-1
4.142648956E0	-2.325800955E-1	7.330167294E-2	3.658975065E-1
4.151051976E0	-2.179197669E-1	6.536065787E-2	4.211791754E-1
4.159454997E0	-2.044811249E-1	6.887302548E-2	4.727957845E-1
4.167858018E0	-1.988307834E-1	7.589777559E-2	5.201364160E-1
4.176261039E0	-1.890572309E-1	1.319430023E-1	5.635066032E-1
4.184664060E0	-1.441599578E-1	3.463504016E-1	5.847335458E-1
4.193067081E0	-5.680879578E-2	4.204156399E-1	5.838172436E-1
4.201470101E0	-8.139539510E-2	2.626643181E-1	6.013791561E-1
4.209873122E0	-6.322269142E-2	2.414373755E-1	6.024481058E-1
4.218276143E0	-9.468132630E-3	2.415900975E-1	6.087092757E-1
4.226679164E0	1.542389300E-2	2.287622988E-1	6.277982593E-1
4.235082185E0	2.229592577E-2	2.640387416E-1	6.308525205E-1
4.243485206E0	3.649812192E-2	3.237490356E-1	6.242858768E-1
4.251888226E0	6.016845629E-2	3.987305462E-1	5.974085927E-1
4.260291247E0	7.452336699E-2	4.676035643E-1	5.453338623E-1
4.268694268E0	6.413896382E-2	4.318690002E-1	4.993676245E-1
4.277097289E0	6.062658876E-2	3.987305462E-1	4.555393457E-1
4.285500310E0	6.123743951E-2	3.666610718E-1	4.239279926E-1
4.293903331E0	4.413371533E-2	3.240544796E-1	4.245388508E-1
4.302306351E0	2.947338112E-2	2.921377122E-1	4.347705245E-1
4.310709372E0	2.886253223E-2	2.623589039E-1	4.291202128E-1
4.319112393E0	3.069507517E-2	2.301367074E-1	4.052971601E-1
4.327515414E0	2.672456764E-2	1.951656938E-1	3.878880143E-1
4.335918435E0	2.932066843E-2	1.682884246E-1	3.782671690E-1
4.344321456E0	2.977880463E-2	1.441599578E-1	3.761292100E-1
4.352724476E0	2.351761982E-2	1.050657257E-1	3.793361485E-1
4.361127497E0	2.565558441E-2	6.994201243E-2	3.849864900E-1
4.369530518E0	3.008422814E-2	3.909422457E-2	3.924693763E-1
4.377933539E0	3.008422814E-2	1.832541777E-3	3.984251320E-1
4.386336560E0	3.420744836E-2	-2.000524849E-2	4.039227366E-1
4.394739581E0	3.649812192E-2	-1.817270555E-2	4.143071473E-1
4.403142601E0	3.436015919E-2	-2.641914412E-2	4.289674759E-1
4.411545622E0	2.611372061E-2	-4.275930673E-2	4.398100376E-1
4.419948643E0	2.031067200E-2	-6.963659078E-2	4.474456310E-1
4.428351664E0	1.618745178E-2	-8.918370306E-2	4.546230733E-1
4.436754685E0	1.603474095E-2	-9.071081877E-2	4.686725736E-1
4.445157706E0	1.740914769E-2	-7.253811508E-2	4.947862923E-1
4.453560726E0	2.870982140E-2	-2.733541466E-2	5.161659122E-1
4.461963747E0	4.077405483E-2	1.145338640E-2	5.268557668E-1
4.470366768E0	6.016845629E-2	3.359659761E-2	5.221216679E-1
4.478769789E0	7.910472155E-2	4.275930673E-2	5.238015056E-1
4.487172810E0	8.719844371E-2	7.085828483E-2	5.577035546E-1
4.495575831E0	8.674030751E-2	6.963659078E-2	6.022953987E-1
4.503978851E0	8.750387281E-2	4.657710344E-2	6.245913506E-1
4.512381872E0	8.612946421E-2	1.466033421E-2	6.352811456E-1
4.520784893E0	8.628217876E-2	-3.069507517E-2	6.436802745E-1
4.529187914E0	8.322793990E-2	-6.658235192E-2	6.587987542E-1
4.537590935E0	8.780929446E-2	-8.612946421E-2	6.838434935E-1
4.545993956E0	9.391776472E-2	-1.049130186E-1	7.114843726E-1
4.554396976E0	9.605573118E-2	-1.272089481E-1	7.357655168E-1
4.562799997E0	1.003316641E-1	-1.294996142E-1	7.675296068E-1
4.571203018E0	1.035386100E-1	-1.288887709E-1	8.041804433E-1
4.579606039E0	1.099525094E-1	-1.424801201E-1	8.405258060E-1
4.588009060E0	1.197260618E-1	-1.692046970E-1	8.677085042E-1
4.596412081E0	1.368297935E-1	-1.965401024E-1	9.107732773E-1
4.604815101E0	1.742441803E-1	-2.263189107E-1	9.759812355E-1
4.613218122E0	2.373141646E-1	-2.634278834E-1	1.039051175E0
4.621621143E0	3.144336343E-1	-3.319954872E-1	1.086086392E0
4.630024164E0	3.355078697E-1	-5.175403357E-1	1.124264359E0
4.638427185E0	2.874036431E-1	-7.511894107E-1	1.159693480E0
4.646830206E0	2.064663768E-1	-9.139801860E-1	1.293316364E0
4.655233226E0	1.252236813E-1	-7.217160463E-1	1.465422630E0
4.663636247E0	6.948387623E-2	-3.918585181E-1	1.659977436E0
4.672039268E0	2.458660305E-2	-2.165453583E-1	1.903858185E0
4.680442289E0	-6.032116711E-2	-1.618745178E-1	2.163162947E0
4.688845310E0	-1.598892659E-1	-1.690519750E-1	2.327786207E0
4.697248331E0	-2.009687424E-1	-1.791309565E-1	2.349776745E0
4.705651351E0	-1.841704547E-1	-1.174353883E-1	2.248528719E0
4.714054372E0	-1.785201132E-1	-1.985253580E-2	2.121625185E0
4.722457393E0	-1.858502775E-1	1.337755471E-1	2.008160353E0
4.730860414E0	-1.730224788E-1	2.738122940E-1	1.901262045E0
4.739263435E0	-1.601946950E-1	3.232909143E-1	1.782452345E0
4.747666456E0	-1.380514801E-1	2.962609231E-1	1.638292313E0
4.756069476E0	-1.009425074E-1	2.321219593E-1	1.499171853E0
4.764472497E0	-7.391251624E-2	1.482831687E-1	1.384790778E0
4.772875518E0	-4.856235534E-2	1.220167428E-1	1.247808218E0
4.781278539E0	-2.901524538E-3	1.275143623E-1	1.055696726E0
4.789681560E0	-1.496575773E-2	1.661504507E-1	8.246437907E-1
4.798084581E0	5.894676223E-2	9.529217333E-2	7.035433054E-1
4.806487601E0	2.034121305E-1	-2.901524492E-2	6.980457306E-1
4.814890622E0	2.854183912E-1	1.820324808E-1	5.271611810E-1
4.823293643E0	3.037438095E-1	3.666610718E-1	2.466295809E-1
4.831696664E0	2.728960216E-1	3.261924386E-1	2.473931387E-2
4.840099685E0	2.615953386E-1	3.142809272E-1	-1.566823274E-1
4.848502706E0	2.582356930E-1	3.654393852E-1	-3.003841341E-1
4.856905726E0	2.944283783E-1	3.561239541E-1	-3.839175105E-1
4.865308747E0	3.767400384E-1	3.506263196E-1	-4.816530645E-1
4.873711768E0	4.216373265E-1	4.895940721E-1	-6.894938350E-1
4.882114789E0	4.127800465E-1	6.844543815E-1	-9.852966070E-1
4.890517810E0	3.773508966E-1	7.846332788E-1	-1.246739268E0
4.898920831E0	3.707842827E-1	8.408312798E-1	-1.438392639E0
4.907323851E0	4.028537571E-1	8.473978639E-1	-1.564227104E0
4.915726872E0	4.388937652E-1	7.791357040E-1	-1.655396104E0
4.924129893E0	4.556920528E-1	6.850652099E-1	-1.755422354E0
4.932532914E0	4.477510452E-1	5.445703268E-1	-1.869803429E0
4.940935935E0	4.283566475E-1	3.545968235E-1	-1.980061412E0
4.949338956E0	3.973561525E-1	1.563768983E-1	-2.064816475E0
4.957741976E0	3.599417508E-1	2.290677279E-3	-2.151404142E0
4.966144997E0	3.232909143E-1	-1.165191159E-1	-2.246543407E0
4.974548018E0	2.838912606E-1	-1.856975704E-1	-2.349318504E0
4.982951039E0	2.556395829E-1	-2.018850148E-1	-2.445985079E0
4.991354060E0	2.302894145E-1	-2.118112892E-1	-2.525547981E0
4.999757081E0	2.073826492E-1	-2.423536479E-1	-2.584952831E0
5.008160101E0	1.719534993E-1	-2.956500649E-1	-2.623130798E0
5.016563122E0	1.375933439E-1	-3.271087110E-1	-2.656421900E0
5.024966143E0	1.151447073E-1	-3.706315756E-1	-2.677954435E0
5.033369164E0	9.590301663E-2	-4.651601911E-1	-2.672609568E0
5.041772185E0	7.391251624E-2	-5.741963983E-1	-2.643899679E0
5.050175206E0	5.680879578E-2	-6.881194115E-1	-2.602056503E0
5.058578226E0	3.588727489E-2	-7.887565494E-1	-2.555479527E0
5.066981247E0	1.588202827E-2	-8.438854814E-1	-2.520813942E0
5.075384268E0	-1.007897966E-2	-8.722898960E-1	-2.516232491E0
5.083787289E0	-6.215370819E-2	-9.626953006E-1	-2.552730799E0
5.092190310E0	-1.128540337E-1	-1.085780978E0	-2.627254009E0
5.100593331E0	-1.450762302E-1	-1.215891480E0	-2.670013428E0
5.108996351E0	-1.743968874E-1	-1.307518601E0	-2.616869688E0
5.117399372E0	-1.936385781E-1	-1.309198380E0	-2.478512764E0
5.125802393E0	-2.177670449E-1	-1.229024649E0	-2.335421801E0
5.134205414E0	-2.209739983E-1	-1.070509791E0	-2.293120623E0
5.142608435E0	-2.221956849E-1	-9.649859667E-1	-2.311904192E0
5.151011456E0	-2.392994165E-1	-9.831586480E-1	-2.329771519E0
5.159414476E0	-2.504473627E-1	-1.011410356E0	-2.311293364E0
5.167817497E0	-2.234173864E-1	-9.987352490E-1	-2.214779377E0
5.176220518E0	-1.769929975E-1	-9.747595191E-1	-2.025264025E0
5.184623539E0	-1.330119967E-1	-9.365815520E-1	-1.795280099E0
5.193026560E0	-9.116895497E-2	-8.475505710E-1	-1.578582048E0
5.201429581E0	-4.596625641E-2	-7.360709310E-1	-1.334701300E0
5.209832601E0	-4.413371533E-2	-6.613948941E-1	-1.011563063E0
5.218235622E0	-1.171299592E-1	-5.931326747E-1	-6.778877378E-1
5.226638643E0	-1.780619770E-1	-4.256078303E-1	-4.865398407E-1
5.235041664E0	-1.856975704E-1	-3.006895781E-1	-4.193466306E-1
5.243444685E0	-1.731752008E-1	-3.110739589E-1	-3.365768492E-1
5.251847706E0	-1.595838517E-1	-3.663556576E-1	-1.093416587E-1
5.260250726E0	-1.319430023E-1	-4.193466306E-1	2.150182426E-1
5.268653747E0	-6.902574003E-2	-4.017847776E-1	5.276193023E-1
5.277056768E0	-1.863084175E-2	-2.736595869E-1	8.170081973E-1
5.285459789E0	6.566607952E-2	-8.887827396E-2	1.062416077E0
5.293862810E0	9.452861547E-2	3.228327632E-1	1.118308663E0
5.302265831E0	-2.515163720E-1	9.941539168E-1	6.859814525E-1
5.310668851E0	-6.610894203E-1	1.687007427E0	-1.847812980E-1
5.319071872E0	-6.051968932E-1	1.863236904E0	-5.607577562E-1
5.327474893E0	-1.447708011E-1	1.184738278E0	2.102841735E-1
5.335877914E0	3.544441164E-1	7.131642103E-2	1.459466815E0
5.344280935E0	4.353813827E-1	-7.020162344E-1	2.322899342E0
5.352683956E0	1.579040140E-1	-9.715525508E-1	2.614884377E0
5.361086976E0	-1.995943487E-1	-7.624900937E-1	2.267159700E0
5.369489997E0	-4.556920528E-1	-5.389199853E-1	1.527118206E0
5.377893018E0	-4.598152637E-1	-3.264978528E-1	8.951966763E-1
5.386296039E0	-3.084778786E-1	9.743013978E-2	6.340594292E-1
5.394699060E0	-2.104368806E-1	5.740436912E-1	7.026270628E-1
5.403102081E0	-1.472141892E-1	7.999044657E-1	7.614210844E-1
5.411505101E0	-9.483403713E-2	7.348492742E-1	6.934643388E-1
5.419908122E0	-1.400367320E-1	4.541649222E-1	6.018372774E-1
5.428311143E0	-2.467822880E-1	1.391204596E-1	6.325323582E-1
5.436714164E0	-3.121429384E-1	-1.527118147E-3	7.715001106E-1
5.445117185E0	-3.258870244E-1	6.077930331E-2	8.892409205E-1
5.453520206E0	-3.052709103E-1	1.498102844E-1	8.977927566E-1
5.461923226E0	-2.374668717E-1	1.363716573E-1	8.408312798E-1
5.470326247E0	-1.684411317E-1	9.926267713E-2	7.974610925E-1
5.478729268E0	-1.270562261E-1	6.658235192E-2	7.765395641E-1
5.487132289E0	-9.605573118E-2	9.727742523E-2	8.107470274E-1
5.495535310E0	-6.826218218E-2	1.621799469E-1	8.686248064E-1
5.503938331E0	-3.955236077E-2	2.234173864E-1	8.922951221E-1
5.512341351E0	-9.162708884E-4	2.817533016E-1	8.362498879E-1
5.520744372E0	2.962609194E-2	3.158080280E-1	7.230904698E-1
5.529147393E0	5.848862603E-2	3.787252903E-1	6.378772259E-1
5.537550414E0	9.101624042E-2	4.424061179E-1	5.874823332E-1
5.545953435E0	1.244601309E-1	4.697415531E-1	5.555655956E-1
5.554356456E0	1.298050433E-1	4.596625566E-1	5.508314967E-1
5.562759476E0	1.226275861E-1	4.256078303E-1	5.818319917E-1
5.571162497E0	9.590301663E-2	3.657447994E-1	6.184828281E-1
5.579565518E0	6.200099736E-2	2.913741469E-1	6.169557571E-1
5.587968539E0	4.443913698E-2	2.408265322E-1	5.757235289E-1
5.596371560E0	3.985778242E-2	2.284568697E-1	5.262449384E-1
5.604774581E0	4.092676565E-2	2.454078794E-1	4.941754341E-1
5.613177601E0	4.031591862E-2	2.739650011E-1	4.764608741E-1
5.621580622E0	3.680354729E-2	2.589992285E-1	4.721849263E-1
5.629983643E0	3.634541109E-2	2.153236568E-1	4.691306949E-1
5.638386664E0	3.359659761E-2	1.733279079E-1	4.731011987E-1
5.646789685E0	2.916795574E-2	1.120904684E-1	4.844018817E-1
5.655192706E0	1.695101149E-2	3.909422457E-2	4.973823726E-1
5.663595726E0	1.832541777E-3	-1.969982497E-2	5.008947253E-1
5.671998747E0	3.512371797E-3	-6.154286116E-2	4.920374751E-1
5.680401768E0	2.550287358E-2	-8.261708915E-2	4.805840850E-1
5.688804789E0	4.107947648E-2	-9.483403713E-2	4.799732268E-1
5.697207810E0	4.764608666E-2	-1.221694499E-1	4.895940721E-1
5.705610831E0	5.314370990E-2	-1.334701329E-1	5.050179958E-1
5.714013851E0	5.971032009E-2	-1.317902952E-1	5.166240931E-1
5.722416872E0	6.169557199E-2	-1.485885978E-1	5.106683373E-1
5.730819893E0	6.505523622E-2	-1.430909634E-1	4.874561131E-1
5.739222914E0	6.520794332E-2	-1.229330078E-1	4.761554301E-1
5.747625935E0	6.291726977E-2	-1.123958975E-1	4.662291706E-1
5.756028956E0	7.467607409E-2	-1.056765765E-1	4.463766217E-1
5.764431976E0	8.185353130E-2	-9.590301663E-2	4.401154518E-1
5.772834997E0	9.254335612E-2	-9.559759498E-2	4.443913698E-1
5.781238018E0	8.704573661E-2	-1.362189353E-1	4.495835900E-1
5.789641039E0	8.078455180E-2	-1.760767251E-1	4.504998624E-1
5.798044060E0	8.108997345E-2	-1.705790907E-1	4.524851143E-1
5.806447081E0	7.452336699E-2	-2.086043358E-1	4.634803534E-1
5.814850101E0	7.757759839E-2	-2.600682080E-1	4.781406820E-1
5.823253122E0	9.712471068E-2	-2.762556672E-1	4.947862923E-1
5.831656143E0	1.189625040E-1	-3.255815804E-1	5.137225389E-1
5.840059164E0	1.354553849E-1	-4.034646153E-1	5.224271417E-1
5.848462185E0	1.401894391E-1	-4.802786708E-1	5.329642296E-1
5.856865206E0	1.342336833E-1	-5.163186193E-1	5.584670901E-1
5.865268226E0	1.333174109E-1	-5.060869455E-1	5.932853818E-1
5.873671247E0	1.472141892E-1	-5.082249045E-1	6.197045445E-1
5.882074268E0	1.557660550E-1	-4.995203316E-1	6.308525205E-1
5.890477289E0	1.780619770E-1	-4.621059597E-1	6.400152445E-1
5.898880310E0	2.211267054E-1	-4.149180055E-1	6.595623493E-1
5.907283331E0	2.603736520E-1	-3.855973184E-1	6.951441765E-1
5.915686351E0	2.953446507E-1	-3.713951409E-1	7.395833135E-1
5.924089372E0	3.301629424E-1	-3.642176688E-1	7.879929543E-1
5.932492393E0	3.461976945E-1	-4.004103839E-1	8.504521251E-1
5.940895414E0	3.219164908E-1	-4.773771465E-1	9.584193230E-1
5.949298435E0	3.234436214E-1	-4.424061179E-1	1.107618809E0
5.957701456E0	3.158080280E-1	-3.509317636E-1	1.315306902E0
5.966104476E0	2.863346636E-1	-3.939964771E-1	1.570488334E0
5.974507497E0	3.397837877E-1	-4.025483429E-1	1.809329629E0
5.982910518E0	3.429907262E-1	-2.962609231E-1	2.025264025E0
5.991313539E0	3.078670204E-1	-1.954711229E-1	2.188971043E0
5.999716560E0	2.748812735E-1	-9.315420687E-2	2.275100708E0
6.008119581E0	2.166980654E-1	2.244863659E-2	2.301672459E0
6.016522601E0	1.644706279E-1	1.992889196E-1	2.272351742E0
6.024925622E0	1.365243644E-1	3.629959822E-1	2.224094868E0
6.033328643E0	8.093725890E-2	4.859289825E-1	2.194316149E0
6.041731664E0	2.443389036E-2	5.798467398E-1	2.166675329E0
6.050134685E0	-5.039489828E-3	5.680879354E-1	2.104063272E0
6.058537706E0	-1.328592747E-2	4.521796703E-1	1.976243615E0
6.066940726E0	-2.458660305E-2	3.483356535E-1	1.828113079E0
6.075343747E0	-4.688252881E-2	3.208475113E-1	1.708845258E0
6.083746768E0	-4.520269856E-2	3.168770075E-1	1.600572586E0
6.092149789E0	-1.404948719E-2	3.319954872E-1	1.463284612E0
6.100552810E0	-4.230117425E-2	3.272614181E-1	1.294385314E0
6.108955831E0	-6.413896382E-2	2.263189107E-1	1.147934675E0
6.117358851E0	1.007897966E-2	6.963659078E-2	1.064859509E0
6.125761872E0	1.038440317E-1	4.155288339E-1	7.311841846E-1
6.134164893E0	1.696628332E-1	7.427902818E-1	2.889307439E-1
6.142567914E0	1.243074164E-1	6.331431866E-1	-5.222744122E-2
6.150970935E0	3.603998944E-2	4.720322192E-1	-2.841966748E-1
6.159373956E0	-1.740914769E-2	5.224271417E-1	-4.512633979E-1
6.167776976E0	1.038440317E-2	4.738647640E-1	-5.632011890E-1
6.176179997E0	1.258345395E-1	3.132119179E-1	-6.957550049E-1
6.184583018E0	2.090624720E-1	3.038965166E-1	-9.506310225E-1
6.192986039E0	2.093679011E-1	2.838912606E-1	-1.245823026E0
6.201389060E0	1.734806150E-1	2.064663768E-1	-1.504822254E0
6.209792081E0	1.753131598E-1	1.122431830E-1	-1.735569715E0
6.218195101E0	2.313583940E-1	3.191677108E-2	-1.918976665E0
6.226598122E0	2.918322682E-1	7.024743594E-3	-2.048323631E0
6.235001143E0	3.087832928E-1	3.481829539E-2	-2.148655176E0
6.243404164E0	2.738122940E-1	7.162184268E-2	-2.254179001E0
6.251807185E0	2.237228155E-1	1.123958975E-1	-2.351914644E0
6.260210206E0	1.743968874E-1	1.514901221E-1	-2.439876556E0
6.268613226E0	1.427855492E-1	1.751604527E-1	-2.545858622E0
6.277016247E0	1.282779276E-1	1.649287641E-1	-2.648939133E0
6.285419268E0	1.168245375E-1	1.511846930E-1	-2.731709003E0
6.293822289E0	8.674030751E-2	1.496575773E-1	-2.784852743E0
6.302225310E0	3.848337755E-2	1.725643575E-1	-2.821503401E0
6.310628331E0	1.832541777E-3	1.948602796E-1	-2.850518703E0
6.319031351E0	-2.626643144E-2	1.563768983E-1	-2.859223366E0
6.327434372E0	-5.696150661E-2	4.947862774E-2	-2.835094929E0
6.335837393E0	-9.193251282E-2	-5.818320066E-2	-2.794931650E0
6.344240414E0	-1.156028435E-1	-1.495048702E-1	-2.743009567E0
6.352643435E0	-1.305686086E-1	-2.496838123E-1	-2.681619406E0
6.361046456E0	-1.481304616E-1	-3.458922505E-1	-2.626337767E0
6.369449476E0	-1.627907902E-1	-4.179722369E-1	-2.577928066E0
6.377852497E0	-1.669140160E-1	-5.184566379E-1	-2.533794403E0
6.386255518E0	-1.678302884E-1	-6.342121959E-1	-2.487828255E0
6.394658539E0	-1.424801201E-1	-6.397097707E-1	-2.438502312E0
6.403061560E0	-1.229330078E-1	-6.537593007E-1	-2.374668837E0
6.411464581E0	-1.614163816E-1	-7.360709310E-1	-2.313736677E0
6.419867601E0	-2.223484069E-1	-7.560762167E-1	-2.272809982E0
6.428270622E0	-2.480039895E-1	-6.737645268E-1	-2.206991196E0
6.436673643E0	-2.325800955E-1	-5.511369109E-1	-2.102383614E0
6.445076664E0	-2.157817930E-1	-4.214846194E-1	-1.993499994E0
6.453479685E0	-1.902789176E-1	-3.055763543E-1	-1.877897143E0
6.461882706E0	-1.893626451E-1	-2.971771955E-1	-1.743968964E0
6.470285726E0	-2.293731421E-1	-3.138227761E-1	-1.606528282E0
6.478688747E0	-2.518217862E-1	-2.663294077E-1	-1.448929667E0
6.487091768E0	-2.305948436E-1	-2.455606014E-1	-1.229024649E0
6.495494789E0	-1.821851879E-1	-2.431172132E-1	-1.021489382E0
6.503897810E0	-1.317902952E-1	-2.476985604E-1	-8.289197087E-1
6.512300831E0	-1.049130186E-1	-2.502946556E-1	-5.971031785E-1
6.520703851E0	-1.183516532E-1	-2.028012872E-1	-3.484883606E-1
6.529106872E0	-1.504211426E-1	-1.282779276E-1	-1.464506239E-1
6.537509893E0	-1.812689304E-1	-8.124268800E-2	-7.788302377E-3
6.545912914E0	-1.995943487E-1	-2.473931387E-2	1.293469071E-1
6.554315935E0	-7.101099193E-2	2.443389036E-2	4.220954478E-1
6.562718956E0	-1.174353883E-1	3.162661791E-1	7.240067124E-1
6.571121976E0	-5.945070982E-1	5.745018721E-1	8.866447806E-1
6.579524997E0	-9.524635673E-1	2.466295809E-1	1.113574505E0
6.587928018E0	-9.946120381E-1	3.148917556E-1	1.069593549E0
6.596331039E0	-5.796940327E-1	1.018282413E0	7.237012982E-1
6.604734060E0	2.199050039E-2	1.626075387E0	3.717005551E-1
6.613137081E0	2.417428046E-1	1.338671803E0	3.869717419E-1
6.621540101E0	7.238540053E-2	3.425326049E-1	8.554915786E-1
6.629943122E0	-8.444963396E-2	-4.178195298E-1	1.438239813E0
6.638346143E0	-7.360709459E-2	-5.464028716E-1	1.753131628E0
6.646749164E0	-1.911951900E-1	-4.311054647E-1	1.732210159E0
6.655152185E0	-3.770454824E-1	-3.342861533E-1	1.470003963E0
6.663555206E0	-3.927747905E-1	-2.047865391E-1	1.058750987E0
6.671958226E0	-3.147390485E-1	1.255291104E-1	6.858287454E-1
6.680361247E0	-2.449497581E-1	4.526378214E-1	4.973823726E-1
6.688764268E0	-1.895153672E-1	5.036435723E-1	4.508052766E-1
6.697167289E0	-2.003578991E-1	3.408527672E-1	4.540122151E-1
6.705570310E0	-2.864873707E-1	7.834116369E-2	5.509842038E-1
6.713973331E0	-3.622324169E-1	-2.397575527E-1	7.501204610E-1
6.722376351E0	-3.452814221E-1	-5.131117105E-1	9.655967951E-1
6.730779372E0	-2.730487287E-1	-6.177192926E-1	1.065623045E0
6.739182393E0	-2.153236568E-1	-5.887040496E-1	1.045770526E0
6.747585414E0	-1.867665499E-1	-5.219689608E-1	9.842276573E-1
6.755988435E0	-1.653869003E-1	-4.427115619E-1	9.222266674E-1
6.764391456E0	-1.328592747E-1	-3.658975065E-1	8.223531246E-1
6.772794476E0	-1.046075895E-1	-3.206948042E-1	6.972821355E-1
6.781197497E0	-8.506047726E-2	-2.162399292E-1	6.111527085E-1
6.789600518E0	-5.818320066E-2	-9.132166207E-2	5.734328628E-1
6.798003539E0	-2.886253223E-2	-1.740914769E-2	5.612159371E-1
6.806406560E0	-1.740914769E-2	-2.412846684E-2	5.645755529E-1
6.814809581E0	-2.794626169E-2	-1.072036922E-1	5.829010010E-1
6.823212601E0	-3.603998944E-2	-1.556133330E-1	5.887040496E-1
6.831615622E0	-4.535540938E-2	-1.482831687E-1	5.589252710E-1
6.840018643E0	-3.558185324E-2	-1.275143623E-1	4.964661002E-1
6.848421664E0	-1.481304597E-2	-9.529217333E-2	4.274403751E-1
6.856824685E0	-1.038440317E-2	-6.688777357E-2	3.813214004E-1
6.865227706E0	-1.511846948E-2	-7.238540053E-2	3.710896969E-1
6.873630726E0	-1.908897609E-2	-9.254335612E-2	3.732276857E-1
6.882033747E0	-2.137965336E-2	-1.082726792E-1	3.762819171E-1
6.890436768E0	-1.939439960E-2	-1.250709742E-1	3.717005551E-1
6.898839789E0	-1.542389300E-2	-1.478250325E-1	3.574983478E-1
6.907242810E0	-2.596100792E-3	-1.537808031E-1	3.326063454E-1
6.915645831E0	9.620844387E-3	-1.565296054E-1	3.206948042E-1
6.924048851E0	1.725643501E-2	-1.643179059E-1	3.301629424E-1
6.932451872E0	1.695101149E-2	-1.769929975E-1	3.523061574E-1
6.940854893E0	1.496575773E-2	-1.896680743E-1	3.773508966E-1
6.949257914E0	2.809897438E-2	-1.942494214E-1	3.993414044E-1
6.957660935E0	4.840964451E-2	-1.989834905E-1	4.222481549E-1
6.966063956E0	6.444438547E-2	-2.180724740E-1	4.448495209E-1
6.974466976E0	7.788302749E-2	-2.389939874E-1	4.599680007E-1
6.982869997E0	9.040539712E-2	-2.406738251E-1	4.679090083E-1
6.991273018E0	1.044548824E-1	-2.060082406E-1	4.807367921E-1
6.999676039E0	1.180462316E-1	-1.449235082E-1	5.060869455E-1
7.008079060E0	1.291942000E-1	-7.498150319E-2	5.308262706E-1
7.016482081E0	1.340809762E-1	-1.618745178E-2	5.450284481E-1
7.024885101E0	1.513374150E-1	2.092151903E-2	5.558710098E-1
7.033288122E0	1.623326540E-1	4.672981426E-2	5.809157491E-1
7.041691143E0	1.641651988E-1	5.024218559E-2	6.073349118E-1
7.050094164E0	1.676775664E-1	2.932066843E-2	6.206207871E-1
7.058497185E0	1.809635013E-1	5.039489828E-3	6.281036735E-1
7.066900206E0	1.818797737E-1	1.832541777E-3	6.392516494E-1
7.075303226E0	1.835595965E-1	1.527118147E-3	6.584933400E-1
7.083706247E0	1.866138428E-1	-4.734066315E-3	6.815528274E-1
7.092109268E0	1.892099380E-1	1.160609815E-2	6.956022978E-1
7.100512289E0	1.959292591E-1	3.756710514E-2	7.085828185E-1
7.108915310E0	2.081461996E-1	6.841489673E-2	7.169819474E-1
7.117318331E0	2.192941606E-1	8.551861346E-2	7.207997441E-1
7.125721351E0	2.309002578E-1	7.834116369E-2	7.238540053E-1
7.134124372E0	2.406738251E-1	4.932591692E-2	7.317950130E-1
7.142527393E0	2.504473627E-1	1.908897609E-2	7.447755337E-1
7.150930414E0	2.620534599E-1	-9.162709117E-3	7.664605975E-1
7.159333435E0	2.802261710E-1	-4.352286831E-2	7.899782062E-1
7.167736456E0	2.973299026E-1	-7.864658535E-2	8.086090684E-1
7.176139476E0	3.174878657E-1	-1.181989461E-1	8.163973689E-1
7.184542497E0	3.408527672E-1	-1.630962193E-1	8.186880350E-1
7.192945518E0	3.658975065E-1	-2.153236568E-1	8.228112459E-1
7.201348539E0	3.797942698E-1	-2.606790662E-1	8.205205798E-1
7.209751560E0	4.002576768E-1	-2.964136302E-1	8.212841153E-1
7.218154581E0	4.123218954E-1	-3.455868363E-1	8.244910836E-1
7.226557601E0	4.225535989E-1	-3.582619131E-1	8.310576677E-1
7.234960622E0	4.417952895E-1	-2.771719396E-1	8.499939442E-1
7.243363643E0	4.433223903E-1	-2.325800955E-1	9.028322697E-1
7.251766664E0	4.585935771E-1	-1.183516532E-1	9.405520558E-1
7.260169685E0	4.833329022E-1	3.665083647E-2	9.823951125E-1
7.268572706E0	4.853181541E-1	7.711946964E-2	1.088529825E0
7.276975726E0	4.793623984E-1	1.120904684E-1	1.202147365E0
7.285378747E0	4.665345848E-1	1.562241912E-1	1.311947227E0
7.293781768E0	4.422534108E-1	1.811162084E-1	1.430451512E0
7.302184789E0	4.146125913E-1	2.893888950E-1	1.551093936E0
7.310587810E0	3.988832533E-1	5.048652887E-1	1.674332380E0
7.318990831E0	3.683409095E-1	7.424848676E-1	1.806886196E0
7.327393851E0	2.802261710E-1	9.167290330E-1	1.979603291E0
7.335796872E0	1.598892659E-1	1.033095479E0	2.164079189E0
7.344199893E0	9.590301663E-2	1.201841950E0	2.229439735E0
7.352602914E0	7.207997888E-2	1.329050899E0	2.122846842E0
7.361005935E0	5.497625470E-2	1.304158926E0	1.897749662E0
7.369408956E0	4.993676394E-2	1.218640327E0	1.659672022E0
7.377811976E0	3.603998944E-2	1.086544514E0	1.507112861E0
7.386214997E0	-2.443389036E-3	8.974873424E-1	1.457481503E0
7.394618018E0	-4.459185153E-2	6.797202826E-1	1.451678514E0
7.403021039E0	-6.673506647E-2	4.408790171E-1	1.429535270E0
7.411424060E0	-7.223268598E-2	2.101314515E-1	1.349667072E0
7.419827081E0	-7.605048269E-2	7.757759839E-2	1.189930439E0
7.428230101E0	-4.764608666E-2	5.024218559E-2	9.765920639E-1
7.436633122E0	7.482878864E-3	-2.443389036E-2	8.000571728E-1
7.445036143E0	-7.207997888E-2	-1.421747059E-1	6.516213417E-1
7.453439164E0	-1.224748790E-1	-1.786728203E-2	3.419217467E-1
7.461842185E0	-5.726693198E-2	2.102841735E-1	-3.436015919E-2
7.470245206E0	3.283303976E-2	3.138227761E-1	-3.301629424E-1
7.478648226E0	6.337540597E-2	2.660239935E-1	-5.276193023E-1
7.487051247E0	7.467607409E-2	1.977618039E-1	-6.899519563E-1
7.495454268E0	1.035386100E-1	1.556133330E-1	-8.729007244E-1
7.503857289E0	1.415638477E-1	1.003316641E-1	-1.093874693E0
7.512260310E0	1.685938388E-1	1.221694518E-2	-1.332715988E0
7.520663331E0	1.921114624E-1	-6.673506647E-2	-1.543305635E0
7.529066351E0	2.156290859E-1	-1.168245375E-1	-1.714800954E0
7.537469372E0	2.165453583E-1	-1.168245375E-1	-1.863084197E0
7.545872393E0	2.102841735E-1	-7.864658535E-2	-2.011978149E0
7.554275414E0	2.078407854E-1	-7.605048269E-2	-2.161635637E0
7.562678435E0	2.057028115E-1	-1.218640283E-1	-2.302283287E0
7.571081456E0	2.076880634E-1	-1.710372269E-1	-2.430255890E0
7.579484476E0	2.008160353E-1	-2.166980654E-1	-2.539902925E0
7.587887497E0	1.852394342E-1	-2.651077211E-1	-2.645426750E0
7.596290518E0	1.646233350E-1	-3.103103936E-1	-2.760418653E0
7.604693539E0	1.554606259E-1	-3.370349705E-1	-2.870523930E0
7.613096560E0	1.546970755E-1	-3.448232710E-1	-2.951919317E0
7.621499581E0	1.539335102E-1	-3.507790267E-1	-3.009033680E0
7.629902601E0	1.397313178E-1	-3.839175105E-1	-3.048738718E0
7.638305622E0	1.082726792E-1	-4.306473136E-1	-3.083862305E0
7.646708643E0	7.192726433E-2	-4.421007037E-1	-3.121887684E0
7.655111664E0	4.932591692E-2	-4.243861437E-1	-3.160981894E0
7.663514685E0	3.787253052E-2	-4.077405334E-1	-3.189997196E0
7.671917706E0	2.901524492E-2	-3.973561525E-1	-3.194883823E0
7.680320726E0	1.511846948E-2	-4.294256270E-1	-3.180681705E0
7.688723747E0	-6.566607859E-3	-4.734066129E-1	-3.156095028E0
7.697126768E0	-3.084778599E-2	-5.209000111E-1	-3.116542816E0
7.705529789E0	-5.925218388E-2	-5.610632300E-1	-3.069049358E0
7.713932810E0	-7.391251624E-2	-5.045598149E-1	-3.034994602E0
7.722335831E0	-9.009996802E-2	-4.831801951E-1	-2.990860939E0
7.730738851E0	-1.188097894E-1	-5.143333673E-1	-2.933746576E0
7.739141872E0	-1.330119967E-1	-5.864133835E-1	-2.865331888E0
7.747544893E0	-1.504211426E-1	-6.855233312E-1	-2.772635698E0
7.755947914E0	-1.913478971E-1	-8.335011005E-1	-2.644205093E0
7.764350935E0	-2.681619525E-1	-9.529217482E-1	-2.480039835E0
7.772753956E0	-3.501681983E-1	-9.101623893E-1	-2.305795670E0
7.781156976E0	-3.675773442E-1	-6.971294284E-1	-2.133994818E0
7.789559997E0	-3.194731176E-1	-4.317162931E-1	-1.961888671E0
7.797963018E0	-2.385358512E-1	-1.731752008E-1	-1.775732994E0
7.806366039E0	-1.640124917E-1	-4.123218823E-3	-1.553231835E0
7.814769060E0	-1.235438585E-1	1.030804738E-1	-1.331494331E0
7.823172081E0	-1.267508119E-1	1.484358907E-1	-1.117850542E0
7.831575101E0	-1.543916464E-1	1.240019947E-1	-8.900044560E-1
7.839978122E0	-1.730224788E-1	8.628217876E-2	-6.613948941E-1
7.848381143E0	-1.437018216E-1	1.226275861E-1	-4.353813827E-1
7.856784164E0	-9.498675168E-2	1.493521482E-1	-1.831014603E-1
7.865187185E0	-6.887302548E-2	1.823379099E-1	7.391251624E-2
7.873590206E0	-5.390727147E-2	2.116585821E-1	3.155026138E-1
7.881993226E0	-7.345438004E-2	2.762556672E-1	5.297572613E-1
7.890396247E0	-9.712471068E-2	3.706315756E-1	7.093463540E-1
7.898799268E0	-1.753131598E-1	4.752391577E-1	8.385405540E-1
7.907202289E0	-4.689779878E-1	5.783196688E-1	8.307522535E-1
7.915605310E0	-9.741486907E-1	7.082774043E-1	5.309789777E-1
7.924008331E0	-1.202758312E0	1.414722204E0	-1.797417998E-1
7.932411351E0	-4.654656053E-1	2.547233105E0	-6.296308041E-1
7.940814372E0	1.014006436E-1	2.412846565E0	2.092151903E-2
7.949217393E0	4.672981426E-2	7.091936469E-1	1.333021402E0
7.957620414E0	-1.401894391E-1	-1.229941010E0	2.328702450E0
7.966023435E0	-2.542651594E-1	-2.053057671E0	2.678412437E0
7.974426456E0	-9.330692142E-2	-1.751757264E0	2.515927076E0
7.982829476E0	1.262926757E-1	-1.011257648E0	2.050461531E0
7.991232497E0	-1.679829881E-2	-5.375455618E-1	1.561936498E0
7.999635518E0	-3.309265077E-1	-2.545706034E-1	1.171146870E0
8.008038539E0	-5.795413256E-1	1.679829881E-2	8.948912621E-1
8.016441560E0	-5.639647245E-1	3.996468186E-1	7.487460375E-1
8.024844581E0	-3.590254784E-1	7.174401283E-1	6.968240142E-1
8.033247601E0	-2.003578991E-1	8.379297256E-1	6.864396334E-1
8.041650622E0	-1.261399537E-1	7.337802649E-1	7.285880446E-1
8.050053643E0	-1.073564067E-1	3.596363366E-1	8.570187092E-1
8.058456664E0	-1.287360638E-1	-1.001789495E-1	1.020267606E0
8.066859685E0	-1.759240031E-1	-4.518742561E-1	1.154654026E0
8.075262706E0	-2.156290859E-1	-6.699467301E-1	1.237576604E0
8.083665726E0	-1.904316396E-1	-6.820109487E-1	1.232689738E0
8.092068747E0	-1.130067408E-1	-5.737382770E-1	1.118003249E0
8.100471768E0	-4.688252881E-2	-3.800997138E-1	1.003774762E0
8.108874789E0	-3.542914242E-2	-1.343863904E-1	9.202414155E-1
8.117277810E0	-3.863608837E-2	-8.399149403E-3	8.547280431E-1
8.125680831E0	-4.275930673E-2	2.382304333E-2	8.025006056E-1
8.134083851E0	-4.001049697E-2	4.718795046E-2	7.539382577E-1
8.142486872E0	-2.947338112E-2	5.787777901E-2	6.962131858E-1
8.150889893E0	-1.130067464E-2	1.618745178E-2	6.493306160E-1
8.159292914E0	-5.192201585E-3	-4.092676565E-2	6.131379604E-1
8.167695935E0	-6.872031838E-3	-5.238015205E-2	5.848862529E-1
8.176098956E0	3.054236295E-4	-2.153236605E-2	5.656445622E-1
8.184501976E0	-9.162708884E-4	-7.330167107E-3	5.636593103E-1
8.192904997E0	-1.252236869E-2	-2.061609551E-2	5.577035546E-1
8.201308018E0	-3.329117596E-2	-6.200099736E-2	5.141806602E-1
8.209711039E0	-4.566083103E-2	-1.004843712E-1	4.445441067E-1
8.218114060E0	-4.779879749E-2	-1.027750522E-1	3.886515796E-1
8.226517081E0	-4.566083103E-2	-6.978929788E-2	3.639122546E-1
8.234920101E0	-4.291202128E-2	-3.970507160E-2	3.640649617E-1
8.243323122E0	-4.291202128E-2	-3.680354729E-2	3.649812341E-1
8.251726143E0	-3.680354729E-2	-4.932591692E-2	3.596363366E-1
8.260129164E0	-2.932066843E-2	-8.154810965E-2	3.602471650E-1
8.268532185E0	-2.565558441E-2	-9.865183383E-2	3.691044450E-1
8.276935206E0	-1.756185852E-2	-9.468132257E-2	3.764346242E-1
8.285338226E0	-1.023169141E-2	-7.864658535E-2	3.831539452E-1
8.293741247E0	-8.551862091E-3	-8.246438205E-2	3.961344361E-1
8.302144268E0	-6.566607859E-3	-8.887827396E-2	4.088095427E-1
8.310547289E0	1.374406274E-3	-8.704573661E-2	4.123218954E-1
8.318950310E0	1.267508045E-2	-8.796200156E-2	4.260659516E-1
8.327353331E0	2.916795574E-2	-8.582404256E-2	4.535540938E-1
8.335756351E0	4.123219103E-2	-9.086353332E-2	4.851654470E-1
8.344159372E0	4.169032723E-2	-1.244601309E-1	5.125008225E-1
8.352562393E0	4.291202128E-2	-1.699682474E-1	5.396835804E-1
8.360965414E0	5.909947306E-2	-1.881409585E-1	5.653391480E-1
8.369368435E0	7.757759839E-2	-1.669140160E-1	5.981721878E-1
8.377771456E0	9.376505762E-2	-1.469087601E-1	6.320741773E-1
8.386174476E0	1.035386100E-1	-1.406475753E-1	6.644490957E-1
8.394577497E0	1.113269106E-1	-1.461452097E-1	6.945333481E-1
8.402980518E0	1.195733473E-1	-1.211004704E-1	7.131641507E-1
8.411383539E0	1.253764033E-1	-7.574506104E-2	7.270609736E-1
8.419786560E0	1.374406368E-1	-5.390727147E-2	7.404996157E-1
8.428189581E0	1.591257155E-1	-2.886253223E-2	7.522584200E-1
8.436592601E0	1.795890927E-1	-9.620844387E-3	7.644753456E-1
8.444995622E0	1.907370538E-1	-1.160609815E-2	7.956285477E-1
8.453398643E0	2.029540092E-1	-1.985253580E-2	8.298360109E-1
8.461801664E0	2.130329758E-1	-2.687728032E-2	8.518264890E-1
8.470204685E0	2.171562016E-1	-4.535540938E-2	8.646543026E-1
8.478607706E0	2.276933193E-1	-6.230641901E-2	8.721371889E-1
8.487010726E0	2.365505993E-1	-7.559234649E-2	8.805363178E-1
8.495413747E0	2.470877171E-1	-9.895725548E-2	8.965710402E-1
8.503816768E0	2.586938143E-1	-1.294996142E-1	9.245173335E-1
8.512219789E0	2.603736520E-1	-1.844758689E-1	9.643751383E-1
8.520622810E0	2.522799075E-1	-2.576248348E-1	1.008508801E0
8.529025831E0	2.533488870E-1	-2.797680497E-1	1.030652046E0
8.537428851E0	2.490729690E-1	-3.168770075E-1	1.074327588E0
8.545831872E0	2.489202619E-1	-3.791834414E-1	1.140146375E0
8.554234893E0	2.666348219E-1	-4.118637741E-1	1.191610336E0
8.562637914E0	3.077143133E-1	-4.251496792E-1	1.235591292E0
8.571040935E0	3.691044450E-1	-3.341334462E-1	1.283542752E0
8.579443956E0	4.228590131E-1	-2.037175596E-1	1.356997132E0
8.587846976E0	4.523324072E-1	-9.315420687E-2	1.453816533E0
8.596249997E0	4.766135812E-1	5.879404768E-2	1.541014910E0
8.604653018E0	4.671454430E-1	1.134648770E-1	1.681051612E0
8.613056039E0	4.396573007E-1	1.815743446E-1	1.843231559E0
8.621459060E0	4.194993675E-1	3.675773442E-1	1.991667509E0
8.629862081E0	4.126273096E-1	5.795413256E-1	2.125137568E0
8.638265101E0	3.720059693E-1	7.372926474E-1	2.217375517E0
8.646668122E0	3.124483824E-1	8.645015955E-1	2.249597788E0
8.655071143E0	2.747285664E-1	1.057682037E0	2.226232767E0
8.663474164E0	2.348707765E-1	1.227039456E0	2.191872597E0
8.671877185E0	1.982199401E-1	1.320040941E0	2.122846842E0
8.680280206E0	1.944021434E-1	1.379445791E0	1.985711694E0
8.688683226E0	2.136438340E-1	1.324011445E0	1.827960372E0
8.697086247E0	2.250972092E-1	1.216349602E0	1.688687205E0
8.705489268E0	2.186833173E-1	1.183516622E0	1.558118701E0
8.713892289E0	2.113531530E-1	1.143047929E0	1.402199864E0
8.722295310E0	2.275405973E-1	1.047908425E0	1.170841455E0
8.730698331E0	2.935121059E-1	9.321529269E-1	8.663341403E-1
8.739101351E0	3.480302393E-1	7.860077024E-1	5.919110179E-1
8.747504372E0	3.576510847E-1	5.827482939E-1	4.489727318E-1
8.755907393E0	3.642176688E-1	3.707842827E-1	4.498890042E-1
8.764310414E0	2.948864996E-1	2.023431510E-1	4.828747511E-1
8.772713435E0	2.626643181E-1	2.553341687E-1	3.019112647E-1
8.781116456E0	3.046600819E-1	3.368822634E-1	-4.062134400E-2
8.789519476E0	3.326063454E-1	2.921377122E-1	-3.736858070E-1
8.797922497E0	2.918322682E-1	2.481566966E-1	-6.410841942E-1
8.806325518E0	2.489202619E-1	3.352024257E-1	-8.559496999E-1
8.814728539E0	2.550287247E-1	4.211791754E-1	-1.037065983E0
8.823131560E0	2.846548259E-1	4.294256270E-1	-1.219709277E0
8.831534581E0	3.069507480E-1	3.907895386E-1	-1.416860223E0
8.839937601E0	3.081724346E-1	2.924431264E-1	-1.609124422E0
8.848340622E0	3.025220931E-1	1.656923145E-1	-1.766112089E0
8.856743643E0	2.886253297E-1	6.215370819E-2	-1.888434291E0
8.865146664E0	2.635805905E-1	-7.788302377E-3	-1.987391591E0
8.873549685E0	2.351761907E-1	-7.543963939E-2	-2.084668875E0
8.881952706E0	2.110477239E-1	-1.904316396E-1	-2.172478199E0
8.890355726E0	1.754658818E-1	-3.602471650E-1	-2.244863749E0
8.898758747E0	1.273616552E-1	-5.178457499E-1	-2.323510170E0
8.907161768E0	7.375980914E-2	-6.497887969E-1	-2.411777735E0
8.915564789E0	1.557660475E-2	-7.705838084E-1	-2.494241953E0
8.923967810E0	-3.634541109E-2	-8.609892130E-1	-2.569223642E0
8.932370831E0	-6.673506647E-2	-9.159654379E-1	-2.626948595E0
8.940773851E0	-8.078455180E-2	-9.787300229E-1	-2.666042805E0
8.949176872E0	-9.559759498E-2	-1.052337170E0	-2.687269688E0
8.957579893E0	-1.052184403E-1	-1.076312900E0	-2.701166630E0
8.965982914E0	-1.104106456E-1	-1.036760569E0	-2.717201233E0
8.974385935E0	-1.072036922E-1	-9.597937465E-1	-2.742398739E0
8.982788956E0	-9.559759498E-2	-8.640434742E-1	-2.775537252E0
8.991191976E0	-7.269082218E-2	-7.792884111E-1	-2.799207449E0
8.999594997E0	-6.123743951E-2	-7.482879162E-1	-2.797222376E0
9.007998018E0	-5.848862603E-2	-6.931589246E-1	-2.800276518E0
9.016401039E0	-6.490252167E-2	-6.684195995E-1	-2.807912111E0
9.024804060E0	-1.198787764E-1	-7.403468490E-1	-2.790044785E0
9.033207081E0	-1.766875684E-1	-7.371399403E-1	-2.769276142E0
9.041610101E0	-1.750077456E-1	-6.140542030E-1	-2.748965263E0
9.050013122E0	-1.505738497E-1	-5.664080977E-1	-2.713383436E0
9.058416143E0	-1.269035190E-1	-5.578562617E-1	-2.686964273E0
9.066819164E0	-1.195733473E-1	-5.690042377E-1	-2.656574726E0
9.075222185E0	-1.560714692E-1	-6.554391384E-1	-2.609844923E0
9.083625206E0	-2.029540092E-1	-6.919372082E-1	-2.582662106E0
9.092028226E0	-2.199050188E-1	-6.902574301E-1	-2.561129808E0
9.100431247E0	-2.118112892E-1	-7.010999322E-1	-2.492867708E0
9.108834268E0	-2.217375487E-1	-7.337802649E-1	-2.346875191E0
9.117237289E0	-2.515163720E-1	-7.676823139E-1	-2.178434134E0
9.125640310E0	-2.962609231E-1	-8.044858575E-1	-2.035190344E0
9.134043331E0	-3.454341292E-1	-8.064711094E-1	-1.915006161E0
9.142446351E0	-3.852919042E-1	-7.350019813E-1	-1.794363856E0
9.150849372E0	-3.689517379E-1	-5.955760479E-1	-1.661809921E0
9.159252393E0	-2.993151546E-1	-4.240806997E-1	-1.491230845E0
9.167655414E0	-2.370087355E-1	-3.222219348E-1	-1.238798261E0
9.176058435E0	-2.107423097E-1	-2.524326444E-1	-9.190196991E-1
9.184461456E0	-2.353289127E-1	-2.458660156E-1	-5.691569448E-1
9.192864476E0	-2.738122940E-1	-2.322746664E-1	-2.799207568E-1
9.201267497E0	-2.846548259E-1	-1.253764033E-1	-9.880454093E-2
9.209670518E0	-2.747285664E-1	2.611372061E-2	5.573981255E-2
9.218073539E0	-2.615953386E-1	1.172826737E-1	2.892361879E-1
9.226476560E0	-2.220429778E-1	1.580567211E-1	6.137487888E-1
9.234879581E0	-1.560714692E-1	2.431172132E-1	9.271134138E-1
9.243282601E0	-8.750387281E-2	4.766135812E-1	1.160609841E0
9.251685622E0	-1.713426560E-1	9.539906979E-1	1.236660242E0
9.260088643E0	-8.006680608E-1	1.800319552E0	6.426113248E-1
9.268491664E0	-1.118308663E0	3.265436649E0	-5.842754245E-1
9.276894685E0	-4.743228853E-1	4.337779045E0	-1.150836229E0
9.285297706E0	8.689302206E-2	3.172740698E0	-6.261184067E-2
9.293700726E0	2.021904439E-1	4.198047817E-1	1.415638566E0
9.302103747E0	6.719319522E-2	-1.910272121E0	2.581440449E0
9.310506768E0	-1.656923145E-1	-2.743773222E0	3.184194088E0
9.318909789E0	-2.681619525E-1	-2.119639874E0	3.086153030E0
9.327312810E0	-1.754658818E-1	-9.471186996E-1	2.416969776E0
9.335715831E0	-2.464768738E-1	-2.438807636E-1	1.577360392E0
9.344118851E0	-4.921901822E-1	-1.246128380E-1	1.041341901E0
9.352521872E0	-5.233433843E-1	9.743013978E-2	8.910734653E-1
9.360924893E0	-2.837385535E-1	6.256603003E-1	8.912261724E-1
9.369327914E0	4.734066315E-3	1.057682037E0	8.835905790E-1
9.377730935E0	6.215370819E-2	9.843803644E-1	8.974873424E-1
9.386133956E0	-1.175880991E-2	5.760289431E-1	1.009119630E0
9.394536976E0	-1.189625040E-1	6.551336497E-2	1.233147860E0
9.402939997E0	-1.759240031E-1	-3.219164908E-1	1.424343109E0
9.411343018E0	-1.608055383E-1	-4.257605374E-1	1.442515850E0
9.419746039E0	-1.189625040E-1	-3.084778786E-1	1.338519096E0
9.428149060E0	-6.520794332E-2	-8.429691941E-2	1.216044188E0
9.436552081E0	-1.114796288E-2	2.212794125E-1	1.094485521E0
9.444955101E0	-1.068982761E-3	4.253024161E-1	9.471186996E-1
9.453358122E0	-8.399149403E-3	5.155550838E-1	8.556442857E-1
9.461761143E0	1.527118147E-4	5.661026835E-1	8.142594099E-1
9.470164164E0	2.107422985E-2	5.346440673E-1	8.203678727E-1
9.478567185E0	3.222219273E-2	4.236225784E-1	8.388460279E-1
9.486970206E0	2.367033064E-2	3.078670204E-1	8.438854814E-1
9.495373226E0	2.367033064E-2	2.392994165E-1	8.328902125E-1
9.503776247E0	4.306473210E-2	1.937913001E-1	8.055548072E-1
9.512179268E0	5.940489471E-2	1.571404636E-1	7.748597264E-1
9.520582289E0	6.169557199E-2	1.621799469E-1	7.357655168E-1
9.528985310E0	6.230641901E-2	1.791309565E-1	6.908682585E-1
9.537388331E0	6.108472496E-2	1.536280811E-1	6.444438696E-1
9.545791351E0	4.734066129E-2	1.145338640E-1	5.952706337E-1
9.554194372E0	2.993151546E-2	8.093725890E-2	5.474718809E-1
9.562597393E0	2.092151903E-2	5.390727147E-2	5.082249045E-1
9.571000414E0	9.468132630E-3	4.001049697E-2	4.756973088E-1
9.579403435E0	-3.054236295E-3	1.221694518E-2	4.509579837E-1
9.587806456E0	-1.084253844E-2	4.581354442E-4	4.335488379E-1
9.596209476E0	-1.298050396E-2	-1.527118147E-4	4.228590131E-1
9.604612497E0	-1.374406368E-2	3.054236295E-3	4.129327536E-1
9.613015518E0	-1.145338640E-2	7.177455351E-3	3.981196880E-1
9.621418539E0	-9.468132630E-3	-4.886778072E-3	3.715478480E-1
9.629821560E0	-1.038440317E-2	-3.038965166E-2	3.494046330E-1
9.638224581E0	-9.926267900E-3	-5.238015205E-2	3.420744538E-1
9.646627601E0	-3.054236295E-3	-4.337015375E-2	3.506263196E-1
9.655030622E0	9.773556143E-3	-3.756710514E-2	3.603998721E-1
9.663433643E0	1.664558798E-2	-5.375456065E-2	3.694098890E-1
9.671836664E0	2.015795931E-2	-7.910472155E-2	3.808632791E-1
9.680239685E0	2.855710872E-2	-9.269607067E-2	3.851391971E-1
9.688642706E0	3.863608837E-2	-9.941539168E-2	3.831539452E-1
9.697045726E0	4.291202128E-2	-1.108687744E-1	3.843756318E-1
9.705448747E0	4.489727318E-2	-1.142284349E-1	3.947600424E-1
9.713851768E0	4.749337584E-2	-1.168245375E-1	4.043808877E-1
9.722254789E0	4.627167806E-2	-1.279724985E-1	4.121691883E-1
9.730657810E0	4.749337584E-2	-1.348445266E-1	4.242334068E-1
9.739060831E0	5.222744122E-2	-1.369825006E-1	4.498890042E-1
9.747463851E0	5.833591148E-2	-1.366770715E-1	4.785988331E-1
9.755866872E0	6.612421572E-2	-1.397313178E-1	5.184566379E-1
9.764269893E0	7.742489129E-2	-1.406475753E-1	5.596888065E-1
9.772672914E0	7.788302749E-2	-1.643179059E-1	5.891621709E-1
9.781075935E0	6.810946763E-2	-2.214321345E-1	6.099309921E-1
9.789478956E0	6.566607952E-2	-2.861819267E-1	6.274928451E-1
9.797881976E0	7.956285775E-2	-3.174878657E-1	6.497887969E-1
9.806284997E0	9.773556143E-2	-3.092414141E-1	7.001836896E-1
9.814688018E0	1.189625040E-1	-2.706053257E-1	7.696675658E-1
9.823091039E0	1.382041872E-1	-2.478512824E-1	8.328902125E-1
9.831494060E0	1.627907902E-1	-2.585411072E-1	8.842014074E-1
9.839897081E0	1.831014603E-1	-2.735068500E-1	9.324583411E-1
9.848300101E0	2.014268786E-1	-2.980934680E-1	9.767447710E-1
9.856703122E0	2.142546773E-1	-3.405473530E-1	1.020878434E0
9.865106143E0	2.321219593E-1	-3.830012381E-1	1.064095974E0
9.873509164E0	2.467822880E-1	-3.828485310E-1	1.107618809E0
9.881912185E0	2.628170252E-1	-3.593308926E-1	1.158777237E0
9.890315206E0	2.732014358E-1	-3.309265077E-1	1.219098449E0
9.898718226E0	2.797680497E-1	-3.122956753E-1	1.275907159E0
9.907121247E0	2.852656841E-1	-3.035911024E-1	1.329050899E0
9.915524268E0	3.191677034E-1	-2.727433145E-1	1.379140377E0
9.923927289E0	3.686463237E-1	-2.189887464E-1	1.443432093E0
9.932330310E0	3.898732662E-1	-1.739387512E-1	1.519177079E0
9.940733331E0	3.724641204E-1	-2.469350100E-1	1.572778940E0
9.949136351E0	3.356605768E-1	-4.141544402E-1	1.603168607E0
9.957539372E0	3.115321100E-1	-5.428904891E-1	1.663184404E0
9.965942393E0	3.009949923E-1	-5.602996349E-1	1.760461807E0
9.974345414E0	2.843494117E-1	-4.721849263E-1	1.870872498E0
9.982748435E0	2.530434728E-1	-3.581092060E-1	1.993194580E0
9.991151456E0	2.150182426E-1	-2.018850148E-1	2.115364075E0
9.999554476E0	1.806580722E-1	-1.139230132E-1	2.204700470E0
1.000795750E1	1.546970755E-1	1.143811494E-1	2.199813604E0
1.001636052E1	1.557660550E-1	4.978405237E-1	2.185000658E0
1.002476354E1	1.356080920E-1	7.446228266E-1	2.261662006E0
1.003316656E1	8.399149776E-2	8.018897176E-1	2.412388563E0
1.004156958E1	5.054761097E-2	8.515210748E-1	2.478054523E0
1.004997260E1	7.696675509E-2	9.411629438E-1	2.356037855E0
1.005837562E1	1.569877416E-1	9.411629438E-1	2.102536201E0
1.006677864E1	2.243336588E-1	8.761076927E-1	1.859113574E0
1.007518166E1	2.420482337E-1	8.044858575E-1	1.725948930E0
1.008358468E1	2.205158621E-1	7.924215794E-1	1.696780920E0
1.009198771E1	1.605001241E-1	8.057075143E-1	1.726559758E0
1.010039073E1	9.819369763E-2	7.026270628E-1	1.705790997E0
1.010879375E1	9.025268257E-2	5.436540842E-1	1.513374090E0
1.011719677E1	8.093725890E-2	4.819584787E-1	1.161984205E0
1.012559979E1	2.617480457E-1	3.999522328E-1	8.776348233E-1
1.013400281E1	2.770192325E-1	1.114796251E-1	7.614210844E-1
1.014240583E1	1.575985998E-1	2.512109280E-1	4.827220440E-1
1.015080885E1	1.495048702E-1	6.711684465E-1	-3.512371797E-3
1.015921187E1	1.919587553E-1	7.598940134E-1	-4.194993675E-1
1.016761489E1	1.737860441E-1	6.213843822E-1	-6.905628443E-1
1.017601791E1	1.566823274E-1	4.726430774E-1	-8.539644480E-1
1.018442094E1	1.800472289E-1	3.436015844E-1	-9.532271624E-1
1.019282396E1	2.035648525E-1	2.977880239E-1	-1.078756213E0
1.020122698E1	2.090624720E-1	3.210002482E-1	-1.301104665E0
1.020963000E1	2.209739983E-1	3.116848171E-1	-1.610498786E0
1.021803302E1	2.422009408E-1	2.127275616E-1	-1.935164094E0
1.022643604E1	2.689255178E-1	9.895725548E-2	-2.201188087E0
1.023483906E1	2.909159958E-1	1.496575773E-2	-2.395742893E0
1.024324208E1	2.950392365E-1	-2.535016090E-2	-2.547843933E0
1.025164510E1	2.849602401E-1	-1.664558798E-2	-2.708802223E0
1.026004812E1	2.816005945E-1	5.497625098E-3	-2.890071154E0
1.026845114E1	2.799207568E-1	-3.023693897E-2	-3.057595968E0
1.027685416E1	2.675510943E-1	-1.611109674E-1	-3.183430433E0
1.028525718E1	2.499892414E-1	-2.993151546E-1	-3.278875351E0
1.029366021E1	2.160872221E-1	-4.253024161E-1	-3.358132839E0
1.030206323E1	1.591257155E-1	-5.601469278E-1	-3.426242352E0
1.031046625E1	9.605573118E-2	-6.687250137E-1	-3.494504452E0
1.031886927E1	5.360184610E-2	-7.266027927E-1	-3.570402145E0
1.032727229E1	3.603998944E-2	-7.255338430E-1	-3.655004501E0
1.033567531E1	2.367033064E-2	-7.153021693E-1	-3.724030256E0
1.034407833E1	-9.009997360E-3	-7.551599145E-1	-3.747395277E0
1.035248135E1	-5.696150661E-2	-7.626428008E-1	-3.759001255E0
1.036088437E1	-9.345962852E-2	-6.986565590E-1	-3.796110392E0
1.036928739E1	-1.107160673E-1	-6.363501549E-1	-3.856431484E0
1.037769041E1	-1.175880954E-1	-6.328377724E-1	-3.888806343E0
1.038609344E1	-1.282779276E-1	-7.029324770E-1	-3.876283884E0
1.039449646E1	-1.339282542E-1	-8.153283596E-1	-3.821002245E0
1.040289948E1	-1.488940120E-1	-9.688037634E-1	-3.729375124E0
1.041130250E1	-1.687465608E-1	-1.057376623E0	-3.615604877E0
1.041970552E1	-1.360662282E-1	-9.684983492E-1	-3.510997295E0
1.042810854E1	-7.925742865E-2	-8.846595287E-1	-3.392493010E0
1.043651156E1	-1.050657257E-1	-9.329164624E-1	-3.246805906E0
1.044491458E1	-1.719534993E-1	-9.691091776E-1	-3.103562117E0
1.045331760E1	-2.350234836E-1	-9.568922520E-1	-2.938938856E0
1.046172062E1	-3.066453338E-1	-9.723161459E-1	-2.701930046E0
1.047012364E1	-3.596363366E-1	-8.797727823E-1	-2.422162056E0
1.047852666E1	-3.304683566E-1	-5.935907960E-1	-2.082072973E0
1.048692968E1	-2.840439677E-1	-3.405473530E-1	-1.629893184E0
1.049533271E1	-2.519744933E-1	-1.562241912E-1	-1.190083146E0
1.050373573E1	-2.260134816E-1	2.168507688E-2	-9.020686746E-1
1.051213875E1	-1.794363856E-1	1.919587553E-1	-7.464553714E-1
1.052054177E1	-1.362189353E-1	3.101576865E-1	-5.648810267E-1
1.052894479E1	-9.177979827E-2	4.506525695E-1	-2.985515893E-1
1.053734781E1	-1.374406368E-2	6.215370893E-1	1.298050396E-2
1.054575083E1	7.482878864E-2	7.553126216E-1	3.132119179E-1
1.055415385E1	6.795676053E-2	7.739434838E-1	5.793886185E-1
1.056255687E1	-1.669140160E-1	7.244648337E-1	7.908945084E-1
1.057095989E1	-6.407787800E-1	7.119424939E-1	8.681666851E-1
1.057936291E1	-1.143353343E0	1.070509791E0	6.377245188E-1
1.058776594E1	-1.040272832E0	1.971814990E0	1.814216375E-1
1.059616896E1	-3.187095523E-1	2.784089088E0	-9.330692142E-2
1.060457198E1	3.220692277E-1	2.472709656E0	1.922641695E-1
1.061297500E1	3.145863414E-1	8.638907075E-1	9.940012097E-1
1.062137802E1	1.003316641E-1	-7.751652002E-1	1.826127887E0
1.062978104E1	-6.642963737E-2	-1.556744218E0	2.366116762E0
1.063818406E1	-1.052184403E-1	-1.277587056E0	2.430866718E0
1.064658708E1	-1.928750277E-1	-6.371136904E-1	2.038244486E0
1.065499010E1	-3.472666740E-1	-2.510582209E-1	1.390288353E0
1.066339312E1	-5.355603099E-1	-2.211267054E-1	7.994463444E-1
1.067179614E1	-5.712949038E-1	-7.314895838E-2	5.439594984E-1
1.068019916E1	-4.978405237E-1	3.794888556E-1	5.619794726E-1
1.068860218E1	-3.768927455E-1	7.838697433E-1	6.704048514E-1
1.069700521E1	-2.414373755E-1	8.473978639E-1	7.200362086E-1
1.070540823E1	-1.638597846E-1	6.658235192E-1	7.084301114E-1
1.071381125E1	-1.908897758E-1	3.843756318E-1	7.366818190E-1
1.072221427E1	-2.611372173E-1	4.107947648E-2	8.684720993E-1
1.073061729E1	-2.725905776E-1	-3.219164908E-1	1.041341901E0
1.073902031E1	-1.918060333E-1	-5.453338623E-1	1.135870457E0
1.074742333E1	-7.864658535E-2	-5.520532131E-1	1.149461865E0
1.075582635E1	1.221694518E-3	-3.796415627E-1	1.131594539E0
1.076422937E1	1.985253580E-2	-1.809635013E-1	1.057682037E0
1.077263239E1	1.634016447E-2	-3.771981969E-2	9.817842841E-1
1.078103541E1	8.551862091E-3	7.681404054E-2	9.257390499E-1
1.078943844E1	1.328592747E-2	1.519482583E-1	8.805363178E-1
1.079784146E1	3.497100621E-2	2.646495700E-1	8.564078808E-1
1.080624448E1	5.665608495E-2	3.930802047E-1	8.301414251E-1
1.081464750E1	5.390727147E-2	4.081986845E-1	7.925743461E-1
1.082305052E1	5.955760926E-2	3.419217467E-1	7.577560544E-1
1.083145354E1	7.559234649E-2	2.739650011E-1	7.572978735E-1
1.083985656E1	8.582404256E-2	2.011214644E-1	7.814263701E-1
1.084825958E1	7.559234649E-2	1.411057115E-1	8.063184023E-1
1.085666260E1	6.444438547E-2	1.087308154E-1	8.150229454E-1
1.086506562E1	5.604523420E-2	1.119377613E-1	8.034168482E-1
1.087346864E1	4.535540938E-2	1.409530044E-1	7.811209559E-1
1.088187166E1	4.337015375E-2	1.826433241E-1	7.386670709E-1
1.089027469E1	4.566083103E-2	2.226538211E-1	6.867450476E-1
1.089867771E1	4.153761268E-2	2.415900975E-1	6.390989423E-1
1.090708073E1	3.436015919E-2	2.478512824E-1	6.024481058E-1
1.091548375E1	3.374931216E-2	2.411319613E-1	5.816792846E-1
1.092388677E1	3.771981969E-2	2.090624720E-1	5.807630420E-1
1.093228979E1	3.710897267E-2	1.707318127E-1	5.957288146E-1
1.094069281E1	3.603998944E-2	1.327065676E-1	6.209262609E-1
1.094909583E1	4.291202128E-2	1.055238619E-1	6.438329816E-1
1.095749885E1	5.635065958E-2	8.338065445E-2	6.580352187E-1
1.096590187E1	6.780404598E-2	7.727217674E-2	6.621584296E-1
1.097430489E1	7.207997888E-2	8.292251825E-2	6.598677635E-1
1.098270791E1	8.063183725E-2	1.053711548E-1	6.536065936E-1
1.099111094E1	9.605573118E-2	1.004843712E-1	6.281036735E-1
1.099951396E1	1.050657257E-1	7.773031294E-2	5.934380889E-1
1.100791698E1	1.030804738E-1	3.970507160E-2	5.827482939E-1
1.101632000E1	1.010952219E-1	9.773556143E-3	5.899257660E-1
1.102472302E1	9.727742523E-2	-1.267508045E-2	6.039752364E-1
1.103312604E1	8.567132801E-2	-3.802524135E-2	6.201626658E-1
1.104152906E1	6.184828654E-2	-1.143811494E-1	6.293253899E-1
1.104993208E1	3.298575059E-2	-2.075353563E-1	6.238277555E-1
1.105833510E1	3.298575059E-2	-2.605263591E-1	6.174138784E-1
1.106673812E1	3.802524135E-2	-2.677038014E-1	6.239804626E-1
1.107514114E1	4.337015375E-2	-2.750339806E-1	6.383354068E-1
1.108354416E1	5.344913527E-2	-2.858765125E-1	6.418477297E-1
1.109194718E1	5.879404768E-2	-2.832804024E-1	6.449019909E-1
1.110035021E1	6.826218218E-2	-2.741177082E-1	6.633801460E-1
1.110875323E1	7.543963939E-2	-2.822114229E-1	6.949914694E-1
1.111715625E1	8.994726092E-2	-3.054236174E-1	7.266027927E-1
1.112555927E1	1.064401343E-1	-3.326063454E-1	7.536327839E-1
1.113396229E1	1.180462316E-1	-3.775036037E-1	7.789829373E-1
1.114236531E1	1.349972486E-1	-4.060607255E-1	8.066238165E-1
1.115076833E1	1.546970755E-1	-3.985778391E-1	8.310576677E-1
1.115917135E1	1.647760421E-1	-4.072824121E-1	8.674030900E-1
1.116757437E1	1.644706279E-1	-4.770717025E-1	9.274188280E-1
1.117597739E1	1.701209545E-1	-5.343386531E-1	9.630007148E-1
1.118438041E1	1.866138428E-1	-5.083776116E-1	9.652913809E-1
1.119278344E1	1.918060333E-1	-5.726693273E-1	1.047297597E0
1.120118646E1	1.998997629E-1	-6.290199757E-1	1.162900448E0
1.120958948E1	2.156290859E-1	-5.897729993E-1	1.261094213E0
1.121799250E1	2.516690791E-1	-5.051707029E-1	1.362494826E0
1.122639552E1	3.130592108E-1	-3.739912212E-1	1.480846524E0
1.123479854E1	3.654393852E-1	-2.922904193E-1	1.610498786E0
1.124320156E1	3.674246371E-1	-3.807105422E-1	1.694490314E0
1.125160458E1	3.490992188E-1	-5.442649126E-1	1.736944199E0
1.126000760E1	3.150444627E-1	-6.459710002E-1	1.811925650E0
1.126841062E1	2.786990702E-1	-6.145123243E-1	1.981893897E0
1.127681364E1	2.554868758E-1	-4.518742561E-1	2.230355978E0
1.128521666E1	2.681619525E-1	-1.560714692E-1	2.461103678E0
1.129361969E1	2.925958335E-1	1.417165697E-1	2.615648031E0
1.130202271E1	2.567085624E-1	2.467822880E-1	2.636569500E0
1.131042573E1	2.507528067E-1	3.956763148E-1	2.486606598E0
1.131882875E1	2.362451702E-1	5.751127005E-1	2.309460878E0
1.132723177E1	1.806580722E-1	6.974348426E-1	2.269450188E0
1.133563479E1	9.712471068E-2	8.031114340E-1	2.364589691E0
1.134403781E1	6.261184067E-2	9.104678631E-1	2.418649673E0
1.135244083E1	8.017370105E-2	9.620844126E-1	2.338017941E0
1.136084385E1	9.498675168E-2	8.538117409E-1	2.197217703E0
1.136924687E1	7.925742865E-2	6.478035450E-1	2.120556355E0
1.137764989E1	5.696150661E-2	4.404208660E-1	2.131704330E0
1.138605291E1	6.261184067E-2	2.441861928E-1	2.168813229E0
1.139445594E1	9.177979827E-2	6.917845458E-2	2.122999668E0
1.140285896E1	1.191152185E-1	-9.254335612E-2	1.973647475E0
1.141126198E1	1.362189353E-1	-2.304421216E-1	1.749771953E0
1.141966500E1	1.440072358E-1	-2.345653474E-1	1.470462084E0
1.142806802E1	1.734806150E-1	-1.130067408E-1	1.139993668E0
1.143647104E1	2.391466945E-1	-6.841489673E-2	9.051229358E-1
1.144487406E1	1.608055383E-1	-2.058555335E-1	8.214368224E-1
1.145327708E1	5.222744122E-2	-1.478250325E-1	5.989357233E-1
1.146168010E1	4.062134400E-2	2.596100792E-2	1.919587553E-1
1.147008312E1	6.062658876E-2	8.842013776E-2	-2.108950168E-1
1.147848614E1	5.253286287E-2	1.368297935E-1	-5.485408306E-1
1.148688916E1	2.458660305E-2	2.600682080E-1	-8.420529366E-1
1.149529218E1	2.076880634E-2	3.637595475E-1	-1.092194915E0
1.150369521E1	3.863608837E-2	3.946073353E-1	-1.309045672E0
1.151209823E1	5.864133686E-2	3.759764731E-1	-1.532768488E0
1.152050125E1	8.903098851E-2	3.054236174E-1	-1.768250108E0
1.152890427E1	1.229330078E-1	2.057028115E-1	-1.991362095E0
1.153730729E1	1.279724985E-1	1.322484314E-1	-2.202562571E0
1.154571031E1	1.120904684E-1	1.640124917E-1	-2.426590681E0
1.155411333E1	1.143811494E-1	2.463241518E-1	-2.653367758E0
1.156251635E1	1.346918195E-1	3.101576865E-1	-2.861208677E0
1.157091937E1	1.695101112E-1	3.617742956E-1	-3.056221485E0
1.157932239E1	2.015796006E-1	4.288147688E-1	-3.238559484E0
1.158772541E1	2.159345001E-1	4.614951015E-1	-3.401197433E0
1.159612844E1	2.144073844E-1	4.421007037E-1	-3.560323238E0
1.160453146E1	2.052446753E-1	3.697153032E-1	-3.721281528E0
1.161293448E1	1.950129867E-1	2.860292196E-1	-3.881170750E0
1.162133750E1	1.973036677E-1	1.991362125E-1	-4.030370235E0
1.162974052E1	2.067717910E-1	8.139539510E-2	-4.145514965E0
1.163814354E1	2.092151791E-1	-8.796200156E-2	-4.219580173E0
1.164654656E1	2.052446753E-1	-2.770192325E-1	-4.270586014E0
1.165494958E1	2.092151791E-1	-4.827220440E-1	-4.315788746E0
1.166335260E1	2.163926363E-1	-7.403468490E-1	-4.354730129E0
1.167175562E1	1.969982386E-1	-1.042716265E0	-4.350454330E0
1.168015864E1	1.191152185E-1	-1.260635972E0	-4.311970711E0
1.168856166E1	3.817795310E-3	-1.251626015E0	-4.302350044E0
1.169696469E1	-1.038440317E-1	-1.093569279E0	-4.351981163E0
1.170536771E1	-1.670667231E-1	-9.316948056E-1	-4.418410778E0
1.171377073E1	-1.786728203E-1	-7.895200849E-1	-4.446815491E0
1.172217375E1	-1.649287641E-1	-7.241594195E-1	-4.408637524E0
1.173057677E1	-1.278197914E-1	-6.155813336E-1	-4.332434177E0
1.173897979E1	-1.160609797E-1	-5.158604980E-1	-4.185219765E0
1.174738281E1	-1.722589284E-1	-5.149442554E-1	-3.932023764E0
1.175578583E1	-2.377723008E-1	-5.685460567E-1	-3.575441837E0
1.176418885E1	-2.883199155E-1	-6.792621613E-1	-3.173656940E0
1.177259187E1	-3.225273490E-1	-8.060129285E-1	-2.785158157E0
1.178099489E1	-3.298575282E-1	-8.811471462E-1	-2.413151979E0
1.178939791E1	-3.345915973E-1	-8.367080092E-1	-1.999455810E0
1.179780094E1	-3.020639718E-1	-7.371399403E-1	-1.521315098E0
1.180620396E1	-2.652604282E-1	-7.748597264E-1	-1.013548255E0
1.181460698E1	-2.593046725E-1	-8.368607163E-1	-5.749599934E-1
1.182301000E1	-1.882936656E-1	-7.979192138E-1	-1.437018216E-1
1.183141302E1	-1.061347127E-1	-7.507312894E-1	3.681881726E-1
1.183981604E1	-9.162709117E-2	-7.046123147E-1	8.730534315E-1
1.184821906E1	-9.162709117E-2	-5.404471159E-1	1.198024154E0
1.185662208E1	-1.409530044E-1	-2.229592502E-1	1.352721214E0
1.186502510E1	-4.582881629E-1	2.683146596E-1	1.297744989E0
1.187342812E1	-1.121362805E0	1.094943762E0	6.206207871E-1
1.188183114E1	-1.285680771E0	2.566932917E0	-7.322531343E-1
1.189023416E1	-4.060607255E-1	3.847879648E0	-1.381431103E0
1.189863718E1	3.017585576E-1	2.933593988E0	-3.257342875E-1
1.190704021E1	3.109212518E-1	-5.036435723E-1	1.286749721E0
1.191544323E1	1.855448484E-1	-3.478469610E0	2.562962294E0
1.192384625E1	-7.788302749E-2	-4.377331257E0	3.214278221E0
1.193224927E1	-1.659977436E-1	-3.138380527E0	3.177016497E0
1.194065229E1	-1.389677525E-1	-1.532768488E0	2.567696571E0
1.194905531E1	-3.077143133E-1	-6.769714952E-1	1.629129648E0
1.195745833E1	-5.202891231E-1	-3.324536085E-1	7.040014863E-1
1.196586135E1	-5.532749295E-1	1.075091213E-1	2.742704153E-1
1.197426437E1	-3.782671690E-1	5.978667736E-1	3.923166394E-1
1.198266739E1	-8.170082420E-2	1.105633497E0	6.882721782E-1
1.199107041E1	1.368297935E-1	1.346918225E0	8.924478292E-1
1.199947344E1	1.420219839E-1	9.596410394E-1	9.602518678E-1
1.200787646E1	-7.253811508E-2	1.575985998E-1	9.943066239E-1
1.201627948E1	-3.138227761E-1	-6.094728708E-1	1.104869962E0
1.202468250E1	-3.179459870E-1	-9.109259844E-1	1.264606595E0
1.203308552E1	-1.620272398E-1	-7.876875401E-1	1.338824511E0
1.204148854E1	-5.619794875E-2	-5.239542127E-1	1.262163162E0
1.204989156E1	-4.535540938E-2	-3.032856584E-1	1.059819937E0
1.205829458E1	-8.139539510E-2	-9.865183383E-2	8.553388715E-1
1.206669760E1	-1.255291104E-1	6.917845458E-2	7.255338430E-1
1.207510062E1	-1.224748790E-1	1.995943487E-1	6.533011198E-1
1.208350364E1	-8.933641016E-2	1.695101112E-1	6.128324866E-1
1.209190666E1	-6.139015034E-2	1.200314835E-1	6.325323582E-1
1.210030969E1	-6.841489673E-2	8.429691941E-2	6.653653979E-1
1.210871271E1	-1.000262350E-1	-2.962609194E-2	6.789567471E-1
1.211711573E1	-1.107160673E-1	-1.408002973E-1	6.765133142E-1
1.212551875E1	-9.422318637E-2	-1.285833418E-1	6.615476012E-1
1.213392177E1	-8.047912270E-2	-5.100574717E-2	6.514685750E-1
1.214232479E1	-8.322793990E-2	-2.779355086E-2	6.546755433E-1
1.215072781E1	-9.025268257E-2	-3.756710514E-2	6.467345357E-1
1.215913083E1	-9.468132257E-2	-8.674030751E-2	6.302416325E-1
1.216753385E1	-8.796200156E-2	-1.356080920E-1	6.163448691E-1
1.217593687E1	-6.994201243E-2	-1.769929975E-1	6.180247068E-1
1.218433989E1	-5.405998230E-2	-1.772984117E-1	6.491779089E-1
1.219274291E1	-3.939964995E-2	-1.496575773E-1	6.998782754E-1
1.220114594E1	-2.504473738E-2	-1.441599578E-1	7.482879162E-1
1.220954896E1	-1.679829881E-2	-1.433963925E-1	7.759287357E-1
1.221795198E1	-1.481304597E-2	-1.488940120E-1	7.849387527E-1
1.222635500E1	4.581354558E-3	-1.469087601E-1	7.699729800E-1
1.223475802E1	3.924693540E-2	-1.117850468E-1	7.472189069E-1
1.224316104E1	5.635065958E-2	-8.842013776E-2	7.540909648E-1
1.225156406E1	6.429167092E-2	-9.009996802E-2	7.824953198E-1
1.225996708E1	7.223268598E-2	-1.148392856E-1	8.047912717E-1
1.226837010E1	8.399149776E-2	-1.537808031E-1	8.170081973E-1
1.227677312E1	9.345962852E-2	-1.696628332E-1	8.341119289E-1
1.228517614E1	1.017060652E-1	-1.617218107E-1	8.619054556E-1
1.229357916E1	1.033858955E-1	-1.385096163E-1	8.767185211E-1
1.230198218E1	1.120904684E-1	-7.818844914E-2	8.727480173E-1
1.231038521E1	1.269035190E-1	-3.970507067E-3	8.622109294E-1
1.231878823E1	1.336228400E-1	6.276455522E-2	8.574768305E-1
1.232719125E1	1.359135211E-1	1.443126649E-1	8.564078808E-1
1.233559427E1	1.449235082E-1	2.176143378E-1	8.585458398E-1
1.234399729E1	1.543916464E-1	2.672456801E-1	8.640434742E-1
1.235240031E1	1.627907902E-1	3.101576865E-1	8.599202037E-1
1.236080333E1	1.685938388E-1	3.333698809E-1	8.489249945E-1
1.236920635E1	1.656923145E-1	3.326063454E-1	8.402203918E-1
1.237760937E1	1.542389393E-1	3.043546379E-1	8.457180262E-1
1.238601239E1	1.516428292E-1	2.974826097E-1	8.612946272E-1
1.239441541E1	1.699682474E-1	3.274141252E-1	8.906152844E-1
1.240281844E1	1.846285909E-1	3.805578351E-1	9.393303990E-1
1.241122146E1	1.986780763E-1	4.227063060E-1	9.881981611E-1
1.241962448E1	2.151709497E-1	4.509579837E-1	1.016449809E0
1.242802750E1	2.157817930E-1	4.347705245E-1	1.036760569E0
1.243643052E1	2.092151791E-1	3.573456407E-1	1.054627776E0
1.244483354E1	2.014268786E-1	2.614426315E-1	1.085780978E0
1.245323656E1	1.927223057E-1	1.747023165E-1	1.148240089E0
1.246163958E1	1.853921413E-1	9.926267713E-2	1.227039456E0
1.247004260E1	1.841704547E-1	4.138490185E-2	1.290262103E0
1.247844562E1	1.895153672E-1	1.832541777E-3	1.329814434E0
1.248684864E1	1.962346882E-1	-3.038965166E-2	1.355164647E0
1.249525166E1	2.098260373E-1	-3.252761811E-2	1.369519591E0
1.250365468E1	2.188360244E-1	-1.588202827E-2	1.386775970E0
1.251205771E1	2.180724740E-1	-1.817270555E-2	1.415943980E0
1.252046073E1	2.281514555E-1	-3.191677108E-2	1.454274654E0
1.252886375E1	2.367033064E-1	-8.368607610E-2	1.506349325E0
1.253726677E1	2.550287247E-1	-1.685938388E-1	1.563463569E0
1.254566979E1	2.689255178E-1	-2.843494117E-1	1.604390383E0
1.255407281E1	2.680092454E-1	-4.938700199E-1	1.613858461E0
1.256247583E1	2.519744933E-1	-7.974610925E-1	1.612484097E0
1.257087885E1	2.255553454E-1	-1.108535051E0	1.671430826E0
1.257928187E1	1.789782494E-1	-1.431825995E0	1.848118424E0
1.258768489E1	1.029277667E-1	-1.661962628E0	2.099787474E0
1.259608791E1	4.230117425E-2	-1.494895935E0	2.299534559E0
1.260449094E1	3.191677108E-2	-9.558232427E-1	2.453468084E0
1.261289396E1	2.275406010E-2	-3.483356535E-1	2.607859612E0
1.262129698E1	5.070032179E-2	2.536543310E-1	2.710329294E0
1.262970000E1	1.278197914E-1	8.157865405E-1	2.697196007E0
1.263810302E1	2.034121305E-1	1.236660242E0	2.566627502E0
1.264650604E1	2.696890533E-1	1.583926916E0	2.305032015E0
1.265490906E1	3.293993771E-1	1.878660798E0	1.998539567E0
1.266331208E1	3.608580232E-1	2.027707577E0	1.771915197E0
1.267171510E1	3.478775024E-1	1.938981891E0	1.634321809E0
1.268011812E1	2.877090573E-1	1.637376070E0	1.571404576E0
1.268852114E1	2.147128135E-1	1.242768764E0	1.560409307E0
1.269692416E1	1.359135211E-1	7.701256871E-1	1.576291323E0
1.270532719E1	9.452861547E-2	3.130592108E-1	1.572473526E0
1.271373021E1	2.397575527E-1	5.115845799E-2	1.543916464E0
1.272213323E1	1.933331639E-1	-3.087832928E-1	1.585301399E0
1.273053625E1	4.443913698E-2	-4.827220440E-1	1.456565261E0
1.273893927E1	3.695625812E-2	-3.037438095E-1	1.035233378E0
1.274734229E1	1.603474021E-1	-1.102579311E-1	5.654918551E-1
1.275574531E1	2.464768738E-1	-5.879404768E-2	1.976090819E-1
1.276414833E1	2.725905776E-1	-3.512371797E-3	-7.360709459E-2
1.277255135E1	2.977880239E-1	7.986827940E-2	-2.579302490E-1
1.278095437E1	2.988570333E-1	1.452289373E-1	-4.027010500E-1
1.278935739E1	2.893888950E-1	2.105895877E-1	-5.870242119E-1
1.279776041E1	2.925958335E-1	2.428117841E-1	-8.365553021E-1
1.280616344E1	3.112266660E-1	2.099787444E-1	-1.140299082E0
1.281456646E1	3.229855001E-1	1.101052165E-1	-1.451220393E0
1.282296948E1	3.184041381E-1	2.779355086E-2	-1.731752038E0
1.283137250E1	2.967190444E-1	-1.527118147E-3	-1.963721275E0
1.283977552E1	2.858765125E-1	2.351761982E-2	-2.145142794E0
1.284817854E1	2.899997234E-1	5.665608495E-2	-2.301825285E0
1.285658156E1	2.991624475E-1	6.429167092E-2	-2.464768648E0
1.286498458E1	3.035911024E-1	4.871506989E-2	-2.639318228E0
1.287338760E1	2.901524603E-1	1.435491070E-2	-2.806385040E0
1.288179062E1	2.661767006E-1	-3.023693897E-2	-2.958791494E0
1.289019364E1	2.370087355E-1	-8.689302206E-2	-3.104325771E0
1.289859666E1	1.995943487E-1	-1.412584335E-1	-3.246195078E0
1.290699968E1	1.690519750E-1	-1.721062213E-1	-3.377221823E0
1.291540271E1	1.508792788E-1	-2.101314515E-1	-3.498475075E0
1.292380573E1	1.452289373E-1	-3.196258247E-1	-3.594988823E0
1.293220875E1	1.317902952E-1	-4.688252807E-1	-3.655768156E0
1.294061177E1	1.087308154E-1	-5.893148780E-1	-3.685088873E0
1.294901479E1	7.116370648E-2	-6.656708121E-1	-3.702345133E0
1.295741781E1	2.428117767E-2	-6.823163629E-1	-3.737774372E0
1.296582083E1	-1.328592747E-2	-6.533011198E-1	-3.791834354E0
1.297422385E1	-4.077405483E-2	-6.065713167E-1	-3.854751587E0
1.298262687E1	-6.658235192E-2	-5.532749295E-1	-3.903924942E0
1.299102989E1	-1.014006436E-1	-5.306735635E-1	-3.919806957E0
1.299943291E1	-1.522536725E-1	-5.335750580E-1	-3.913698435E0
1.300783594E1	-2.043284029E-1	-5.474718809E-1	-3.894151211E0
1.301623896E1	-2.484621257E-1	-5.819846988E-1	-3.843145609E0
1.302464198E1	-2.713688910E-1	-5.737382770E-1	-3.774119854E0
1.303304500E1	-2.802261710E-1	-5.456393361E-1	-3.711355209E0
1.304144802E1	-2.971771955E-1	-5.993938446E-1	-3.658975124E0
1.304985104E1	-3.077143133E-1	-6.737645268E-1	-3.610412836E0
1.305825406E1	-2.744231224E-1	-7.327113152E-1	-3.521229029E0
1.306665708E1	-1.968455315E-1	-7.375980616E-1	-3.374014854E0
1.307506010E1	-7.864658535E-2	-6.346703172E-1	-3.137158871E0
1.308346312E1	-6.047387794E-2	-6.901046634E-1	-2.750339746E0
1.309186614E1	-1.763821393E-1	-7.311841846E-1	-2.341377497E0
1.310026916E1	-3.101576865E-1	-4.986040890E-1	-2.093068123E0
1.310867219E1	-3.283303976E-1	-9.513945878E-2	-1.984795451E0
1.311707521E1	-2.528907657E-1	2.286095917E-1	-1.791309595E0
1.312547823E1	-1.453816444E-1	4.912739098E-1	-1.476265073E0
1.313388125E1	-2.718270384E-2	7.609629631E-1	-1.101204872E0
1.314228427E1	2.886253223E-2	9.278770089E-1	-7.012526393E-1
1.315068729E1	-2.596100792E-3	9.535325766E-1	-3.075616062E-1
1.315909031E1	-4.413371533E-2	9.723161459E-1	-7.482878864E-3
1.316749333E1	-4.260659590E-2	9.831586480E-1	2.015796006E-1
1.317589635E1	-3.542914242E-2	9.232956171E-1	4.515688419E-1
1.318429937E1	-8.399149776E-2	8.980981708E-1	7.209524512E-1
1.319270239E1	-2.796153426E-1	9.436063170E-1	9.136747718E-1
1.320110541E1	-7.481352091E-1	8.125795722E-1	9.859074950E-1
1.320950844E1	-1.246891975E0	5.002838969E-1	9.229902029E-1
1.321791146E1	-1.405864954E0	5.653391480E-1	5.885513425E-1
1.322631448E1	-7.307260633E-1	1.359898686E0	8.796200156E-2
1.323471750E1	3.283303976E-1	1.946006656E0	-4.275930673E-2
1.324312052E1	5.134171247E-1	1.315612316E0	5.314370990E-1
1.325152354E1	9.208522737E-2	-6.566607952E-2	1.480235577E0
1.325992656E1	-3.046600819E-1	-1.162289619E0	2.156290770E0
1.326832958E1	-3.631486893E-1	-1.477181435E0	2.319845200E0
1.327673260E1	-9.636115283E-2	-1.275601745E0	2.097954988E0
1.328513562E1	1.027750522E-1	-9.655967951E-1	1.677692056E0
1.329353864E1	-9.605573118E-2	-5.454866290E-1	1.212837219E0
1.330194166E1	-4.170559645E-1	-1.110214889E-1	8.690829277E-1
1.331034468E1	-6.354338527E-1	1.377460510E-1	7.658497691E-1
1.331874771E1	-6.134433746E-1	3.807105422E-1	8.296833038E-1
1.332715073E1	-5.256340504E-1	6.093201637E-1	8.556442857E-1
1.333555375E1	-4.188885093E-1	6.928535104E-1	7.795938253E-1
1.334395677E1	-3.048127890E-1	4.895940721E-1	7.276718020E-1
1.335235979E1	-2.466295809E-1	8.689302206E-2	8.327375054E-1
1.336076281E1	-2.174616307E-1	-2.757975459E-1	1.047144890E0
1.336916583E1	-1.954711229E-1	-5.485408306E-1	1.266744494E0
1.337756885E1	-1.630962193E-1	-7.759287357E-1	1.415791273E0
1.338597187E1	-1.001789495E-1	-8.458707333E-1	1.425106645E0
1.339437489E1	-3.726168349E-2	-7.559235096E-1	1.299272060E0
1.340277791E1	-4.734066315E-3	-5.870242119E-1	1.164580345E0
1.341118094E1	-1.603474095E-2	-3.709369898E-1	1.087002754E0
1.341958396E1	-2.657185495E-2	-1.430909634E-1	1.028514028E0
1.342798698E1	-3.649812192E-2	5.192201585E-2	9.416210651E-1
1.343639000E1	-3.191677108E-2	1.430909634E-1	8.293778896E-1
1.344479302E1	-2.779355086E-2	1.785201132E-1	7.473716140E-1
1.345319604E1	-3.115320951E-2	1.788255423E-1	7.182036638E-1
1.346159906E1	-2.825168520E-2	1.281252056E-1	7.169819474E-1
1.347000208E1	-2.825168520E-2	2.305948362E-2	7.128587365E-1
1.347840510E1	-3.787253052E-2	-5.879404768E-2	7.139277458E-1
1.348680812E1	-5.451811850E-2	-9.636115283E-2	7.316423059E-1
1.349521114E1	-6.413896382E-2	-9.345962852E-2	7.307260633E-1
1.350361416E1	-6.688777357E-2	-9.819369763E-2	6.936170459E-1
1.351201719E1	-6.291726977E-2	-1.014006436E-1	6.464291215E-1
1.352042021E1	-6.032116711E-2	-5.711421743E-2	6.003101468E-1
1.352882323E1	-5.115845799E-2	-7.635590620E-3	5.659499764E-1
1.353722625E1	-4.642439261E-2	8.704573847E-3	5.405998230E-1
1.354562927E1	-4.779879749E-2	-4.428642802E-3	5.210527182E-1
1.355403229E1	-3.970507160E-2	-1.572931744E-2	5.140279531E-1
1.356243531E1	-2.855710872E-2	-1.908897609E-2	5.311316848E-1
1.357083833E1	-1.649287529E-2	-2.183778957E-2	5.596888065E-1
1.357924135E1	-2.290677279E-3	-4.688252881E-2	5.770979524E-1
1.358764437E1	9.620844387E-3	-7.040014863E-2	5.885513425E-1
1.359604739E1	1.954711229E-2	-6.352811307E-2	5.971031785E-1
1.360445041E1	3.038965166E-2	-1.267508045E-2	6.036698222E-1
1.361285344E1	4.214845970E-2	3.451287001E-2	6.093201637E-1
1.362125646E1	4.840964451E-2	5.299099907E-2	6.114581227E-1
1.362965948E1	5.833591148E-2	6.077930331E-2	6.139014959E-1
1.363806250E1	6.581879407E-2	4.627167806E-2	6.224533319E-1
1.364646552E1	6.994201243E-2	1.328592747E-2	6.458182931E-1
1.365486854E1	7.192726433E-2	-2.137965336E-2	6.748335361E-1
1.366327156E1	7.299624383E-2	-5.909947306E-2	7.052231431E-1
1.367167458E1	7.223268598E-2	-8.674030751E-2	7.276718020E-1
1.368007760E1	7.238540053E-2	-9.834641218E-2	7.360709310E-1
1.368848062E1	8.154810965E-2	-8.704573661E-2	7.404996157E-1
1.369688364E1	9.300149232E-2	-8.047912270E-2	7.479824424E-1
1.370528666E1	9.926267713E-2	-8.628217876E-2	7.601994276E-1
1.371368968E1	1.116323397E-1	-9.254335612E-2	7.742488980E-1
1.372209271E1	1.204896197E-1	-1.104106456E-1	7.844805717E-1
1.373049573E1	1.229330078E-1	-1.354553849E-1	7.933378816E-1
1.373889875E1	1.250709742E-1	-1.466033459E-1	7.899782062E-1
1.374730177E1	1.282779276E-1	-1.291942000E-1	7.759287357E-1
1.375570479E1	1.366770715E-1	-8.918370306E-2	7.650861740E-1
1.376410781E1	1.354553849E-1	-7.559234649E-2	7.695148587E-1
1.377251083E1	1.330119967E-1	-9.758284688E-2	7.788302302E-1
1.378091385E1	1.365243644E-1	-1.200314835E-1	7.925743461E-1
1.378931687E1	1.378987730E-1	-1.398840249E-1	8.215895891E-1
1.379771989E1	1.452289373E-1	-1.469087601E-1	8.550334573E-1
1.380612291E1	1.464506239E-1	-1.592784226E-1	8.820634484E-1
1.381452594E1	1.485885978E-1	-1.887518018E-1	9.029849768E-1
1.382292896E1	1.572931707E-1	-1.998997629E-1	9.165763259E-1
1.383133198E1	1.687465608E-1	-1.963873953E-1	9.342908859E-1
1.383973500E1	1.803526580E-1	-2.319692522E-1	9.732323885E-1
1.384813802E1	1.895153672E-1	-2.574721277E-1	1.016297102E0
1.385654104E1	2.032594234E-1	-2.554868758E-1	1.065623045E0
1.386494406E1	2.174616307E-1	-2.461714447E-1	1.118614078E0
1.387334708E1	2.333436459E-1	-2.377723008E-1	1.164885759E0
1.388175010E1	2.489202619E-1	-2.347180545E-1	1.200925708E0
1.389015312E1	2.686200738E-1	-2.388412803E-1	1.243379593E0
1.389855614E1	2.951919436E-1	-2.374668717E-1	1.287971497E0
1.390695916E1	3.323009014E-1	-2.110477239E-1	1.344169378E0
1.391536219E1	3.736858070E-1	-1.504211426E-1	1.415791273E0
1.392376521E1	3.897205591E-1	-1.316375881E-1	1.462979198E0
1.393216823E1	3.851391971E-1	-1.269035190E-1	1.460993886E0
1.394057125E1	3.778090179E-1	-9.651386738E-2	1.468782187E0
1.394897427E1	3.616215885E-1	-5.497625470E-2	1.558729529E0
1.395737729E1	3.507790267E-1	8.276980370E-2	1.672041655E0
1.396578031E1	3.495573401E-1	2.819060087E-1	1.755727768E0
1.397418333E1	3.208475113E-1	4.285093546E-1	1.834221601E0
1.398258635E1	2.597627938E-1	4.766135812E-1	1.936080337E0
1.399098937E1	2.052446753E-1	5.667135715E-1	2.010298252E0
1.399939239E1	1.568350345E-1	7.696675658E-1	2.029845476E0
1.400779541E1	1.133121699E-1	9.729269743E-1	2.053515673E0
1.401619844E1	6.093201414E-2	1.052489877E0	2.132925987E0
1.402460146E1	1.435491070E-2	1.033400893E0	2.196148634E0
1.403300448E1	1.343864016E-2	1.016602516E0	2.125748396E0
1.404140750E1	2.367033064E-2	9.993461370E-1	1.924168825E0
1.404981052E1	2.825168520E-2	8.834378719E-1	1.712052107E0
1.405821354E1	2.031067200E-2	7.180509567E-1	1.527270913E0
1.406661656E1	-6.872031838E-3	5.311316848E-1	1.349667072E0
1.407501958E1	5.955760833E-3	3.112266660E-1	1.126402378E0
1.408342260E1	4.963133857E-2	1.226275861E-1	8.900044560E-1
1.409182562E1	5.711421743E-2	-3.206948051E-3	7.214106321E-1
1.410022864E1	6.566607859E-3	-9.269607067E-2	6.682668924E-1
1.410863166E1	2.183778957E-2	-1.963873953E-1	6.432221532E-1
1.411703468E1	3.985778242E-2	-2.301367074E-1	4.966188073E-1
1.412543771E1	2.092151903E-2	-2.040229887E-1	1.843231618E-1
1.413384073E1	4.092676565E-2	-2.176143378E-1	-2.026485801E-1
1.414224375E1	9.834641218E-2	-2.899997234E-1	-5.418215394E-1
1.415064677E1	1.385096163E-1	-3.324536085E-1	-7.985301018E-1
1.415904979E1	1.189625040E-1	-2.709107697E-1	-9.886562824E-1
1.416745281E1	7.360709459E-2	-1.383569092E-1	-1.159998894E0
1.417585583E1	6.169557199E-2	-1.466033421E-2	-1.354248405E0
1.418425885E1	8.658760041E-2	6.032116711E-2	-1.579803705E0
1.419266187E1	1.149920002E-1	5.879404768E-2	-1.813910961E0
1.420106489E1	1.305686086E-1	-7.941014133E-3	-2.029845476E0
1.420946791E1	1.437018216E-1	-6.108472496E-2	-2.217680931E0
1.421787094E1	1.617218107E-1	-6.276455522E-2	-2.358481169E0
1.422627396E1	1.589729935E-1	-6.597150117E-2	-2.438654900E0
1.423467698E1	1.430909634E-1	-6.627693027E-2	-2.492562294E0
1.424308000E1	1.337755471E-1	-7.375980914E-2	-2.557006598E0
1.425148302E1	1.305686086E-1	-9.040539712E-2	-2.659628868E0
1.425988604E1	1.226275861E-1	-1.177408099E-1	-2.781492949E0
1.426828906E1	1.061347127E-1	-1.308740228E-1	-2.904884100E0
1.427669208E1	9.300149232E-2	-1.317902952E-1	-3.015600204E0
1.428509510E1	8.414421231E-2	-1.377460510E-1	-3.091497898E0
1.429349812E1	7.375980914E-2	-1.546970755E-1	-3.144641638E0
1.430190114E1	6.963659078E-2	-1.881409585E-1	-3.178085566E0
1.431030416E1	7.574506104E-2	-2.394521236E-1	-3.189386368E0
1.431870719E1	8.597674966E-2	-3.009949923E-1	-3.187248230E0
1.432711021E1	8.383878320E-2	-4.010212123E-1	-3.178543806E0
1.433551323E1	6.368082762E-2	-5.137225389E-1	-3.171060801E0
1.434391625E1	3.695625812E-2	-5.749599934E-1	-3.174726009E0
1.435231927E1	1.557660475E-2	-5.919110179E-1	-3.182361603E0
1.436072229E1	5.955760833E-3	-5.645755529E-1	-3.191218853E0
1.436912531E1	-1.679830020E-3	-5.132644176E-1	-3.193967581E0
1.437752833E1	-2.870982140E-2	-4.947862923E-1	-3.190149784E0
1.438593135E1	-5.864133686E-2	-5.111264586E-1	-3.181139708E0
1.439433437E1	-7.895200700E-2	-5.511369109E-1	-3.146626949E0
1.440273739E1	-7.864658535E-2	-5.418215394E-1	-3.082488060E0
1.441114041E1	-9.605573118E-2	-6.175665855E-1	-2.993915081E0
1.441954344E1	-1.378987730E-1	-7.360709310E-1	-2.932219505E0
1.442794646E1	-1.557660550E-1	-7.595885396E-1	-2.897401333E0
1.443634948E1	-1.508792788E-1	-7.450809479E-1	-2.786379814E0
1.444475250E1	-1.768402755E-1	-8.444963098E-1	-2.561740637E0
1.445315552E1	-2.089097649E-1	-8.623636365E-1	-2.312973261E0
1.446155854E1	-2.278460264E-1	-7.478297353E-1	-2.128344536E0
1.446996156E1	-2.275405973E-1	-6.242858768E-1	-2.002204657E0
1.447836458E1	-2.186833173E-1	-5.042544007E-1	-1.848576546E0
1.448676760E1	-1.872246861E-1	-2.874036431E-1	-1.609277129E0
1.449517062E1	-1.484358907E-1	-7.605048269E-2	-1.270409584E0
1.450357364E1	-1.333174109E-1	1.334701329E-1	-9.532271624E-1
1.451197666E1	-1.116323397E-1	3.439069986E-1	-7.269082665E-1
1.452037969E1	-8.261708915E-2	4.555393457E-1	-5.354076028E-1
1.452878271E1	-5.955760926E-2	4.292729199E-1	-2.922904193E-1
1.453718573E1	-6.368082762E-2	4.280512035E-1	-2.458660305E-2
1.454558875E1	-9.605573118E-2	5.071559548E-1	2.356343269E-1
1.455399177E1	-1.377460510E-1	5.363239050E-1	5.268557668E-1
1.456239479E1	-1.488940120E-1	3.156553209E-1	9.881981611E-1
1.457079781E1	-2.411319613E-1	1.152974218E-1	1.551704764E0
1.457920083E1	-5.360184908E-1	5.111264586E-1	1.896222591E0
1.458760385E1	-7.233958840E-1	1.558271408E0	1.720756769E0
1.459600687E1	-5.407525301E-1	2.732472420E0	1.135565042E0
1.460440989E1	-8.322793990E-2	3.550091505E0	3.555130959E-1
1.461281291E1	2.976353168E-1	3.284678459E0	-1.398840249E-1
1.462121594E1	3.410054743E-1	1.789782524E0	1.447708011E-1
1.462961896E1	1.325538605E-1	8.994726092E-2	9.710944295E-1
1.463802198E1	-3.924693540E-2	-9.730796814E-1	1.848118424E0
1.464642500E1	-1.682884246E-1	-1.163053155E0	2.330687761E0
1.465482802E1	-3.506263196E-1	-8.744278550E-1	2.252499342E0
1.466323104E1	-5.123481154E-1	-6.879667044E-1	1.729155898E0
1.467163406E1	-6.018372774E-1	-7.782194018E-1	1.053253412E0
1.468003708E1	-4.569137394E-1	-7.252284288E-1	6.433748603E-1
1.468844010E1	-2.681619525E-1	-2.441861928E-1	6.271874309E-1
1.469684312E1	-2.104368806E-1	4.619532526E-1	7.467607856E-1
1.470524614E1	-1.992889196E-1	8.238802552E-1	7.615737915E-1
1.471364916E1	-1.488940120E-1	6.085565686E-1	7.330167294E-1
1.472205218E1	-1.276670843E-1	1.353026628E-1	7.576032877E-1
1.473045521E1	-1.820324808E-1	-2.415900975E-1	8.871029615E-1
1.473885823E1	-2.215848416E-1	-4.159869850E-1	1.095707297E0
1.474726125E1	-1.858502775E-1	-4.373666346E-1	1.252694964E0
1.475566427E1	-1.362189353E-1	-3.347443044E-1	1.285833478E0
1.476406729E1	-1.142284349E-1	-2.670929730E-1	1.231315374E0
1.477247031E1	-1.175880954E-1	-2.593046725E-1	1.113421798E0
1.478087333E1	-1.212531775E-1	-1.992889196E-1	9.524635673E-1
1.478927635E1	-1.154501289E-1	-9.834641218E-2	7.904363275E-1
1.479767937E1	-9.575030953E-2	1.024696305E-1	7.189671993E-1
1.480608239E1	-7.620319724E-2	2.777827978E-1	6.998782754E-1
1.481448541E1	-6.994201243E-2	2.816005945E-1	6.850652099E-1
1.482288844E1	-7.834116369E-2	1.608055383E-1	7.154548764E-1
1.483129146E1	-7.330167294E-2	5.986303091E-2	7.678350210E-1
1.483969448E1	-6.612421572E-2	-4.123219103E-2	8.038749695E-1
1.484809750E1	-6.856760383E-2	-1.380514801E-1	8.003626466E-1
1.485650052E1	-7.543963939E-2	-1.776038408E-1	7.711946368E-1
1.486490354E1	-6.581879407E-2	-1.514901221E-1	7.131641507E-1
1.487330656E1	-5.589252338E-2	-1.105633527E-1	6.306998134E-1
1.488170958E1	-4.596625641E-2	-8.582404256E-2	5.682406425E-1
1.489011260E1	-3.771981969E-2	-6.383354217E-2	5.531222224E-1
1.489851562E1	-3.603998944E-2	-5.864133686E-2	5.651864409E-1
1.490691864E1	-3.970507160E-2	-9.315420687E-2	5.867187977E-1
1.491532166E1	-3.603998944E-2	-1.458397806E-1	5.974085927E-1
1.492372469E1	-2.901524492E-2	-1.759240031E-1	5.992411375E-1
1.493212771E1	-1.298050396E-2	-1.893626451E-1	6.033644080E-1
1.494053073E1	2.596100792E-3	-1.887518018E-1	6.056550741E-1
1.494893375E1	1.435491070E-2	-1.948602796E-1	5.986303091E-1
1.495733677E1	2.214321308E-2	-2.047865391E-1	5.961869359E-1
1.496573979E1	3.176405653E-2	-2.046338320E-1	5.983248949E-1
1.497414281E1	4.016320780E-2	-2.107423097E-1	5.908420086E-1
1.498254583E1	4.734066129E-2	-2.289150059E-1	5.806103349E-1
1.499094885E1	4.886778072E-2	-2.429644912E-1	5.749599934E-1
1.499935187E1	5.467082933E-2	-2.437280566E-1	5.810684562E-1
1.500775489E1	6.261184067E-2	-2.310529798E-1	5.964923501E-1
1.501615791E1	6.933116168E-2	-2.318165302E-1	6.151232123E-1
1.502456094E1	7.788302749E-2	-2.431172132E-1	6.348230243E-1
1.503296396E1	8.078455180E-2	-2.440334857E-1	6.537593007E-1
1.504136698E1	8.887827396E-2	-2.438807636E-1	6.626165509E-1
1.504977000E1	9.361234307E-2	-2.211267054E-1	6.676560640E-1
1.505817302E1	9.071081877E-2	-2.061609477E-1	6.836907864E-1
1.506657604E1	9.330692142E-2	-2.313583940E-1	7.204943299E-1
1.507497906E1	1.165191159E-1	-2.182251811E-1	7.441646457E-1
1.508338208E1	1.340809762E-1	-2.037175596E-1	7.901309133E-1
1.509178510E1	1.508792788E-1	-2.357870489E-1	8.565605879E-1
1.510018812E1	1.627907902E-1	-2.603736520E-1	9.181034565E-1
1.510859114E1	1.748550236E-1	-2.757975459E-1	9.799517393E-1
1.511699416E1	1.852394342E-1	-2.820587158E-1	1.043327093E0
1.512539718E1	2.005106062E-1	-2.670929730E-1	1.096165419E0
1.513380021E1	2.226538211E-1	-2.284568697E-1	1.144269586E0
1.514220323E1	2.438807636E-1	-1.798945218E-1	1.204438090E0
1.515060625E1	2.693836391E-1	-1.443126649E-1	1.275907159E0
1.515900927E1	2.983988822E-1	-1.030804738E-1	1.336686492E0
1.516741229E1	3.260397315E-1	-6.902574003E-2	1.404185176E0
1.517581531E1	3.465031087E-1	-5.253286287E-2	1.477334142E0
1.518421833E1	3.720059693E-1	-2.916795574E-2	1.532004952E0
1.519262135E1	3.972034156E-1	-1.374406368E-2	1.566670537E0
1.520102437E1	4.187358022E-1	-3.665083554E-3	1.607749939E0
1.520942739E1	4.311054647E-1	3.970507067E-3	1.641499281E0
1.521783041E1	4.396573007E-1	-3.848337755E-2	1.667765737E0
1.522623344E1	4.637857676E-1	-9.330692142E-2	1.717244387E0
1.523463646E1	4.987567961E-1	-1.113269106E-1	1.803831935E0
1.524303948E1	5.170822144E-1	-1.123958975E-1	1.902178407E0
1.525144250E1	5.149442554E-1	-1.887518018E-1	1.973342061E0
1.525984552E1	4.582881629E-1	-3.771981895E-1	2.010298252E0
1.526824854E1	3.657447994E-1	-6.171084642E-1	2.045727491E0
1.527665156E1	2.677038014E-1	-7.685985565E-1	2.117196560E0
1.528505458E1	1.762294322E-1	-7.036960125E-1	2.222109556E0
1.529345760E1	1.226275861E-1	-3.544441164E-1	2.303046942E0
1.530186062E1	9.681928903E-2	1.459924877E-1	2.383220673E0
1.531026364E1	6.245913357E-2	4.659237564E-1	2.572736025E0
1.531866666E1	-7.177455351E-3	7.165238261E-1	2.737970114E0
1.532706969E1	-1.832541823E-2	1.049588323E0	2.660545349E0
1.533547271E1	5.573981255E-2	1.364785433E0	2.309460878E0
1.534387573E1	1.073564067E-1	1.520856977E0	1.936691284E0
1.535227875E1	1.067455560E-1	1.507265568E0	1.711441278E0
1.536068177E1	6.719319522E-2	1.331952453E0	1.623784781E0
1.536908479E1	2.046338283E-2	1.042563558E0	1.586370349E0
1.537748781E1	-2.641914412E-2	5.893148780E-1	1.575833201E0
1.538589083E1	-8.414421231E-2	3.237490356E-2	1.586828470E0
1.539429385E1	-6.536065787E-2	-3.820849657E-1	1.562241912E0
1.540269687E1	8.780929446E-2	-5.635066032E-1	1.580414534E0
1.541109989E1	-2.107422985E-2	-5.265503526E-1	1.524216652E0
1.541950291E1	-8.918370306E-2	-1.403421611E-1	1.161984205E0
1.542790594E1	4.993676394E-2	1.907370538E-1	5.786250830E-1
1.543630896E1	2.162399292E-1	1.915006191E-1	4.886778072E-2
1.544471198E1	2.794626355E-1	2.212794125E-1	-3.483356535E-1
1.545311500E1	2.440334857E-1	4.100312293E-1	-6.009209752E-1
1.546151802E1	1.876828223E-1	5.228852630E-1	-6.873558760E-1
1.546992104E1	1.478250325E-1	5.326588154E-1	-7.293516397E-1
1.547832406E1	1.313321590E-1	5.786250830E-1	-8.353336453E-1
1.548672708E1	1.337755471E-1	6.282563806E-1	-1.039509296E0
1.549513010E1	1.772984117E-1	5.963396430E-1	-1.311489105E0
1.550353312E1	2.108950168E-1	5.022691488E-1	-1.614163876E0
1.551193614E1	2.095206082E-1	4.288147688E-1	-1.914700747E0
1.552033916E1	2.095206082E-1	4.729484916E-1	-2.181335449E0
1.552874218E1	2.214321345E-1	5.506787896E-1	-2.389634371E0
1.553714521E1	2.470877171E-1	6.103891134E-1	-2.546774864E0
1.554554823E1	2.805316150E-1	6.765133142E-1	-2.686048031E0
1.555395125E1	3.112266660E-1	7.172874212E-1	-2.840745211E0
1.556235427E1	3.269560039E-1	6.555918455E-1	-2.999259949E0
1.557075729E1	3.271087110E-1	4.886777997E-1	-3.156400442E0
1.557916031E1	3.422271907E-1	2.916795611E-1	-3.291703224E0
1.558756333E1	3.631486893E-1	9.605573118E-2	-3.381192207E0
1.559596635E1	3.605526090E-1	-1.157555580E-1	-3.429143906E0
1.560436937E1	3.249707520E-1	-3.649812341E-1	-3.478469610E0
1.561277239E1	2.835858464E-1	-5.764871240E-1	-3.570554972E0
1.562117541E1	2.533488870E-1	-6.794148684E-1	-3.676384211E0
1.562957844E1	2.400629669E-1	-6.897992492E-1	-3.766636848E0
1.563798146E1	2.144073844E-1	-7.550072074E-1	-3.871091843E0
1.564638448E1	1.762294322E-1	-7.467607856E-1	-3.933092833E0
1.565478750E1	1.476723254E-1	-7.078192830E-1	-3.980280638E0
1.566319052E1	1.116323397E-1	-7.120952010E-1	-4.030981064E0
1.567159354E1	5.619794875E-2	-7.235485911E-1	-4.047321320E0
1.567999656E1	-8.551862091E-3	-7.146912813E-1	-4.035562515E0
1.568839958E1	-5.803048983E-2	-6.946860552E-1	-4.016320705E0
1.569680260E1	-8.857285231E-2	-6.809419990E-1	-3.986999989E0
1.570520562E1	-1.137702987E-1	-6.552863717E-1	-3.942866325E0
1.571360864E1	-8.063183725E-2	-5.781669021E-1	-3.895678282E0
1.572201166E1	-8.246438205E-2	-6.432221532E-1	-3.775952339E0
1.573041469E1	-1.110214889E-1	-6.994200945E-1	-3.632250547E0
1.573881771E1	-1.165191159E-1	-7.140804529E-1	-3.492977381E0
1.574722073E1	-9.116895497E-2	-7.055285573E-1	-3.305752754E0
1.575562375E1	-4.596625641E-2	-5.832064152E-1	-3.120513201E0
1.576402677E1	-4.428642802E-3	-4.222481549E-1	-2.925958395E0
1.577242979E1	-3.665083554E-3	-3.255815804E-1	-2.702082872E0
1.578083281E1	-5.299099907E-2	-2.225011140E-1	-2.490882397E0
1.578923583E1	-7.727217674E-2	-1.154501289E-1	-2.284874201E0
1.579763885E1	-7.941014320E-2	-6.704048812E-2	-2.040993452E0
1.580604187E1	-1.070509851E-1	7.635590620E-3	-1.771304369E0
1.581444489E1	-1.458397806E-1	1.661504507E-1	-1.467560530E0
1.582284791E1	-1.945548505E-1	2.318165302E-1	-1.103495598E0
1.583125094E1	-2.102841735E-1	2.426590770E-1	-7.849387527E-1
1.583965396E1	-1.499630064E-1	1.881409585E-1	-5.305208564E-1
1.584805698E1	-6.276455522E-2	1.740914769E-2	-2.171562016E-1
1.585646000E1	-2.428117767E-2	-1.007898003E-1	1.476723254E-1
1.586486302E1	-1.801999472E-2	-4.321744293E-2	4.637857676E-1
1.587326604E1	-5.100574717E-2	4.749337584E-2	6.940752268E-1
1.588166906E1	-1.185043678E-1	1.462979168E-1	8.541171551E-1
1.589007208E1	-1.902789176E-1	2.452551723E-1	9.851438999E-1
1.589847510E1	-4.149180055E-1	2.675510943E-1	1.093111157E0
1.590687812E1	-9.923213720E-1	1.531699449E-1	1.030346632E0
1.591528114E1	-1.820172071E0	1.931804419E-1	4.643966258E-1
1.592368416E1	-1.756644011E0	1.042410851E0	-4.781406820E-1
1.593208718E1	-3.620797098E-1	2.228370905E0	-1.004691005E0
1.594049021E1	6.044333577E-1	1.870261550E0	-2.596100867E-1
1.594889323E1	2.069245130E-1	1.858502775E-1	1.217418551E0
1.595729625E1	-3.067980409E-1	-1.536891699E0	2.505237341E0
1.596569927E1	-2.988570333E-1	-2.776300907E0	3.268643618E0
1.597410229E1	9.804098308E-2	-2.941382170E0	3.297353506E0
1.598250531E1	3.260397315E-1	-2.045422077E0	2.763014793E0
1.599090833E1	1.026223376E-1	-8.878664970E-1	2.054584742E0
1.599931135E1	-3.051182032E-1	-1.704263836E-1	1.479777455E0
1.600771437E1	-4.297310412E-1	2.475458533E-1	1.144880533E0
1.601611739E1	-2.487675399E-1	5.871769190E-1	1.046381354E0
1.602452041E1	-2.122694254E-2	7.777612805E-1	1.081963181E0
1.603292344E1	4.840964451E-2	8.052493930E-1	1.120599270E0
1.604132646E1	5.497625098E-3	5.563291311E-1	1.201689243E0
1.604972948E1	-6.872031838E-2	7.879929990E-2	1.329050899E0
1.605813250E1	-1.068982705E-1	-2.948864996E-1	1.382500052E0
1.606653552E1	-8.567132801E-2	-3.655920923E-1	1.326607585E0
1.607493854E1	-6.444438547E-2	-2.903051674E-1	1.235285878E0
1.608334156E1	-6.169557199E-2	-2.064663768E-1	1.134648800E0
1.609174458E1	-6.306997687E-2	-9.804098308E-2	1.037524104E0
1.610014760E1	-6.780404598E-2	-1.404948719E-2	9.323056340E-1
1.610855062E1	-6.200099736E-2	5.436540768E-2	8.617527485E-1
1.611695364E1	-6.719319522E-2	1.409530044E-1	8.380824327E-1
1.612535666E1	-8.918370306E-2	1.713426560E-1	7.707365155E-1
1.613375968E1	-1.056765765E-1	1.082726792E-1	6.687250137E-1
1.614216271E1	-1.033858955E-1	5.635065958E-2	5.847335458E-1
1.615056573E1	-1.029277667E-1	5.421269313E-2	5.381564498E-1
1.615896875E1	-1.039967462E-1	1.863084175E-2	5.280774832E-1
1.616737177E1	-1.043021679E-1	-6.459710002E-2	5.314370990E-1
1.617577479E1	-1.036913246E-1	-1.424801201E-1	5.430431962E-1
1.618417781E1	-1.023169160E-1	-2.026485801E-1	5.389199853E-1
1.619258083E1	-9.620844573E-2	-2.269297540E-1	5.141806602E-1
1.620098385E1	-8.582404256E-2	-2.209739983E-1	4.847072959E-1
1.620938687E1	-7.437065244E-2	-1.753131598E-1	4.650074840E-1
1.621778989E1	-6.810946763E-2	-1.056765765E-1	4.520269632E-1
1.622619291E1	-5.894676223E-2	-8.521319181E-2	4.428642690E-1
1.623459594E1	-5.650337040E-2	-1.014006436E-1	4.410317242E-1
1.624299896E1	-4.703523964E-2	-1.142284349E-1	4.350759685E-1
1.625140198E1	-3.237490356E-2	-1.426328421E-1	4.112529159E-1
1.625980500E1	-1.710372418E-2	-1.843231618E-1	3.805578351E-1
1.626820802E1	-6.719320081E-3	-2.145601064E-1	4.056025743E-1
1.627661104E1	5.039489828E-3	-2.119639963E-1	4.708105326E-1
1.628501406E1	1.496575773E-2	-2.064663768E-1	5.187620521E-1
1.629341708E1	2.199050039E-2	-2.199050188E-1	5.468609929E-1
1.630182010E1	3.237490356E-2	-2.127275616E-1	5.578562617E-1
1.631022312E1	4.718795046E-2	-1.882936656E-1	5.567872524E-1
1.631862614E1	6.719319522E-2	-1.572931707E-1	5.493044257E-1
1.632702916E1	8.032641560E-2	-1.351499557E-1	5.602996349E-1
1.633543219E1	8.735115826E-2	-1.316375881E-1	5.902311802E-1
1.634383521E1	9.452861547E-2	-1.430909634E-1	6.258130074E-1
1.635223823E1	1.014006436E-1	-1.530172378E-1	6.542174220E-1
1.636064125E1	1.096470803E-1	-1.560714692E-1	6.731536984E-1
1.636904427E1	1.116323397E-1	-1.637070626E-1	6.839962006E-1
1.637744729E1	1.134648770E-1	-1.882936656E-1	6.862868667E-1
1.638585031E1	1.142284349E-1	-1.922641695E-1	6.919372082E-1
1.639425333E1	1.127013192E-1	-1.922641695E-1	7.148439884E-1
1.640265635E1	1.020114943E-1	-1.953184158E-1	7.398887277E-1
1.641105937E1	8.536590636E-2	-2.429644912E-1	7.620319724E-1
1.641946239E1	9.788827598E-2	-2.463241518E-1	7.383615971E-1
1.642786541E1	1.006370857E-1	-2.362451702E-1	7.475243211E-1
1.643626844E1	1.053711548E-1	-2.425063550E-1	8.018897176E-1
1.644467146E1	1.134648770E-1	-2.179197669E-1	8.460234404E-1
1.645307448E1	1.226275861E-1	-2.220429778E-1	8.871029615E-1
1.646147750E1	1.397313178E-1	-2.339545041E-1	9.295567870E-1
1.646988052E1	1.579040140E-1	-2.327328026E-1	9.793408513E-1
1.647828354E1	1.736333370E-1	-2.418955117E-1	1.035691500E0
1.648668656E1	1.911951900E-1	-2.509055138E-1	1.099677801E0
1.649508958E1	2.028012872E-1	-2.411319613E-1	1.171604991E0
1.650349260E1	2.202104330E-1	-2.250972092E-1	1.248571754E0
1.651189562E1	2.425063550E-1	-2.070772201E-1	1.328898191E0
1.652029864E1	2.673983872E-1	-1.814216375E-1	1.411820769E0
1.652870166E1	3.031329513E-1	-1.244601309E-1	1.486954927E0
1.653710469E1	3.452814221E-1	-5.650337040E-2	1.552162886E0
1.654550771E1	3.941491842E-1	-2.748812549E-3	1.595074892E0
1.655391073E1	4.308000207E-1	9.040539712E-2	1.597671032E0
1.656231375E1	4.494308829E-1	1.817270666E-1	1.645927906E0
1.657071677E1	4.766135812E-1	2.179197669E-1	1.777870893E0
1.657911979E1	5.143333673E-1	3.150444627E-1	1.897138834E0
1.658752281E1	5.483881235E-1	4.242334068E-1	1.979297876E0
1.659592583E1	5.380037427E-1	4.677563012E-1	2.009076595E0
1.660432885E1	4.969242513E-1	3.997995257E-1	1.990293026E0
1.661273187E1	4.413371384E-1	2.596100867E-1	1.990293026E0
1.662113489E1	3.894151151E-1	5.680879578E-2	2.057944298E0
1.662953791E1	3.526115716E-1	-8.674030751E-2	2.163926363E0
1.663794094E1	3.057290614E-1	-1.470614821E-1	2.275253296E0
1.664634396E1	2.548760176E-1	-9.620844573E-2	2.362451792E0
1.665474698E1	2.166980654E-1	1.985253533E-3	2.432699203E0
1.666315000E1	1.606528312E-1	1.574458778E-1	2.538681269E0
1.667155302E1	1.388150454E-1	3.975088596E-1	2.719491959E0
1.667995604E1	1.528645307E-1	6.930062175E-1	2.891292810E0
1.668835906E1	1.992889196E-1	9.779664874E-1	2.879839420E0
1.669676208E1	2.929012477E-1	1.148698330E0	2.627712250E0
1.670516510E1	3.726168275E-1	1.181073189E0	2.304726601E0
1.671356812E1	4.045335948E-1	1.169925213E0	2.028623819E0
1.672197114E1	3.810159862E-1	1.156333804E0	1.826891422E0
1.673037416E1	3.272614181E-1	1.033248186E0	1.685022116E0
1.673877718E1	2.666348219E-1	7.650861740E-1	1.568808436E0
1.674718021E1	2.182251811E-1	3.892624080E-1	1.447097182E0
1.675558323E1	2.130329758E-1	-3.054236295E-3	1.298050404E0
1.676398625E1	2.828222811E-1	-2.365505993E-1	1.119988441E0
1.677238927E1	2.609844804E-1	-3.915531039E-1	1.049130201E0
1.678079229E1	1.252236869E-2	-6.923953891E-1	1.015991688E0
1.678919531E1	-6.551336497E-2	-7.603521347E-1	7.255338430E-1
1.679759833E1	4.963133857E-2	-5.986303091E-1	2.959555089E-1
1.680600135E1	1.852394342E-1	-4.895940721E-1	-6.184828654E-2
1.681440437E1	2.057028115E-1	-3.962871730E-1	-2.751866877E-1
1.682280739E1	1.934858710E-1	-1.690519750E-1	-4.248442650E-1
1.683121041E1	1.948602796E-1	1.215586066E-1	-5.764871240E-1
1.683961344E1	2.098260373E-1	3.724641204E-1	-7.661551833E-1
1.684801646E1	2.084516287E-1	5.683933496E-1	-1.025612593E0
