"Time (s)"	"Acceleration x (m/s^2)"	"Acceleration y (m/s^2)"	"Acceleration z (m/s^2)"
2.839973400E-2	-2.462812662E0	9.489336014E0	-3.720839322E-1
3.680275500E-2	-2.443071842E0	9.497711182E0	-3.834498227E-1
4.520577600E-2	-2.432304144E0	9.440881729E0	-4.725824594E-1
5.360879700E-2	-2.410170555E0	9.413364410E0	-5.898307562E-1
6.201181700E-2	-2.403590441E0	9.468399048E0	-5.407779217E-1
7.041483800E-2	-2.352144718E0	9.513264656E0	-5.054838061E-1
7.881785900E-2	-2.344966173E0	9.507881165E0	-4.815555513E-1
8.722088000E-2	-2.400001049E0	9.480961800E0	-4.546363056E-1
9.562390100E-2	-2.486740828E0	9.420542717E0	-4.199403822E-1
1.040269220E-1	-2.556730986E0	9.418149948E0	-4.354937077E-1
1.124299420E-1	-2.540579557E0	9.429515839E0	-4.103690982E-1
1.208329630E-1	-2.516651154E0	9.445069313E0	-3.655036688E-1
1.292359840E-1	-2.483749866E0	9.437891006E0	-3.457628787E-1
1.376390050E-1	-2.440080881E0	9.425926208E0	-3.906283081E-1
1.460420260E-1	-2.369492531E0	9.435498238E0	-4.229314029E-1
1.544450470E-1	-2.326421738E0	9.467801094E0	-4.037888348E-1
1.628480670E-1	-2.302493572E0	9.505488396E0	-3.948157430E-1
1.712510880E-1	-2.307279348E0	9.522835732E0	-4.103690982E-1
1.796541090E-1	-2.293520451E0	9.501300812E0	-5.090730190E-1
1.880571300E-1	-2.349751949E0	9.477970123E0	-5.180460811E-1
1.964601510E-1	-2.427518606E0	9.464211464E0	-4.929214716E-1
2.048631720E-1	-2.439482689E0	9.464211464E0	-5.090730190E-1
2.132661920E-1	-2.423929453E0	9.500701904E0	-5.276173949E-1
2.216692130E-1	-2.394019127E0	9.515657425E0	-5.120640397E-1
2.300722340E-1	-2.352742910E0	9.502496719E0	-5.174478889E-1
2.384752550E-1	-2.312064886E0	9.455238342E0	-5.389832854E-1
2.468782760E-1	-2.274976015E0	9.477372169E0	-5.138586760E-1
2.552812970E-1	-2.234896421E0	9.524630547E0	-4.833501875E-1
2.636843170E-1	-2.234896421E0	9.533005714E0	-4.630111754E-1
2.720873380E-1	-2.223530531E0	9.516255379E0	-4.695914388E-1
2.804903590E-1	-2.182254314E0	9.512067795E0	-5.353940725E-1
2.888933800E-1	-2.164308071E0	9.531808853E0	-5.820540786E-1
2.972964010E-1	-2.142174482E0	9.550951958E0	-5.874379873E-1
3.056994220E-1	-2.148156643E0	9.546165466E0	-5.587241054E-1
3.141024420E-1	-2.167897224E0	9.516255379E0	-5.353940725E-1
3.225054630E-1	-2.204387903E0	9.524032593E0	-5.096712112E-1
3.309084840E-1	-2.223530531E0	9.537193298E0	-4.857429862E-1
3.393115050E-1	-2.259422779E0	9.546764374E0	-4.773681164E-1
3.477145260E-1	-2.275574446E0	9.512067795E0	-5.156532526E-1
3.561175470E-1	-2.237289190E0	9.495318413E0	-5.814558864E-1
3.645205670E-1	-2.221137524E0	9.531808853E0	-5.802595019E-1
3.729235880E-1	-2.219941139E0	9.562915802E0	-5.461617708E-1
3.813266090E-1	-2.239681959E0	9.556933403E0	-4.857429862E-1
3.897296300E-1	-2.285743713E0	9.523433685E0	-4.534398913E-1
3.981326510E-1	-2.306680918E0	9.502496719E0	-4.695914388E-1
4.065356720E-1	-2.294716835E0	9.490532875E0	-4.923232496E-1
4.149386920E-1	-2.261217356E0	9.520442963E0	-4.959124923E-1
4.233417130E-1	-2.242672920E0	9.548559189E0	-5.186443329E-1
4.317447340E-1	-2.245065928E0	9.533603668E0	-5.246263742E-1
4.401477550E-1	-2.254039049E0	9.522835732E0	-4.947160780E-1
4.485507760E-1	-2.282154560E0	9.482157707E0	-4.917250574E-1
4.569537970E-1	-2.319243431E0	9.449256897E0	-5.330012441E-1
4.653568170E-1	-2.354537487E0	9.460622787E0	-5.461617708E-1
4.737598380E-1	-2.358126640E0	9.479764938E0	-5.264210105E-1
4.821628590E-1	-2.343769789E0	9.487542152E0	-5.222335458E-1
4.905658800E-1	-2.373081923E0	9.486345291E0	-4.845465720E-1
4.989689010E-1	-2.463410854E0	9.452247620E0	-4.103690982E-1
5.073719220E-1	-2.546561480E0	9.425926208E0	-3.433700502E-1
5.157749420E-1	-2.580659151E0	9.440283775E0	-3.643072546E-1
5.241779630E-1	-2.535793781E0	9.447462082E0	-4.007977843E-1
5.325809840E-1	-2.440080881E0	9.459425926E0	-4.498506486E-1
5.409840050E-1	-2.262413740E0	9.491130829E0	-5.551348329E-1
5.493870260E-1	-2.060220242E0	9.528220177E0	-6.687939167E-1
5.577900470E-1	-1.896311998E0	9.601201057E0	-7.214360237E-1
5.661930670E-1	-1.852642894E0	9.655039787E0	-6.951149702E-1
5.745960880E-1	-1.956730723E0	9.646066666E0	-5.946164131E-1
5.829991090E-1	-2.170290232E0	9.570692062E0	-5.742774606E-1
5.914021300E-1	-2.349751949E0	9.479166985E0	-6.173482537E-1
5.998051510E-1	-2.467598438E0	9.440283775E0	-6.334998012E-1
6.082081720E-1	-2.531606436E0	9.401400566E0	-5.820540786E-1
6.166111920E-1	-2.549552441E0	9.389435768E0	-5.162515044E-1
6.250142130E-1	-2.475973129E0	9.441479683E0	-4.666004181E-1
6.334172340E-1	-2.346162558E0	9.494720459E0	-4.887340367E-1
6.418202550E-1	-2.243271112E0	9.546165466E0	-4.959124923E-1
6.502232760E-1	-2.180459738E0	9.561718941E0	-5.072783828E-1
6.586262970E-1	-2.155334949E0	9.541978836E0	-4.851447940E-1
6.670293170E-1	-2.155334949E0	9.527621269E0	-4.995017350E-1
6.754323380E-1	-2.199602127E0	9.507282257E0	-4.725824594E-1
6.838353590E-1	-2.275574446E0	9.490532875E0	-5.234299302E-1
6.922383800E-1	-2.277967215E0	9.476176262E0	-6.604190469E-1
7.006414010E-1	-2.264806747E0	9.489336014E0	-7.651050687E-1
7.090444220E-1	-2.264208317E0	9.506086349E0	-7.447660565E-1
7.174474420E-1	-2.256431818E0	9.501898766E0	-6.664010882E-1
7.258504630E-1	-2.239083767E0	9.511469841E0	-6.466603279E-1
7.342534840E-1	-2.221137524E0	9.530612946E0	-6.370890141E-1
7.426565050E-1	-2.223530531E0	9.533603668E0	-6.245267391E-1
7.510595260E-1	-2.239681959E0	9.522237778E0	-6.179464459E-1
7.594625470E-1	-2.227717876E0	9.519845009E0	-5.844469070E-1
7.678655670E-1	-2.197807550E0	9.506684303E0	-6.221339107E-1
7.762685880E-1	-2.202593327E0	9.519247055E0	-6.424728632E-1
7.846716090E-1	-2.207977057E0	9.539586067E0	-6.675975323E-1
7.930746300E-1	-2.218146563E0	9.516854286E0	-6.658028960E-1
8.014776510E-1	-2.218146563E0	9.481559753E0	-6.634100676E-1
8.098806720E-1	-2.232503414E0	9.471988678E0	-6.849454641E-1
8.182836920E-1	-2.265404940E0	9.483952522E0	-6.753742099E-1
8.266867130E-1	-2.277967215E0	9.495916367E0	-6.693921089E-1
8.350897340E-1	-2.271386862E0	9.527621269E0	-6.502495408E-1
8.434927550E-1	-2.191227436E0	9.513862610E0	-6.460621357E-1
8.518957760E-1	-2.133799553E0	9.479166985E0	-6.819544435E-1
8.602987970E-1	-2.150549412E0	9.463015556E0	-7.501499057E-1
8.687018170E-1	-2.225325108E0	9.465408325E0	-7.435696125E-1
8.771048380E-1	-2.290529490E0	9.493523598E0	-6.855437160E-1
8.855078590E-1	-2.292324066E0	9.491130829E0	-6.071787477E-1
8.939108800E-1	-2.289931297E0	9.437891006E0	-6.017948985E-1
9.023139010E-1	-2.288734913E0	9.424730301E0	-6.544370055E-1
9.107169220E-1	-2.280958176E0	9.451649666E0	-6.622136831E-1
9.191199420E-1	-2.256431818E0	9.500103951E0	-6.293123364E-1
9.275229630E-1	-2.216950178E0	9.533005714E0	-5.712863803E-1
9.359259840E-1	-2.231905222E0	9.506684303E0	-5.120640397E-1
9.443290050E-1	-2.288734913E0	9.447462082E0	-4.851447940E-1
9.527320260E-1	-2.344367981E0	9.413962364E0	-5.066801906E-1
9.611350470E-1	-2.405983210E0	9.458827972E0	-5.024927258E-1
9.695380670E-1	-2.465205431E0	9.470791817E0	-4.677968323E-1
9.779410880E-1	-2.466402054E0	9.473783493E0	-4.612165689E-1
9.863441090E-1	-2.419143677E0	9.532406807E0	-4.689932466E-1
9.947471300E-1	-2.374278307E0	9.555737495E0	-4.713860750E-1
1.003150151E0	-2.325823545E0	9.507282257E0	-4.923232496E-1
1.011553172E0	-2.286940336E0	9.431908607E0	-4.971089065E-1
1.019956192E0	-2.327618122E0	9.445667267E0	-5.024927258E-1
1.028359213E0	-2.366501570E0	9.499505997E0	-4.875376225E-1
1.036762234E0	-2.423331022E0	9.526425362E0	-5.102694035E-1
1.045165255E0	-2.462214470E0	9.497711182E0	-5.551348329E-1
1.053568276E0	-2.469991207E0	9.464211464E0	-5.982056856E-1
1.061971297E0	-2.465803623E0	9.442078590E0	-6.287141442E-1
1.070374317E0	-2.472383976E0	9.413364410E0	-6.352944374E-1
1.078777338E0	-2.513660192E0	9.379266739E0	-5.706881881E-1
1.087180359E0	-2.540579557E0	9.406186104E0	-4.719842672E-1
1.095583380E0	-2.525624275E0	9.463613510E0	-4.618147612E-1
1.103986401E0	-2.545365095E0	9.467203140E0	-5.186443329E-1
1.112389422E0	-2.637488842E0	9.418149948E0	-5.318048596E-1
1.120792442E0	-2.691925526E0	9.348159790E0	-4.558327198E-1
1.129195463E0	-2.644068956E0	9.326025963E0	-4.079762697E-1
1.137598484E0	-2.557329178E0	9.347561836E0	-4.528416991E-1
1.146001505E0	-2.482553482E0	9.394820213E0	-5.024927258E-1
1.154404526E0	-2.435893536E0	9.531808853E0	-5.395814776E-1
1.162807547E0	-2.375474691E0	9.653842926E0	-5.922235847E-1
1.171210567E0	-2.312064886E0	9.659825325E0	-7.214360237E-1
1.179613588E0	-2.252842426E0	9.550353050E0	-8.165507317E-1
1.188016609E0	-2.252842426E0	9.469595909E0	-7.292127013E-1
1.196419630E0	-2.248056889E0	9.466604233E0	-5.760720372E-1
1.204822651E0	-2.264208317E0	9.490532875E0	-5.168496966E-1
1.213225672E0	-2.325225353E0	9.546764374E0	-5.814558864E-1
1.221628692E0	-2.452044964E0	9.642477036E0	-6.753742099E-1
1.230031713E0	-2.632104874E0	9.707083702E0	-7.716853023E-1
1.238434734E0	-2.777468920E0	9.707083702E0	-8.697910309E-1
1.246837755E0	-2.931207657E0	9.714262009E0	-9.391828775E-1
1.255240776E0	-3.087339401E0	9.720842361E0	-8.883354068E-1
1.263643797E0	-3.130410194E0	9.694520950E0	-9.445667267E-1
1.272046817E0	-3.153740168E0	9.659226418E0	-9.170492887E-1
1.280449838E0	-3.134597778E0	9.692128181E0	-7.998009920E-1
1.288852859E0	-3.038286448E0	9.833304405E0	-6.508477330E-1
1.297255880E0	-2.855833769E0	1.003011417E1	-5.341976285E-1
1.305658901E0	-2.702693224E0	1.015035343E1	-4.600201547E-1
1.314061922E0	-2.646461725E0	1.018325520E1	-4.695914388E-1
1.322464942E0	-2.594418049E0	1.020179939E1	-6.000002623E-1
1.330867963E0	-2.554936409E0	1.026760197E1	-6.717849374E-1
1.339270984E0	-2.441875458E0	1.033759212E1	-7.663014531E-1
1.347674005E0	-2.294118643E0	1.039681435E1	-8.943174481E-1
1.356077026E0	-2.193022013E0	1.046680450E1	-1.085743308E0
1.364480047E0	-2.164308071E0	1.065583706E1	-1.432702541E0
1.372883067E0	-2.325225353E0	1.118106174E1	-1.347159147E0
1.381286088E0	-2.785843849E0	1.069113159E1	5.964110494E-1
1.389689109E0	-2.951546669E0	9.604789734E0	8.081758618E-1
1.398092130E0	-3.198007345E0	8.982656479E0	8.973085321E-3
1.406495151E0	-3.456432343E0	8.918049812E0	-9.254241586E-1
1.414898172E0	-3.400201082E0	9.155537605E0	-1.385444283E0
1.423301192E0	-3.190829039E0	9.375677109E0	-1.009172916E0
1.431704213E0	-3.043670416E0	9.376873970E0	-4.079762697E-1
1.440107234E0	-3.129213810E0	9.120243073E0	-1.914258152E-1
1.448510255E0	-3.451048374E0	8.797212601E0	-2.733799815E-1
1.456913276E0	-3.732803345E0	8.637491226E0	-7.298108935E-1
1.465316297E0	-3.816552162E0	8.696713448E0	-1.077966571E0
1.473719317E0	-3.686741590E0	8.836693764E0	-1.067797065E0
1.482122338E0	-3.470191002E0	8.947959900E0	-8.727820516E-1
1.490525359E0	-3.248256683E0	9.002396584E0	-6.681957245E-1
1.498928380E0	-3.032902718E0	9.021539688E0	-6.448656917E-1
1.507331401E0	-2.846860647E0	9.104091644E0	-8.614161611E-1
1.515734422E0	-2.724228621E0	9.226125717E0	-1.055832982E0
1.524137442E0	-2.694916487E0	9.277571678E0	-1.116850019E0
1.532540463E0	-2.736192703E0	9.297312737E0	-1.191027522E0
1.540943484E0	-2.748156786E0	9.315258980E0	-1.331605792E0
1.549346505E0	-2.641676188E0	9.347561836E0	-1.509871125E0
1.557749526E0	-2.395813704E0	9.451051712E0	-1.625324726E0
1.566152547E0	-2.055434704E0	9.568299294E0	-1.613958836E0
1.574555567E0	-1.780858278E0	9.637691498E0	-1.542174220E0
1.582958588E0	-1.539183140E0	9.663414001E0	-1.523031592E0
1.591361609E0	-1.270588875E0	9.658628464E0	-1.697109461E0
1.599764630E0	-1.054038405E0	9.634101868E0	-1.736590981E0
1.608167651E0	-9.068797827E-1	9.576674461E0	-1.719841242E0
1.616570672E0	-8.703892231E-1	9.481559753E0	-1.703689694E0
1.624973692E0	-9.625129104E-1	9.412167549E0	-1.619940877E0
1.633376713E0	-1.079761267E0	9.448060036E0	-1.589432478E0
1.641779734E0	-1.150947690E0	9.538389206E0	-1.623530149E0
1.650182755E0	-1.179661512E0	9.648459435E0	-1.718644857E0
1.658585776E0	-1.284347534E0	9.671191216E0	-1.804786444E0
1.666988797E0	-1.482951880E0	9.664610863E0	-1.874776483E0
1.675391817E0	-1.715653777E0	9.687940598E0	-1.854437590E0
1.683794838E0	-1.831107497E0	9.726823807E0	-1.714457393E0
1.692197859E0	-1.761117458E0	9.721440315E0	-1.513460279E0
1.700600880E0	-1.540977836E0	9.641280174E0	-1.493121386E0
1.709003901E0	-1.286142230E0	9.524630547E0	-1.563111424E0
1.717406922E0	-1.130608678E0	9.458230019E0	-1.579861164E0
1.725809942E0	-1.151545882E0	9.435498238E0	-1.446461320E0
1.734212963E0	-1.285543919E0	9.381659508E0	-1.342971683E0
1.742615984E0	-1.500898004E0	9.379266739E0	-1.233500123E0
1.751019005E0	-1.714457393E0	9.416355133E0	-1.246660590E0
1.759422026E0	-1.831107497E0	9.434301376E0	-1.299302697E0
1.767825047E0	-1.827518344E0	9.464810371E0	-1.450648785E0
1.776228067E0	-1.822732687E0	9.558130264E0	-1.445264935E0
1.784631088E0	-1.815554142E0	9.648459435E0	-1.370489120E0
1.793034109E0	-1.782054663E0	9.708877563E0	-1.341775298E0
1.801437130E0	-1.743171334E0	9.762118340E0	-1.234696507E0
1.809840151E0	-1.713261008E0	9.811170578E0	-1.283749342E0
1.818243172E0	-1.904686809E0	9.754341125E0	-1.208375454E0
1.826646192E0	-2.042872429E0	9.614959717E0	-1.465603828E0
1.835049213E0	-1.959123492E0	9.607182503E0	-1.695314884E0
1.843452234E0	-1.844866276E0	9.646664619E0	-1.459023595E0
1.851855255E0	-1.811366796E0	9.565308571E0	-1.115653515E0
1.860258276E0	-1.794616938E0	9.396016121E0	-9.744769931E-1
1.868661297E0	-1.877767563E0	9.287740707E0	-9.421738982E-1
1.877064317E0	-2.023131609E0	9.233304024E0	-1.027119160E0
1.885467338E0	-2.137388945E0	9.230911255E0	-1.141974568E0
1.893870359E0	-2.224726915E0	9.230313301E0	-1.109671474E0
1.902273380E0	-2.285743713E0	9.209376335E0	-1.000798106E0
1.910676401E0	-2.329412937E0	9.161520004E0	-9.379864931E-1
1.919079422E0	-2.274377823E0	9.124430656E0	-9.373882413E-1
1.927482442E0	-2.234896421E0	9.117252350E0	-8.883354068E-1
1.935885463E0	-2.208575249E0	9.055039406E0	-8.123632669E-1
1.944288484E0	-2.163709879E0	8.949754715E0	-7.381857634E-1
1.952691505E0	-2.110469580E0	8.851649284E0	-6.143572330E-1
1.961094526E0	-1.954936147E0	8.799007416E0	-5.976074338E-1
1.969497547E0	-1.624128342E0	8.799605370E0	-7.310073376E-1
1.977900567E0	-1.258026481E0	8.867800713E0	-6.281159520E-1
1.986303588E0	-8.715856671E-1	8.974281311E0	-4.695914388E-1
1.994706609E0	-5.318048596E-1	9.070592880E0	-3.547359705E-1
2.003109630E0	-3.032902777E-1	9.142974854E0	-2.805584669E-1
2.011512651E0	-2.123630047E-1	9.213563919E0	-1.794617027E-1
2.019915672E0	-2.386840582E-1	9.217751503E0	-1.208375469E-1
2.028318692E0	-3.984049559E-1	9.210572243E0	-2.315055877E-1
2.036721713E0	-7.112665176E-1	9.149555206E0	-3.637090325E-1
2.045124734E0	-1.080359459E0	9.057432175E0	-4.737788737E-1
2.053527755E0	-1.242473125E0	8.891130447E0	-5.611169338E-1
2.061930776E0	-1.140778184E0	8.920442581E0	-8.602197170E-1
2.070333797E0	-9.505487680E-1	9.282357216E0	-9.164510965E-1
2.078736817E0	-5.437689424E-1	9.720842361E0	-6.807580590E-1
2.087139838E0	-1.022931710E-1	1.001037312E1	-5.641079545E-1
2.095542859E0	-4.139583111E-1	1.029392338E1	-6.652047038E-1
2.103945880E0	-1.811964989E0	1.067139053E1	-1.067797065E0
2.112348901E0	-4.521836758E0	1.147179031E1	-1.680957913E0
2.120751922E0	-7.588238716E0	1.230628681E1	-1.511067510E0
2.129154942E0	-9.562915802E0	1.240558910E1	-1.133001566E0
2.137557963E0	-9.702297211E0	1.159621716E1	-7.531409264E-1
2.145960984E0	-7.747959614E0	1.034417248E1	-4.402793646E-1
2.154364005E0	-4.887340069E0	9.332606316E0	-3.314059377E-1
2.162767026E0	-2.380260229E0	8.819346428E0	-7.298108935E-1
2.171170047E0	-4.426721931E-1	8.592626572E0	-1.229312658E0
2.179573067E0	9.613165259E-1	8.543573380E0	-1.348355532E0
2.187976088E0	1.762313843E0	8.628518105E0	-1.023529887E0
2.196379109E0	1.823330879E0	8.949754715E0	-3.529413342E-1
2.204782130E0	1.041476011E0	9.501300812E0	7.585247755E-1
2.213185151E0	-3.445664644E-1	9.937392235E0	1.704886079E0
2.221588172E0	-1.500299811E0	9.845867157E0	1.649253011E0
2.229991192E0	-2.192423820E0	9.392427444E0	1.052243710E0
2.238394213E0	-2.553740025E0	9.022735596E0	5.916253924E-1
2.246797234E0	-2.600998163E0	8.984451294E0	5.006981492E-1
2.255200255E0	-2.267199516E0	9.370293617E0	4.396811724E-1
2.263603276E0	-1.637887120E0	9.862616539E0	3.870390654E-1
2.272006297E0	-1.179661512E0	1.002532864E1	5.503492355E-1
2.280409317E0	-1.232303619E0	9.945169449E0	7.136593461E-1
2.288812338E0	-1.601994753E0	9.854242325E0	4.845465720E-1
2.297215359E0	-2.000998020E0	9.922437668E0	-2.859423161E-1
2.305618380E0	-2.236690998E0	1.008814049E1	-8.069794178E-1
2.314021401E0	-2.125424623E0	1.022453117E1	-9.445667267E-1
2.322424422E0	-1.707278967E0	1.017667484E1	-6.711867452E-1
2.330827442E0	-1.287338614E0	9.924231529E0	-1.962114573E-1
2.339230463E0	-9.774680734E-1	9.571290970E0	2.003988922E-1
2.347633484E0	-8.021938205E-1	9.388837814E0	2.518445849E-1
2.356036505E0	-8.189435601E-1	9.515657425E0	2.632104978E-2
2.364439526E0	-1.095314622E0	9.863813400E0	-1.615155302E-2
2.372842547E0	-1.607976794E0	1.013121128E1	2.733799815E-1
2.381245567E0	-1.999203324E0	1.005404282E1	4.408775866E-1
2.389648588E0	-2.060220242E0	9.824331284E0	3.948157430E-1
2.398051609E0	-1.843669891E0	9.610174179E0	3.678964674E-1
2.406454630E0	-1.581057549E0	9.470193863E0	4.815555513E-1
2.414857651E0	-1.295115232E0	9.474381447E0	6.861419082E-1
2.423260672E0	-1.094716311E0	9.620942116E0	5.545366406E-1
2.431663692E0	-1.018744230E0	9.899705887E0	5.030909777E-1
2.440066713E0	-9.499505758E-1	1.001336479E1	6.646065116E-1
2.448469734E0	-7.902296782E-1	9.933803558E0	6.717849374E-1
2.456872755E0	-6.334998012E-1	9.790832520E0	6.299105883E-1
2.465275776E0	-5.371887088E-1	9.713663101E0	6.227321029E-1
2.473678797E0	-4.761717021E-1	9.716654778E0	6.586244106E-1
2.482081817E0	-4.552344978E-1	9.771689415E0	7.160521746E-1
2.490484838E0	-4.683950245E-1	9.765707016E0	6.747759581E-1
2.498887859E0	-5.102694035E-1	9.740582466E0	5.270192027E-1
2.507290880E0	-6.047859192E-1	9.789635658E0	3.792623878E-1
2.515693901E0	-7.022934556E-1	9.835697174E0	3.948157430E-1
2.524096922E0	-8.057830334E-1	9.845867157E0	5.036891699E-1
2.532499942E0	-8.069794178E-1	9.787242889E0	5.156532526E-1
2.540902963E0	-7.004988194E-1	9.730413437E0	6.137589812E-1
2.549305984E0	-5.258227587E-1	9.692726135E0	6.783652306E-1
2.557709005E0	-3.834498227E-1	9.681958199E0	6.717849374E-1
2.566112026E0	-3.822534084E-1	9.697511673E0	6.239284873E-1
2.574515047E0	-5.694918036E-1	9.729216576E0	5.216353536E-1
2.582918067E0	-7.974081635E-1	9.818947792E0	4.654040039E-1
2.591321088E0	-1.004387259E0	9.861420631E0	6.161518097E-1
2.599724109E0	-1.153938770E0	9.805189133E0	6.849454641E-1
2.608127130E0	-1.153938770E0	9.698110580E0	6.843472719E-1
2.616530151E0	-1.046859860E0	9.649655342E0	7.208378315E-1
2.624933172E0	-9.774680734E-1	9.654440880E0	6.735795736E-1
2.633336192E0	-9.720842242E-1	9.682557106E0	5.808576941E-1
2.641739213E0	-9.403793216E-1	9.744770050E0	6.388836503E-1
2.650142234E0	-9.266205430E-1	9.715457916E0	6.646065116E-1
2.658545255E0	-9.373882413E-1	9.656235695E0	6.382854581E-1
2.666948276E0	-9.613165259E-1	9.592825890E0	6.897311211E-1
2.675351297E0	-9.326026440E-1	9.576674461E0	6.945167780E-1
2.683754317E0	-8.967102766E-1	9.648459435E0	7.537391186E-1
2.692157338E0	-8.685946465E-1	9.739984512E0	8.530412912E-1
2.700560359E0	-8.033902049E-1	9.747162819E0	8.470591903E-1
2.708963380E0	-7.238288522E-1	9.729216576E0	8.129615188E-1
2.717366401E0	-6.723831892E-1	9.655637741E0	8.003991842E-1
2.725769422E0	-6.305087805E-1	9.583852768E0	8.590233326E-1
2.734172442E0	-5.377869010E-1	9.590433121E0	8.853443861E-1
2.742575463E0	-4.007977843E-1	9.673583984E0	8.333004713E-1
2.750978484E0	-3.966103494E-1	9.716654778E0	7.944171429E-1
2.759381505E0	-4.935196638E-1	9.681360245E0	5.072783828E-1
2.767784526E0	-6.047859192E-1	9.798608780E0	7.776673883E-2
2.776187547E0	-7.854440212E-1	9.939187050E0	-1.597209126E-1
2.784590567E0	-9.403793216E-1	9.848857880E0	-3.086741269E-1
2.792993588E0	-8.572286963E-1	9.686744690E0	-3.355933726E-1
2.801396609E0	-6.514459848E-1	9.694520950E0	-2.009970993E-1
2.809799630E0	-4.959124923E-1	9.753743172E0	2.093719877E-2
2.818202651E0	-4.157529473E-1	9.778867722E0	2.805584669E-1
2.826605672E0	-4.414757788E-1	9.778269768E0	4.205385745E-1
2.835008692E0	-5.485545993E-1	9.737591743E0	4.821537733E-1
2.843411713E0	-6.789634228E-1	9.690333366E0	5.234299302E-1
2.851814734E0	-7.513462901E-1	9.662816048E0	4.695914388E-1
2.860217755E0	-6.897311211E-1	9.629316330E0	4.576273263E-1
2.868620776E0	-4.839483798E-1	9.651450157E0	4.384847581E-1
2.877023797E0	-2.889333367E-1	9.723235130E0	5.371887088E-1
2.885426817E0	-1.812563092E-1	9.765109062E0	6.526423693E-1
2.893829838E0	-1.250249892E-1	9.706484795E0	6.562315822E-1
2.902232859E0	-1.328016520E-1	9.660423279E0	5.162515044E-1
2.910635880E0	-2.117647976E-1	9.690333366E0	4.319044948E-1
2.919038901E0	-3.882354796E-1	9.762716293E0	3.415754437E-1
2.927441922E0	-4.947160780E-1	9.774082184E0	2.267199457E-1
2.935844942E0	-4.498506486E-1	9.753145218E0	1.860419661E-1
2.944247963E0	-3.960121572E-1	9.767501831E0	9.451649338E-2
2.952650984E0	-4.767699242E-1	9.874580383E0	1.938186288E-1
2.961054005E0	-5.024927258E-1	1.006780148E1	3.816552162E-1
2.969457026E0	-4.331009090E-1	1.030648518E1	5.706881881E-1
2.977860047E0	-4.211367965E-1	1.044287586E1	8.817551732E-1
2.986263067E0	-4.097708762E-1	1.052243805E1	1.149153113E0
2.994666088E0	-3.248256743E-1	1.045184898E1	1.214955688E0
3.003069109E0	-1.680957973E-1	1.031007481E1	8.751748800E-1
3.011472130E0	-5.084748194E-2	1.016889763E1	4.779663086E-1
3.019875151E0	4.127619043E-2	1.019462109E1	9.511470050E-2
3.028278172E0	1.076770201E-1	1.046500969E1	-2.542374134E-1
3.036681192E0	2.494517565E-1	1.084965611E1	-4.043870270E-1
3.045084213E0	3.559323549E-1	1.135813046E1	-6.771687865E-1
3.053487234E0	3.649054468E-2	1.177567863E1	-1.145563841E0
3.061890255E0	-8.398807645E-1	1.159023476E1	-1.028913736E0
3.070293276E0	-1.587637782E0	1.093161011E1	-1.133599758E0
3.078696297E0	-1.765903115E0	1.051047325E1	-8.638089895E-1
3.087099317E0	-1.368096352E0	1.072881889E1	-2.566302419E-1
3.095502338E0	-9.738788009E-1	1.096211910E1	4.067798331E-2
3.103905359E0	-1.097707391E0	1.096331501E1	6.161518395E-2
3.112308380E0	-1.435693622E0	1.095793152E1	-3.720839322E-1
3.120711401E0	-1.505683661E0	1.117627621E1	-7.154539824E-1
3.129114422E0	-1.173679471E0	1.132941723E1	-6.323033571E-1
3.137517442E0	-6.675975323E-1	1.128096199E1	-6.771687865E-1
3.145920463E0	-9.990034252E-2	1.112961674E1	-7.465606928E-1
3.154323484E0	4.450650215E-1	1.085324574E1	-5.659025311E-1
3.162726505E0	9.619147182E-1	1.061994553E1	-3.918247223E-1
3.171129526E0	1.386042476E0	1.037288570E1	-3.385843933E-1
3.179532547E0	1.694118381E0	1.016829967E1	-4.037888348E-1
3.187935567E0	1.739582062E0	1.008634567E1	-4.845465720E-1
3.196338588E0	1.152144074E0	9.985248566E0	-4.217349887E-1
3.204741609E0	-1.794617064E-2	9.717850685E0	-1.908276081E-1
3.213144630E0	-1.316052437E0	9.206983566E0	-1.932204217E-1
3.221547651E0	-2.261217356E0	8.693722725E0	-1.190429255E-1
3.229950672E0	-2.664407969E0	8.390432358E0	-1.094716340E-1
3.238353692E0	-2.538784742E0	8.254041672E0	-2.135594189E-1
3.246756713E0	-2.143370867E0	8.112865448E0	-3.649054468E-1
3.255159734E0	-1.712662816E0	8.122436523E0	-5.892325640E-1
3.263562755E0	-1.375872970E0	8.273782730E0	-6.687939167E-1
3.271965776E0	-1.127617717E0	8.542376518E0	-5.126622319E-1
3.280368797E0	-9.547362328E-1	8.826524734E0	-3.726821244E-1
3.288771817E0	-8.015955687E-1	9.102895737E0	-3.188436031E-1
3.297174838E0	-6.765705943E-1	9.265008926E0	-3.906283081E-1
3.305577859E0	-6.191428304E-1	9.295517921E0	-5.012963414E-1
3.313980880E0	-5.288137794E-1	9.253643036E0	-6.263213158E-1
3.322383901E0	-4.498506486E-1	9.211171150E0	-7.339983582E-1
3.330786922E0	-3.774677813E-1	9.195617676E0	-8.249256015E-1
3.339189942E0	-3.559323549E-1	9.224929810E0	-9.200403094E-1
3.347592963E0	-3.583251834E-1	9.210572243E0	-9.439685345E-1
3.355995984E0	-2.883351147E-1	9.194420815E0	-9.212366939E-1
3.364399005E0	-1.639083475E-1	9.168100357E0	-9.260223508E-1
3.372802026E0	-1.794616925E-3	9.206384659E0	-9.816554785E-1
3.381205047E0	1.663011760E-1	9.328418732E0	-1.049252748E0
3.389608067E0	2.853440940E-1	9.482755661E0	-1.118046403E0
3.398011088E0	4.109672904E-1	9.619745255E0	-1.103689432E0
3.406414109E0	4.869394004E-1	9.723235130E0	-1.015753269E0
3.414817130E0	5.461617708E-1	9.757930756E0	-9.547362328E-1
3.423220151E0	5.312066078E-1	9.743574142E0	-9.439685345E-1
3.431623172E0	4.313062727E-1	9.701699257E0	-9.535398483E-1
3.440026192E0	2.338984162E-1	9.634700775E0	-9.601200819E-1
3.448429213E0	5.324030295E-2	9.591629982E0	-1.015753269E0
3.456832234E0	-4.666004330E-2	9.566504478E0	-1.133001566E0
3.465235255E0	-6.640082598E-2	9.586245537E0	-1.202393413E0
3.473638276E0	-2.632104978E-2	9.611370087E0	-1.109671474E0
3.482041297E0	1.483550072E-1	9.615557671E0	-1.031904817E0
3.490444317E0	4.414757788E-1	9.607182503E0	-1.018146038E0
3.498847338E0	6.113662124E-1	9.629316330E0	-9.194421172E-1
3.507250359E0	6.293123364E-1	9.677771568E0	-8.937192559E-1
3.515653380E0	5.820540786E-1	9.725028992E0	-9.894321561E-1
3.524056401E0	4.965106845E-1	9.810572624E0	-1.025922656E0
3.532459422E0	4.235295951E-1	9.860821724E0	-9.852447510E-1
3.540862442E0	3.254238665E-1	9.861420631E0	-9.188438654E-1
3.549265463E0	1.866401732E-1	9.801599503E0	-8.793623447E-1
3.557668484E0	4.905286431E-2	9.846465111E0	-8.685946465E-1
3.566071505E0	-1.489532143E-1	9.915857315E0	-7.525427341E-1
3.574474526E0	-3.098705411E-1	9.992427826E0	-6.424728632E-1
3.582877547E0	-3.918247223E-1	1.005763149E1	-5.449653864E-1
3.591280567E0	-3.415754437E-1	1.010788059E1	-5.587241054E-1
3.599683588E0	-1.513460279E-1	1.022154045E1	-6.107679605E-1
3.608086609E0	9.870393574E-2	1.025982571E1	-6.646065116E-1
3.616489630E0	1.794617027E-1	1.022572803E1	-5.593222976E-1
3.624892651E0	9.810572863E-2	1.013121128E1	-6.598208547E-1
3.633295672E0	7.776673418E-3	1.010548782E1	-9.541380405E-1
3.641698692E0	3.110669367E-2	1.024427223E1	-9.308080077E-1
3.650101713E0	1.142572835E-1	1.036211872E1	-6.634100676E-1
3.658504734E0	1.052841991E-1	1.032562828E1	-6.113662124E-1
3.666907755E0	-5.324030295E-2	1.015035343E1	-8.033902049E-1
3.675310776E0	-2.536391914E-1	1.000798035E1	-9.248259664E-1
3.683713797E0	-3.613162339E-1	9.952945709E0	-9.505487680E-1
3.692116817E0	-3.792623878E-1	9.992427826E0	-8.243274093E-1
3.700519838E0	-4.121637046E-1	1.001216793E1	-7.573283911E-1
3.708922859E0	-5.096712112E-1	9.957731247E0	-6.909275651E-1
3.717325880E0	-5.694918036E-1	9.844072342E0	-7.202396393E-1
3.725728901E0	-5.108676553E-1	9.760323524E0	-7.609176040E-1
3.734131922E0	-5.090730190E-1	9.732208252E0	-7.280163169E-1
3.742534942E0	-5.659025311E-1	9.789635658E0	-7.668996453E-1
3.750937963E0	-7.483552694E-1	9.920642853E0	-7.788637877E-1
3.759340984E0	-1.064207911E0	1.006899738E1	-7.621139884E-1
3.767744005E0	-1.392622828E0	1.012104130E1	-6.897311211E-1
3.776147026E0	-1.706082582E0	1.005703354E1	-5.802595019E-1
3.784550047E0	-1.917249203E0	9.984650612E0	-4.600201547E-1
3.792953067E0	-1.938186288E0	9.914062500E0	-4.677968323E-1
3.801356088E0	-1.836491346E0	9.884152412E0	-4.857429862E-1
3.809759109E0	-1.743171334E0	9.885348320E0	-5.210371017E-1
3.818162130E0	-1.730010748E0	9.730413437E0	-5.252245665E-1
3.826565151E0	-1.746760488E0	9.517452240E0	-6.287141442E-1
3.834968172E0	-1.841277003E0	9.343972206E0	-5.036891699E-1
3.843371192E0	-1.889133453E0	9.170493126E0	-3.128615618E-1
3.851774213E0	-1.785643935E0	9.027522087E0	-3.690928817E-1
3.860177234E0	-1.661217093E0	8.944371223E0	-4.007977843E-1
3.868580255E0	-1.587637782E0	8.918647766E0	-3.637090325E-1
3.876983276E0	-1.535593987E0	8.925228119E0	-4.432703853E-1
3.885386297E0	-1.525424480E0	8.941978455E0	-4.953143001E-1
3.893789317E0	-1.521237016E0	8.979066849E0	-4.695914388E-1
3.902192338E0	-1.456630826E0	9.028717995E0	-3.194418252E-1
3.910595359E0	-1.302293777E0	9.050851822E0	-1.489532143E-1
3.918998380E0	-1.082752228E0	9.048459053E0	-1.363908947E-1
3.927401401E0	-9.236295223E-1	9.084351540E0	-2.267199457E-1
3.935804422E0	-8.428717852E-1	9.168100357E0	-1.860419661E-1
3.944207442E0	-7.238288522E-1	9.229715347E0	-3.529413417E-2
3.952610463E0	-4.103690982E-1	9.273982048E0	1.196411322E-3
3.961013484E0	6.340979785E-2	9.415757179E0	-1.734796353E-2
3.969416505E0	6.251249313E-1	9.612566948E0	5.443671346E-2
3.977819526E0	1.191625714E0	9.770493507E0	2.626122832E-1
3.986222547E0	1.871187329E0	9.933803558E0	4.791627228E-1
3.994625567E0	2.803789854E0	1.017488003E1	6.251249313E-1
4.003028588E0	4.170091629E0	1.073420238E1	1.058823988E-1
4.011431609E0	5.838487148E0	1.149751282E1	-7.962117195E-1
4.019834630E0	6.759724140E0	1.219561863E1	-1.248455167E0
4.028237651E0	5.536393166E0	1.227398396E1	1.280160099E-1
4.036640672E0	2.718844652E0	1.147119141E1	4.624129832E-1
4.045043692E0	-5.359922647E-1	1.048953629E1	5.862415582E-2
4.053446713E0	-4.094717979E0	9.812367439E0	2.075773627E-1
4.061849734E0	-7.966304779E0	9.482157707E0	1.015753269E0
4.070252755E0	-1.084905815E1	9.237491608E0	1.147956610E0
4.078655776E0	-1.124925709E1	9.042476654E0	-3.409772217E-1
4.087058797E0	-9.089735031E0	9.123832703E0	-2.612962246E0
4.095461817E0	-5.709873199E0	9.651450157E0	-3.837489367E0
4.103864838E0	-2.513660192E0	1.019162941E1	-3.431905985E0
4.112267859E0	4.965106845E-1	1.035553837E1	-2.080559254E0
4.120670880E0	3.227319479E0	9.997213364E0	-4.348955154E-1
4.129073901E0	4.658227444E0	9.308079720E0	3.296113312E-1
4.137476922E0	4.301696777E0	8.925228119E0	5.192425251E-1
4.145879942E0	2.454437733E0	9.128618240E0	9.870393276E-1
4.154282963E0	2.494517565E-1	9.720243454E0	1.409372568E0
4.162685984E0	-1.517647743E0	1.014616585E1	1.096511006E0
4.171089005E0	-2.593819857E0	1.028195858E1	-5.682953820E-2
4.179492026E0	-2.810968399E0	1.008873844E1	-1.240080357E0
4.187895047E0	-2.355733871E0	9.795618057E0	-1.186241865E0
4.196298067E0	-1.893320918E0	9.525827408E0	-4.301098585E-1
4.204701088E0	-1.716252089E0	9.358329773E0	3.708875179E-2
4.213104109E0	-1.534995675E0	9.483354568E0	-9.870393574E-2
4.221507130E0	-1.077368379E0	9.865009308E0	-1.501496136E-1
4.229910151E0	-4.115654826E-1	1.022154045E1	-3.110669553E-1
4.238313172E0	3.649054468E-2	1.037647533E1	-3.625126183E-1
4.246716192E0	-1.674975827E-2	1.022871876E1	1.519442350E-1
4.255119213E0	-3.032902777E-1	9.934401512E0	3.457628787E-1
4.263522234E0	-6.251249313E-1	9.714262009E0	1.220339537E-1
4.271925255E0	-9.888339639E-1	9.635896683E0	5.563312769E-2
4.280328276E0	-1.362712502E0	9.648459435E0	-3.230310604E-2
4.288731297E0	-1.582253933E0	9.725627899E0	1.190429255E-1
4.297134317E0	-1.439282775E0	9.782457352E0	4.001995921E-1
4.305537338E0	-1.015154958E0	9.697511673E0	3.990031779E-1
4.313940359E0	-6.113662124E-1	9.610174179E0	4.845465720E-1
4.322343380E0	-4.055834413E-1	9.658030510E0	5.623133183E-1
4.330746401E0	-3.397808075E-1	9.879964828E0	7.046862841E-1
4.339149422E0	-2.943171859E-1	1.001815033E1	7.310073376E-1
4.347552442E0	-2.303091735E-1	9.953543663E0	7.776673436E-1
4.355955463E0	-1.250249892E-1	9.857233047E0	6.053841114E-1
4.364358484E0	-1.914258115E-2	9.814162254E0	7.178468108E-1
4.372761505E0	1.902294010E-1	9.862018585E0	8.069794178E-1
4.381164526E0	4.486542344E-1	9.918848038E0	8.715856671E-1
4.389567547E0	5.946164131E-1	9.875179291E0	9.726824164E-1
4.397970567E0	5.946164131E-1	9.791430473E0	9.427721500E-1
4.406373588E0	4.767699242E-1	9.753743172E0	8.961120844E-1
4.414776609E0	3.421736360E-1	9.739984512E0	8.009973764E-1
4.423179630E0	3.020938635E-1	9.747162819E0	6.358926296E-1
4.431582651E0	3.451646566E-1	9.878767967E0	5.970092416E-1
4.439985672E0	4.061816335E-1	9.970891953E0	5.850451589E-1
4.448388692E0	4.528416991E-1	9.906285286E0	6.047859192E-1
4.456791713E0	4.971089065E-1	9.745368004E0	6.496513486E-1
4.465194734E0	5.330012441E-1	9.704092026E0	5.970092416E-1
4.473597755E0	5.222335458E-1	9.807581902E0	5.288137794E-1
4.482000776E0	4.887340367E-1	9.871589661E0	5.186443329E-1
4.490403797E0	4.414757788E-1	9.829715729E0	4.139583111E-1
4.498806817E0	3.493520916E-1	9.798608780E0	4.073780477E-1
4.507209838E0	2.901297510E-1	9.812367439E0	3.314059377E-1
4.515612859E0	3.541377485E-1	9.900303841E0	3.966103494E-1
4.524015880E0	4.570291340E-1	9.826126099E0	4.654040039E-1
4.532418901E0	4.408775866E-1	9.668199539E0	5.240281820E-1
4.540821922E0	3.230310678E-1	9.609575272E0	5.096712112E-1
4.549224942E0	2.727817893E-1	9.718449593E0	4.989035130E-1
4.557627963E0	2.823530734E-1	9.847063065E0	4.576273263E-1
4.566030984E0	3.188436031E-1	9.842277527E0	4.731806815E-1
4.574434005E0	3.834498227E-1	9.760323524E0	5.557330847E-1
4.582837026E0	4.785645306E-1	9.681958199E0	6.472585201E-1
4.591240047E0	5.347958803E-1	9.627521515E0	6.915257573E-1
4.599643067E0	4.797609448E-1	9.610174179E0	6.909275651E-1
4.608046088E0	4.546363056E-1	9.641280174E0	6.329016089E-1
4.616449109E0	5.760720372E-1	9.714859962E0	6.053841114E-1
4.624852130E0	7.070791125E-1	9.793225288E0	6.101697683E-1
4.633255151E0	7.489534616E-1	9.751948357E0	5.904290080E-1
4.641658172E0	8.057830334E-1	9.684351921E0	5.204389095E-1
4.650061192E0	9.020941257E-1	9.680762291E0	5.036891699E-1
4.658464213E0	9.619147182E-1	9.703494072E0	4.935196638E-1
4.666867234E0	9.320043921E-1	9.765707016E0	4.223332107E-1
4.675270255E0	9.050851464E-1	9.827322960E0	4.055834413E-1
4.683673276E0	9.284151793E-1	9.870393753E0	3.942175210E-1
4.692076297E0	1.032503009E0	9.838688850E0	3.708875179E-1
4.700479317E0	1.066002488E0	9.773484230E0	3.852444589E-1
4.708882338E0	1.082752228E0	9.734002113E0	4.965106845E-1
4.717285359E0	1.086341500E0	9.766903877E0	5.964110494E-1
4.725688380E0	9.613165259E-1	9.770493507E0	7.274180651E-1
4.734091401E0	6.831508875E-1	9.746564865E0	5.653043389E-1
4.742494422E0	4.073780477E-1	9.768698692E0	3.493520916E-1
4.750897442E0	4.241278172E-1	9.828518867E0	3.954139352E-1
4.759300463E0	6.669993401E-1	9.958928108E0	3.499503136E-1
4.767703484E0	7.423732281E-1	1.005882835E1	5.048855543E-1
4.776106505E0	6.448656917E-1	1.006421185E1	3.499503136E-1
4.784509526E0	4.235295951E-1	1.011087227E1	3.008974493E-1
4.792912547E0	1.896311939E-1	1.016889763E1	2.392822653E-1
4.801315567E0	2.111666054E-1	1.022692394E1	2.153540403E-2
4.809718588E0	4.498506486E-1	1.031904793E1	-2.392822644E-3
4.818121609E0	5.509474277E-1	1.035434151E1	-1.172483116E-1
4.826524630E0	5.431707501E-1	1.031486034E1	-1.962114573E-1
4.834927651E0	6.077769399E-1	1.032084274E1	-3.128615618E-1
4.843330672E0	6.167500615E-1	1.042433167E1	-3.481557071E-1
4.851733692E0	4.378865361E-1	1.064746284E1	-4.193421602E-1
4.860136713E0	1.238285750E-1	1.107218838E1	-5.545366406E-1
4.868539734E0	-3.164508045E-1	1.167637634E1	-3.499503136E-1
4.876942755E0	-6.933203340E-1	1.249472141E1	-6.179464459E-1
4.885345776E0	-8.009973764E-1	1.363370514E1	-1.106082320E0
4.893748797E0	-1.165304661E0	1.395195103E1	-1.457827210E0
4.902151817E0	-1.680359721E0	1.325862980E1	-1.668395638E0
4.910554838E0	-1.609771490E0	1.219502068E1	-1.913061738E0
4.918957859E0	-8.679963946E-1	1.137787151E1	-2.184647083E0
4.927360880E0	4.307080805E-2	1.086520958E1	-2.211566210E0
4.935763901E0	8.494520187E-1	1.051765156E1	-2.072782516E0
4.944166922E0	1.488933921E0	1.024008465E1	-1.710269928E0
4.952569942E0	1.944766641E0	9.896714211E0	-1.340578914E0
4.960972963E0	2.297708035E0	9.614959717E0	-8.793623447E-1
4.969375984E0	2.787638426E0	9.433703423E0	-4.773681164E-1
4.977779005E0	3.387040377E0	9.322437286E0	-1.537388563E-1
4.986182026E0	3.961916208E0	9.279964447E0	5.401797295E-1
4.994585047E0	4.305285931E0	9.149555206E0	1.275972724E0
5.002988067E0	4.510470867E0	8.979664803E0	1.477568030E0
5.011391088E0	4.466801643E0	8.875576973E0	1.687538147E0
5.019794109E0	4.141975880E0	8.872586250E0	1.765903115E0
5.028197130E0	3.477369547E0	8.938986778E0	1.633101463E0
5.036600151E0	2.519043922E0	8.952147484E0	1.604387641E0
5.045003172E0	1.386640668E0	8.817551613E0	1.445863128E0
5.053406192E0	1.627119333E-1	8.553144455E0	1.028315544E0
5.061809213E0	-9.194421172E-1	8.283951759E0	5.383850932E-1
5.070212234E0	-1.632503271E0	8.078767776E0	-1.112662554E-1
5.078615255E0	-1.911865234E0	7.974081516E0	-3.888336718E-1
5.087018276E0	-1.744965911E0	7.963313580E0	-3.308077157E-1
5.095421297E0	-1.388435364E0	7.976474285E0	-2.835494876E-1
5.103824317E0	-1.036092162E0	8.060222626E0	-3.535395563E-1
5.112227338E0	-8.333004713E-1	8.222934723E0	-4.504488707E-1
5.120630359E0	-6.957131624E-1	8.474181175E0	-6.329016089E-1
5.129033380E0	-6.149554253E-1	8.766105652E0	-7.094719410E-1
5.137436401E0	-5.335994363E-1	9.002995491E0	-6.424728632E-1
5.145839422E0	-4.540380836E-1	9.156135559E0	-5.341976285E-1
5.154242442E0	-3.379862010E-1	9.266803741E0	-5.090730190E-1
5.162645463E0	-3.032902777E-1	9.369695663E0	-5.659025311E-1
5.171048484E0	-3.852444589E-1	9.383454323E0	-5.599204898E-1
5.179451505E0	-5.383850932E-1	9.345767021E0	-5.916253924E-1
5.187854526E0	-6.658028960E-1	9.242277145E0	-6.077769399E-1
5.196257547E0	-7.016952634E-1	9.172286987E0	-6.358926296E-1
5.204660567E0	-6.454638839E-1	9.191430092E0	-6.783652306E-1
5.213063588E0	-5.611169338E-1	9.319445610E0	-7.369893789E-1
5.221466609E0	-5.449653864E-1	9.550951958E0	-7.363911867E-1
5.229869630E0	-4.833501875E-1	9.797411919E0	-6.999006271E-1
5.238272651E0	-3.559323549E-1	1.005165005E1	-7.154539824E-1
5.246675672E0	-2.225325108E-1	1.032263660E1	-5.958128572E-1
5.255078692E0	-1.214357466E-1	1.046919727E1	-3.535395563E-1
5.263481713E0	1.333998591E-1	1.056132126E1	-2.691925466E-1
5.271884734E0	6.083751321E-1	1.065703392E1	-9.631111473E-2
5.280287755E0	1.386640668E0	1.092981529E1	-3.152543902E-1
5.288690776E0	2.090728760E0	1.126660538E1	-1.962114573E-1
5.297093797E0	2.285743713E0	1.135992527E1	-6.281159073E-2
5.305496817E0	1.973480463E0	1.104407310E1	-1.830509305E-1
5.313899838E0	1.451845169E0	1.066959572E1	-4.546363056E-1
5.322302859E0	1.052243710E0	1.040518951E1	-5.162515044E-1
5.330705880E0	9.918249846E-1	1.015214825E1	-5.509474277E-1
5.339108901E0	1.149751306E0	9.967302322E0	-6.293123364E-1
5.347511922E0	1.342971683E0	9.901499748E0	-7.148557901E-1
5.355914942E0	1.533799291E0	1.000857925E1	-9.846464992E-1
5.364317963E0	1.721037745E0	1.025803089E1	-1.214955688E0
5.372720984E0	1.863410592E0	1.042971611E1	-1.220339537E0
5.381124005E0	1.980060697E0	1.040040398E1	-1.144965649E0
5.389527026E0	2.011765718E0	1.028375340E1	-1.109073281E0
5.397930047E0	1.891526341E0	1.018265629E1	-1.098903775E0
5.406333067E0	1.641476393E0	1.008814049E1	-1.143769264E0
5.414736088E0	1.355534077E0	1.001994514E1	-1.140778184E0
5.423139109E0	1.162313581E0	9.990034103E0	-1.116850019E0
5.431542130E0	1.018146038E0	9.998409271E0	-1.075573802E0
5.439945151E0	8.566305041E-1	9.962516785E0	-8.841479421E-1
5.448348172E0	7.471588850E-1	9.900901794E0	-7.286145091E-1
5.456751192E0	8.632107973E-1	9.872187614E0	-7.495517135E-1
5.465154213E0	1.129412293E0	9.856635094E0	-9.050851464E-1
5.473557234E0	1.223330617E0	9.886545181E0	-9.930213690E-1
5.481960255E0	1.025922656E0	9.883553505E0	-8.009973764E-1
5.490363276E0	7.950153351E-1	9.879366875E0	-7.794619799E-1
5.498766297E0	5.934200287E-1	9.915857315E0	-9.008977413E-1
5.507169317E0	4.773681164E-1	1.002114105E1	-9.433703423E-1
5.515572338E0	4.737788737E-1	1.004267693E1	-9.559326172E-1
5.523975359E0	4.055834413E-1	9.986445427E0	-1.079761267E0
5.532378380E0	2.470589429E-1	1.002592659E1	-1.324427366E0
5.540781401E0	2.799602449E-1	1.017188931E1	-1.509871125E0
5.549184422E0	4.001995921E-1	1.015813065E1	-1.248455167E0
5.557587442E0	5.808576941E-1	9.961320877E0	-1.059422255E0
5.565990463E0	8.249256015E-1	9.729216576E0	-9.876375198E-1
5.574393484E0	1.000798106E0	9.577870369E0	-1.004985452E0
5.582796505E0	1.008574724E0	9.553942680E0	-1.107876897E0
5.591199526E0	8.470591903E-1	9.629316330E0	-1.291526079E0
5.599602547E0	5.724828243E-1	9.740582466E0	-1.371087432E0
5.608005567E0	3.056831062E-1	9.826724052E0	-1.179661512E0
5.616408588E0	1.686939895E-1	9.841081619E0	-6.065805554E-1
5.624811609E0	4.468596280E-1	9.814162254E0	-3.631108403E-1
5.633214630E0	1.205982566E0	9.738189697E0	-4.809573591E-1
5.641617651E0	1.987239242E0	9.722636223E0	-2.853440940E-1
5.650020672E0	2.356332064E0	9.737591743E0	-1.268195957E-1
5.658423692E0	1.932204247E0	9.741779327E0	-7.716853172E-2
5.666826713E0	9.038887620E-1	9.584450722E0	1.938186288E-1
5.675229734E0	-2.237289101E-1	9.275178909E0	3.104687333E-1
5.683632755E0	-1.010967612E0	9.024530411E0	4.558327198E-1
5.692035776E0	-1.127019525E0	9.093922615E0	5.246263742E-1
5.700438797E0	-6.658028960E-1	9.376873970E0	5.694918036E-1
5.708841817E0	2.530409992E-1	9.636494637E0	7.393822074E-1
5.717244838E0	1.718046665E0	1.001456070E1	5.102694035E-1
5.725647859E0	3.515654564E0	1.065224838E1	5.623133108E-2
5.734050880E0	5.121238708E0	1.137308598E1	1.076770201E-1
5.742453901E0	5.667998791E0	1.190429306E1	3.236292601E-1
5.750856922E0	4.054039955E0	1.197547913E1	1.680359721E0
5.759259942E0	7.447660565E-1	1.184148121E1	3.064009428E0
5.767662963E0	-3.487539053E0	1.170329571E1	4.595416069E0
5.776065984E0	-7.621140003E0	1.147358418E1	4.175475597E0
5.784469005E0	-1.048654556E1	1.135035419E1	1.450050473E0
5.792872026E0	-1.028136063E1	1.114038372E1	-2.032702923E0
5.801275047E0	-6.893123627E0	1.105962658E1	-4.869992256E0
5.809678067E0	-2.951546669E0	1.099501991E1	-4.697709084E0
5.818081088E0	1.794616925E-3	1.034716320E1	-2.121835470E0
5.826484109E0	2.035095692E0	9.287740707E0	6.406782866E-1
5.834887130E0	3.074178934E0	8.380263329E0	1.977667928E0
5.843290151E0	2.609373093E0	8.516654015E0	1.224527001E0
5.851693172E0	1.403390527E0	9.349356651E0	3.062812984E-1
5.860096192E0	7.896314561E-2	1.003430176E1	-3.290131316E-2
5.868499213E0	-1.223330617E0	1.026221848E1	-3.284149170E-1
5.876902234E0	-2.306680918E0	1.005823040E1	-4.301098585E-1
5.885305255E0	-2.876770973E0	9.719645500E0	-4.085744619E-1
5.893708276E0	-2.964707375E0	9.524032593E0	-2.524427772E-1
5.902111297E0	-2.760719061E0	9.598209381E0	7.417750359E-2
5.910514317E0	-2.511267424E0	9.708279610E0	6.119644046E-1
5.918917338E0	-2.316252232E0	9.832706451E0	9.906286001E-1
5.927320359E0	-2.213959217E0	9.837491989E0	1.355534077E0
5.935723380E0	-2.188236237E0	9.703494072E0	1.232901812E0
5.944126401E0	-2.111067772E0	9.665208817E0	9.074779749E-1
5.952529422E0	-1.916052699E0	9.800403595E0	9.517452121E-1
5.960932442E0	-1.657627940E0	9.887741089E0	1.067797065E0
5.969335463E0	-1.536192179E0	9.792028427E0	1.457229018E0
5.977738484E0	-1.469791293E0	9.589835167E0	1.512263894E0
5.986141505E0	-1.488933921E0	9.466604233E0	1.482353687E0
5.994544526E0	-1.534995675E0	9.502496719E0	1.597807288E0
6.002947547E0	-1.472782373E0	9.626923561E0	1.450648785E0
6.011350567E0	-1.320239902E0	9.754341125E0	1.200598717E0
6.019753588E0	-1.061815023E0	9.795019150E0	1.176072359E0
6.028156609E0	-7.734799385E-1	9.717850685E0	1.028315544E0
6.036559630E0	-4.773681164E-1	9.592227936E0	8.626125455E-1
6.044962651E0	-3.373879790E-1	9.533603668E0	7.046862841E-1
6.053365672E0	-6.221339107E-1	9.604789734E0	8.177471161E-1
6.061768692E0	-1.015753269E0	9.795019150E0	5.551348329E-1
6.070171713E0	-1.231705427E0	1.000080204E1	4.175475538E-1
6.078574734E0	-1.170688510E0	1.006899738E1	3.050848842E-1
6.086977755E0	-8.901300430E-1	9.958928108E0	2.638086975E-1
6.095380776E0	-6.556333899E-1	9.818349838E0	4.139583111E-1
6.103783797E0	-5.772684813E-1	9.739984512E0	5.964110494E-1
6.112186817E0	-6.538388133E-1	9.698110580E0	7.411768436E-1
6.120589838E0	-8.733802438E-1	9.726823807E0	7.561319470E-1
6.128992859E0	-1.155135155E0	9.818349838E0	8.608179688E-1
6.137395880E0	-1.299900889E0	9.817750931E0	1.049252748E0
6.145798901E0	-1.174875975E0	9.759725571E0	1.058225870E0
6.154201922E0	-1.004985452E0	9.680762291E0	1.182652593E0
6.162604942E0	-9.978070259E-1	9.579067230E0	1.105484009E0
6.171007963E0	-1.135394335E0	9.591629982E0	9.062815905E-1
6.179410984E0	-1.264008522E0	9.738189697E0	9.403793216E-1
6.187814005E0	-1.258624673E0	9.897313118E0	8.321040869E-1
6.196217026E0	-1.159322619E0	9.882357597E0	7.728816867E-1
6.204620047E0	-9.912267923E-1	9.689735413E0	7.405785918E-1
6.213023067E0	-8.147560954E-1	9.467801094E0	8.033902049E-1
6.221426088E0	-6.460621357E-1	9.407382011E0	9.008977413E-1
6.229829109E0	-6.209374666E-1	9.485747337E0	1.081555843E0
6.238232130E0	-6.029912829E-1	9.590433121E0	1.123430252E0
6.246635151E0	-4.636093974E-1	9.734002113E0	1.057029366E0
6.255038172E0	-2.548356056E-1	9.863813400E0	9.661021233E-1
6.263441192E0	-1.375873089E-1	9.844072342E0	8.267202377E-1
6.271844213E0	-5.623133108E-2	9.689137459E0	7.226324677E-1
6.280247234E0	5.084748194E-2	9.597611427E0	6.394818425E-1
6.288650255E0	1.914258115E-2	9.537791252E0	7.758727670E-1
6.297053276E0	-2.991028316E-2	9.614959717E0	8.548358679E-1
6.305456297E0	-1.076770201E-2	9.795618057E0	9.433703423E-1
6.313859317E0	-1.196411322E-3	9.957133293E0	1.022333503E0
6.322262338E0	-8.374879137E-3	9.920642853E0	9.445667267E-1
6.330665359E0	5.204389244E-2	9.769296646E0	8.584251404E-1
6.339068380E0	2.099701911E-1	9.623334885E0	8.051848412E-1
6.347471401E0	3.637090325E-1	9.556933403E0	9.206385016E-1
6.355874422E0	5.318048596E-1	9.508479118E0	1.010967612E0
6.364277442E0	6.903293133E-1	9.510273933E0	8.321040869E-1
6.372680463E0	6.484549642E-1	9.601201057E0	7.094719410E-1
6.381083484E0	4.755735099E-1	9.821340561E0	4.809573591E-1
6.389486505E0	3.320041299E-1	1.005344391E1	3.780659735E-1
6.397889526E0	3.098705411E-1	1.013898754E1	2.572284341E-1
6.406292547E0	4.498506486E-1	1.005882835E1	3.523431420E-1
6.414695567E0	6.538388133E-1	9.939785004E0	4.414757788E-1
6.423098588E0	7.800601721E-1	9.923633575E0	5.736792088E-1
6.431501609E0	7.800601721E-1	9.960722923E0	6.071787477E-1
6.439904630E0	6.526423693E-1	9.988838196E0	5.078766346E-1
6.448307651E0	5.162515044E-1	1.003609657E1	4.199403822E-1
6.456710672E0	4.719842672E-1	1.011864853E1	5.216353536E-1
6.465113692E0	5.533402562E-1	1.009472084E1	6.095715761E-1
6.473516713E0	8.003991842E-1	9.964311600E0	7.142575383E-1
6.481919734E0	1.039083242E0	9.809974670E0	7.962117195E-1
6.490322755E0	1.189831018E0	9.710672379E0	8.171489239E-1
6.498725776E0	1.250249863E0	9.735796928E0	7.674978375E-1
6.507128797E0	1.125823021E0	9.841679573E0	6.939185858E-1
6.515531817E0	9.152546525E-1	9.915258408E0	7.082754970E-1
6.523934838E0	9.529415965E-1	9.996614456E0	7.280163169E-1
6.532337859E0	1.115055323E0	1.015454102E1	7.513462901E-1
6.540740880E0	1.042074203E0	1.026221848E1	6.352944374E-1
6.549143901E0	8.189435601E-1	1.028794098E1	3.846462369E-1
6.557546922E0	5.437689424E-1	1.034776115E1	2.201396823E-1
6.565949942E0	1.208375469E-1	1.055474091E1	-4.905286431E-2
6.574352963E0	-3.188436031E-1	1.075753212E1	-2.261217386E-1
6.582755984E0	-3.828516304E-1	1.106800079E1	-5.156532526E-1
6.591159005E0	-1.770688742E-1	1.166321564E1	-9.086744189E-1
6.599562026E0	-2.691925466E-1	1.215194988E1	-1.479362607E0
6.607965047E0	-5.545366406E-1	1.223988628E1	-1.507478237E0
6.616368067E0	-6.945167780E-1	1.182114220E1	-1.737787485E0
6.624771088E0	-8.303094506E-1	1.091067314E1	-2.053640127E0
6.633174109E0	-7.692924738E-1	1.014018440E1	-2.178066730E0
6.641577130E0	-2.279163599E-1	9.939187050E0	-1.983051777E0
6.649980151E0	4.947160780E-1	1.027238750E1	-1.418345571E0
6.658383172E0	9.894321561E-1	1.057149029E1	-9.768698215E-1
6.666786192E0	1.378265858E0	1.080838013E1	-6.903293133E-1
6.675189213E0	1.770090580E0	1.093101215E1	-3.702892959E-1
6.683592234E0	2.189432621E0	1.080838013E1	1.268195957E-1
6.691995255E0	2.624926329E0	1.044945621E1	6.915257573E-1
6.700398276E0	3.115455151E0	1.007139015E1	1.085743308E0
6.708801297E0	3.650250912E0	9.990034103E0	1.256231904E0
6.717204317E0	4.260420799E0	1.015813065E1	1.399801254E0
6.725607338E0	4.920839787E0	1.055653572E1	1.645065546E0
6.734010359E0	4.929214478E0	1.070429230E1	2.645265341E0
6.742413380E0	4.234697819E0	1.032622623E1	2.819343328E0
6.750816401E0	3.079562664E0	9.766305923E0	2.413161755E0
6.759219422E0	1.898704767E0	9.339784622E0	2.024926186E0
6.767622442E0	1.016949654E0	9.090931892E0	1.726421595E0
6.776025463E0	4.815555513E-1	8.968298912E0	1.514058471E0
6.784428484E0	1.417747438E-1	8.736793518E0	1.072582722E0
6.792831505E0	-3.649054468E-2	8.562117577E0	2.644068897E-1
6.801234526E0	-2.691925466E-1	8.514859200E0	-3.655036688E-1
6.809637547E0	-5.832505226E-1	8.472386360E0	-3.463610709E-1
6.818040567E0	-8.374879360E-1	8.333004951E0	-7.357929647E-2
6.826443588E0	-9.702895880E-1	8.158926964E0	1.980060786E-1
6.834846609E0	-2.823530734E-1	8.839086533E0	-1.262213945E0
6.843249630E0	1.025922656E0	9.431310654E0	-1.107876897E0
6.851652651E0	2.076970100E0	8.947361946E0	8.141579032E-1
6.860055672E0	2.312064886E0	7.835297585E0	6.723831892E-1
6.868458692E0	1.548156261E0	7.485347271E0	-1.387837082E-1
6.876861713E0	-2.362912297E-1	7.811369419E0	6.520441920E-2
6.885264734E0	-2.364706993E0	7.577471256E0	7.118647099E-1
6.893667755E0	-3.563511133E0	7.031907558E0	-4.624129832E-1
6.902070776E0	-3.798007727E0	6.760920525E0	-1.541576028E0
6.910473797E0	-3.738785267E0	7.021139622E0	-1.847857237E0
6.918876817E0	-3.366701365E0	7.694121361E0	-2.139781713E0
6.927279838E0	-2.573480844E0	8.628518105E0	-1.958525300E0
6.935682859E0	-1.585245013E0	9.632308006E0	-1.448255897E0
6.944085880E0	-4.354937077E-1	1.047517967E1	-1.033101201E0
6.952488901E0	6.951149702E-1	1.085025406E1	-9.667003751E-1
6.960891922E0	1.507478237E0	1.084247780E1	-9.242277741E-1
6.969294942E0	1.960918188E0	1.070369434E1	-9.816554785E-1
6.977697963E0	2.065604210E0	1.059302616E1	-1.010967612E0
6.986100984E0	1.785045743E0	1.051107121E1	-8.751748800E-1
6.994504005E0	1.293918848E0	1.030947590E1	-8.398807645E-1
7.002907026E0	7.328019142E-1	1.011206818E1	-1.016351461E0
7.011310047E0	2.644068897E-1	1.011206818E1	-1.171884894E0
7.019713067E0	3.290131316E-2	1.028674412E1	-1.181456208E0
7.028116088E0	7.058826834E-2	1.050808048E1	-1.019940615E0
7.036519109E0	3.116651475E-1	1.064746284E1	-7.974081635E-1
7.044922130E0	7.322037220E-1	1.070189953E1	-7.722834945E-1
7.053325151E0	1.200000525E0	1.071924686E1	-7.543373108E-1
7.061728172E0	1.508674622E0	1.077368355E1	-7.920243144E-1
7.070131192E0	1.499103427E0	1.072642612E1	-7.423732281E-1
7.078534213E0	1.223928809E0	1.065583706E1	-9.625129104E-1
7.086937234E0	8.009973764E-1	1.063430214E1	-1.163509965E0
7.095340255E0	3.690928817E-1	1.072463131E1	-1.361516118E0
7.103743276E0	-1.686939895E-1	1.087837029E1	-1.207179070E0
7.112146297E0	-6.191428304E-1	1.091186905E1	-1.161117196E0
7.120549317E0	-7.842476368E-1	1.088853931E1	-1.094118118E0
7.128952338E0	-5.892325640E-1	1.081795120E1	-7.818548083E-1
7.137355359E0	-8.255238086E-2	1.066062355E1	-3.403790295E-1
7.145758380E0	6.693921089E-1	1.041117096E1	-4.833501875E-1
7.154161401E0	1.377069473E0	1.027777100E1	-7.465606928E-1
7.162564422E0	2.002194405E0	1.029511929E1	-8.021938205E-1
7.170967442E0	2.942573547E0	1.056251717E1	-1.512263894E0
7.179370463E0	3.647259951E0	1.105244732E1	-1.646261930E0
7.187773484E0	3.673580885E0	1.152981567E1	-9.690931439E-1
7.196176505E0	3.040081263E0	1.173380375E1	-6.448656917E-1
7.204579526E0	1.899901152E0	1.140897846E1	-3.601198196E-1
7.212982547E0	6.873382926E-1	1.091306591E1	-1.830509305E-1
7.221385567E0	-1.465603858E-1	1.053918743E1	-7.716853172E-2
7.229788588E0	-3.684946895E-1	1.020658493E1	-2.219343036E-1
7.238191609E0	-2.045863420E-1	1.013838959E1	-2.512463629E-1
7.246594630E0	1.627119333E-1	1.025623608E1	-7.657032460E-2
7.254997651E0	6.801598072E-1	1.028734303E1	2.075773627E-1
7.263400672E0	1.414756417E0	1.011505985E1	3.415754437E-1
7.271803692E0	2.318645239E0	9.807581902E0	1.543370634E-1
7.280206713E0	3.239283562E0	9.564710617E0	-4.540380836E-1
7.288609734E0	3.683152199E0	9.415159225E0	-7.393822074E-1
7.297012755E0	3.422334671E0	9.360123634E0	-6.161518097E-1
7.305415776E0	2.705684185E0	9.207581520E0	-6.442674994E-1
7.313818797E0	1.878365755E0	8.985049248E0	-8.997012973E-1
7.322221817E0	1.311864972E0	8.845068932E0	-9.134600163E-1
7.330624838E0	1.210170031E0	8.810971260E0	-6.777670383E-1
7.339027859E0	1.770090580E0	8.813364029E0	-6.287141442E-1
7.347430880E0	2.707478762E0	8.958727837E0	-9.206385016E-1
7.355833901E0	3.561716557E0	9.311669350E0	-1.149751306E0
7.364236922E0	4.153940201E0	9.662218094E0	-7.304090858E-1
7.372639942E0	4.865206718E0	1.024008465E1	-2.416750938E-1
7.381042963E0	6.005386829E0	1.129711437E1	7.405785918E-1
7.389445984E0	6.557530403E0	1.250249863E1	1.619940877E0
7.397849005E0	4.198805332E0	1.349970722E1	3.829114437E0
7.406252026E0	-9.451649189E-1	1.363490200E1	6.259026051E0
7.414655047E0	-6.110671043E0	1.284407330E1	6.218945980E0
7.423058067E0	-9.376275063E0	1.161595726E1	5.029115200E0
7.431461088E0	-8.925228119E0	1.060439205E1	3.177070379E0
7.439864109E0	-5.293521881E0	1.013659477E1	6.843472719E-1
7.448267130E0	-2.576471806E0	1.000558758E1	-1.043270707E0
7.456670151E0	-2.273779631E0	9.693922997E0	-1.610369682E0
7.465073172E0	-2.776272535E0	9.044869423E0	-2.140379906E0
7.473476192E0	-1.746760488E0	8.710473061E0	-2.137388945E0
7.481879213E0	5.353940725E-1	9.144171715E0	-1.547558069E0
7.490282234E0	2.259422779E0	1.017248726E1	-9.248259664E-1
7.498685255E0	2.067996979E0	1.100877857E1	-4.815555513E-1
7.507088276E0	7.704889178E-1	1.128036404E1	-9.272187948E-2
7.515491297E0	-4.606183469E-1	1.111406326E1	8.195417374E-2
7.523894317E0	-7.142575383E-1	1.081795120E1	3.349951655E-2
7.532297338E0	-2.859423161E-1	1.050748253E1	-9.990034252E-2
7.540700359E0	-2.231307179E-1	1.017846966E1	9.690931439E-2
7.549103380E0	-8.620143533E-1	9.798608780E0	7.926225066E-1
7.557506401E0	-1.640878081E0	9.378668785E0	1.369292736E0
7.565909422E0	-2.193022013E0	9.123234749E0	1.333998680E0
7.574312442E0	-2.471187592E0	9.158528328E0	1.186241865E0
7.582715463E0	-2.334198475E0	9.354740143E0	1.227517962E0
7.591118484E0	-1.549950838E0	9.527621269E0	1.195214868E0
7.599521505E0	-4.145565331E-1	9.692128181E0	9.972088337E-1
7.607924526E0	4.863412082E-1	9.984052658E0	8.087740541E-1
7.616327547E0	9.487541914E-1	1.022512913E1	9.529415965E-1
7.624730567E0	1.010369420E0	1.025444126E1	1.096511006E0
7.633133588E0	7.088736892E-1	1.015394306E1	9.433703423E-1
7.641536609E0	1.196411345E-2	1.003310490E1	7.573283911E-1
7.649939630E0	-8.273184299E-1	9.838089943E0	7.022934556E-1
7.658342651E0	-1.432104349E0	9.627521515E0	7.244270444E-1
7.666745672E0	-1.570289850E0	9.518648148E0	4.923232496E-1
7.675148692E0	-1.357328653E0	9.680762291E0	1.304088384E-1
7.683551713E0	-1.116251707E0	9.872786522E0	4.199403822E-1
7.691954734E0	-8.799605370E-1	9.899705887E0	5.904290080E-1
7.700357755E0	-6.394818425E-1	9.854242325E0	5.724828243E-1
7.708760776E0	-5.108676553E-1	9.845269203E0	6.723831892E-1
7.717163797E0	-5.252245665E-1	9.805189133E0	8.632107973E-1
7.725566817E0	-5.700899959E-1	9.722038269E0	8.297112584E-1
7.733969838E0	-5.222335458E-1	9.702896118E0	6.789634228E-1
7.742372859E0	-5.551348329E-1	9.748957634E0	5.670989752E-1
7.750775880E0	-7.196413875E-1	9.779465675E0	5.455635786E-1
7.759178901E0	-9.230313301E-1	9.772287369E0	7.130611539E-1
7.767581922E0	-1.056431174E0	9.729815483E0	8.099704385E-1
7.775984942E0	-1.059422255E0	9.693324089E0	6.927221417E-1
7.784387963E0	-9.948160052E-1	9.658030510E0	6.472585201E-1
7.792790984E0	-8.835497499E-1	9.650852203E0	6.927221417E-1
7.801194005E0	-7.196413875E-1	9.644271851E0	8.249256015E-1
7.809597026E0	-6.263213158E-1	9.635298729E0	8.793623447E-1
7.818000047E0	-6.675975323E-1	9.632308006E0	8.811569214E-1
7.826403067E0	-8.111668825E-1	9.635298729E0	8.231309652E-1
7.834806088E0	-9.864411354E-1	9.668199539E0	8.703892231E-1
7.843209109E0	-1.042074203E0	9.674181938E0	8.673982024E-1
7.851612130E0	-1.010967612E0	9.658030510E0	8.829515576E-1
7.860015151E0	-8.727820516E-1	9.622735977E0	8.775677085E-1
7.868418172E0	-7.399803996E-1	9.607182503E0	7.196413875E-1
7.876821192E0	-7.950153351E-1	9.653842926E0	7.076773047E-1
7.885224213E0	-1.031306505E0	9.690333366E0	8.536394835E-1
7.893627234E0	-1.172483087E0	9.702896118E0	7.776673436E-1
7.902030255E0	-1.204187989E0	9.760921478E0	9.170492887E-1
7.910433276E0	-1.121037364E0	9.723833084E0	1.046859860E0
7.918836297E0	-8.853443861E-1	9.624530792E0	1.134197950E0
7.927239317E0	-5.491527915E-1	9.559925079E0	1.131206870E0
7.935642338E0	-2.374876440E-1	9.555737495E0	1.095314622E0
7.944045359E0	-1.052841991E-1	9.600004196E0	1.187438250E0
7.952448380E0	-2.081755698E-1	9.644869804E0	1.238285661E0
7.960851401E0	-3.122633696E-1	9.716654778E0	1.137787223E0
7.969254422E0	-4.193421602E-1	9.756733894E0	9.906286001E-1
7.977657442E0	-5.461617708E-1	9.763913155E0	8.452646136E-1
7.986060463E0	-5.892325640E-1	9.770493507E0	6.963114142E-1
7.994463484E0	-4.594219327E-1	9.808777809E0	6.305087805E-1
8.002866505E0	-2.321037948E-1	9.806385040E0	5.629115105E-1
8.011269526E0	-9.930214286E-2	9.770493507E0	6.041877270E-1
8.019672547E0	-1.190429255E-1	9.713065147E0	7.184450030E-1
8.028075567E0	-1.698904037E-1	9.739386559E0	6.813562512E-1
8.036478588E0	-2.901297510E-1	9.804591179E0	7.477570772E-1
8.044881609E0	-3.403790295E-1	9.793225288E0	7.627122402E-1
8.053284630E0	-2.733799815E-1	9.769296646E0	8.213363886E-1
8.061687651E0	-1.920240223E-1	9.723833084E0	9.457631707E-1
8.070090672E0	-1.722832322E-1	9.688538551E0	9.864411354E-1
8.078493692E0	-1.363908947E-1	9.668199539E0	1.073180914E0
8.086896713E0	-6.879365444E-2	9.726225853E0	1.025324464E0
8.095299734E0	-4.067798331E-2	9.792626381E0	8.811569214E-1
8.103702755E0	-7.896314561E-2	9.760921478E0	7.674978375E-1
8.112105776E0	-7.477571070E-2	9.732208252E0	7.046862841E-1
8.120508797E0	2.392822644E-3	9.739984512E0	4.360919297E-1
8.128911817E0	4.366901144E-2	9.781859398E0	1.118644550E-1
8.137314838E0	-9.690931439E-2	9.877572060E0	1.339980662E-1
8.145717859E0	-2.410768867E-1	9.973882675E0	1.842473447E-1
8.154120880E0	-1.758724600E-1	9.995418549E0	2.386840582E-1
8.162523901E0	1.974078640E-2	1.005344391E1	2.267199457E-1
8.170926922E0	8.614161611E-2	1.004985523E1	3.254238665E-1
8.179329942E0	9.631111473E-2	9.939187050E0	3.864408433E-1
8.187732963E0	1.639083475E-1	9.837491989E0	3.667000830E-1
8.196135984E0	2.279163599E-1	9.802796364E0	3.678964674E-1
8.204539005E0	3.230310678E-1	9.784252167E0	4.049852192E-1
8.212942026E0	4.432703853E-1	9.836296082E0	4.492524564E-1
8.221345047E0	5.306084156E-1	9.920642853E0	4.935196638E-1
8.229748067E0	4.779663086E-1	9.992427826E0	4.839483798E-1
8.238151088E0	3.026920557E-1	1.002114105E1	4.606183469E-1
8.246554109E0	1.250249892E-1	1.005942631E1	3.744767308E-1
8.254957130E0	1.178465188E-1	1.010070229E1	2.003988922E-1
8.263360151E0	2.398804724E-1	1.012582684E1	7.597211748E-2
8.271763172E0	4.043870270E-1	1.014138031E1	7.477571070E-2
8.280166192E0	5.222335458E-1	1.016231823E1	1.926222295E-1
8.288569213E0	5.653043389E-1	1.029631615E1	2.907279432E-1
8.296972234E0	5.018945336E-1	1.054875851E1	4.013960063E-1
8.305375255E0	3.661018610E-1	1.079521942E1	3.164508045E-1
8.313778276E0	1.896311939E-1	1.098425198E1	2.650051117E-1
8.322181297E0	4.785645381E-2	1.120917797E1	1.375873089E-1
8.330584317E0	-1.196411327E-1	1.140838051E1	2.069791555E-1
8.338987338E0	-5.264209956E-2	1.148853970E1	-3.529413417E-2
8.347390359E0	6.460621208E-2	1.138086224E1	-2.440679073E-1
8.355793380E0	2.685943544E-1	1.109252739E1	-5.407779217E-1
8.364196401E0	5.066801906E-1	1.085324574E1	-8.925228715E-1
8.372599422E0	6.777670383E-1	1.095314598E1	-1.100698471E0
8.381002442E0	7.393822074E-1	1.113081264E1	-1.182652593E0
8.389405463E0	7.968099117E-1	1.111406326E1	-1.271785259E0
8.397808484E0	9.667003751E-1	1.090170002E1	-1.423729420E0
8.406211505E0	9.840483069E-1	1.068036366E1	-1.449452281E0
8.414614526E0	6.634100676E-1	1.043629551E1	-1.249651670E0
8.423017547E0	2.907279432E-1	1.019462109E1	-1.111466169E0
8.431420567E0	1.357926875E-1	1.003071213E1	-1.001396298E0
8.439823588E0	2.279163599E-1	1.002772141E1	-8.249256015E-1
8.448226609E0	3.098705411E-1	1.012403297E1	-7.339983582E-1
8.456629630E0	2.596212626E-1	1.015513897E1	-6.257231236E-1
8.465032651E0	1.501496136E-1	1.011087227E1	-4.085744619E-1
8.473435672E0	2.183450609E-1	1.005763149E1	-1.339980662E-1
8.481838692E0	3.852444589E-1	1.006660461E1	2.105683982E-1
8.490241713E0	5.617151260E-1	1.014855862E1	5.108676553E-1
8.498644734E0	7.268198729E-1	1.032383347E1	6.963114142E-1
8.507047755E0	9.547362328E-1	1.052841949E1	9.858429432E-1
8.515450776E0	1.508076429E0	1.072463131E1	9.314061999E-1
8.523853797E0	2.030908108E0	1.084008503E1	1.533799291E0
8.532256817E0	2.364108801E0	1.067318535E1	1.869392633E0
8.540659838E0	2.461018085E0	1.028435135E1	1.506880045E0
8.549062859E0	2.335993052E0	9.972686768E0	1.118046403E0
8.557465880E0	2.120040894E0	9.844670296E0	8.590233326E-1
8.565868901E0	1.781456470E0	9.782457352E0	5.682953596E-1
8.574271922E0	1.209571838E0	9.574879646E0	3.409772217E-1
8.582674942E0	2.739782035E-1	9.071190834E0	8.913264424E-2
8.591077963E0	-7.692924738E-1	8.464012146E0	-5.060819983E-1
8.599480984E0	-1.667199135E0	7.998009682E0	-9.732806087E-1
8.607884005E0	-2.150549412E0	7.825726509E0	-1.026520967E0
8.616287026E0	-2.159522533E0	7.820342541E0	-9.696913958E-1
8.624690047E0	-1.872383714E0	7.875377655E0	-8.668000102E-1
8.633093067E0	-1.460219979E0	7.947162151E0	-8.099704385E-1
8.641496088E0	-1.097707391E0	8.116454124E0	-8.243274093E-1
8.649899109E0	-9.822536707E-1	8.342576027E0	-8.380861282E-1
8.658302130E0	-1.105484009E0	8.476573944E0	-8.638089895E-1
8.666705151E0	-1.265205026E0	8.472386360E0	-8.883354068E-1
8.675108172E0	-1.280160069E0	8.407182693E0	-8.327022791E-1
8.683511192E0	-1.144367456E0	8.361120224E0	-7.166503668E-1
8.691914213E0	-9.134600163E-1	8.464012146E0	-6.275177598E-1
8.700317234E0	-7.316055298E-1	8.651249886E0	-5.670989752E-1
8.708720255E0	-6.909275651E-1	8.880961418E0	-6.526423693E-1
8.717123276E0	-6.975077987E-1	9.125029564E0	-7.070791125E-1
8.725526297E0	-6.825526357E-1	9.316454887E0	-7.537391186E-1
8.733929317E0	-7.112665176E-1	9.504889488E0	-6.640082598E-1
8.742332338E0	-7.351947427E-1	9.628718376E0	-5.527420044E-1
8.750735359E0	-7.268198729E-1	9.712467194E0	-5.156532526E-1
8.759138380E0	-6.490531564E-1	9.841081619E0	-4.995017350E-1
8.767541401E0	-4.570291340E-1	1.007497978E1	-4.971089065E-1
8.775944422E0	-2.781656384E-1	1.037288570E1	-5.036891699E-1
8.784347442E0	-1.118644550E-1	1.064507008E1	-5.647061467E-1
8.792750463E0	1.435693540E-2	1.075813103E1	-6.119644046E-1
8.801153484E0	1.004985496E-1	1.075334454E1	-6.340979934E-1
8.809556505E0	2.536391914E-1	1.072463131E1	-6.933203340E-1
8.817959526E0	4.785645306E-1	1.079162979E1	-7.459624410E-1
8.826362547E0	6.873382926E-1	1.096331501E1	-7.752745152E-1
8.834765567E0	7.944171429E-1	1.112183952E1	-7.848458290E-1
8.843168588E0	7.770691514E-1	1.117388344E1	-7.345965505E-1
8.851571609E0	7.160521746E-1	1.110867882E1	-7.441678643E-1
8.859974630E0	6.436693072E-1	1.098245811E1	-7.232306600E-1
8.868377651E0	6.083751321E-1	1.087298584E1	-6.502495408E-1
8.876780672E0	6.221339107E-1	1.079581738E1	-6.538388133E-1
8.885183692E0	6.969096065E-1	1.076052380E1	-7.728816867E-1
8.893586713E0	7.555337548E-1	1.075932693E1	-9.044869542E-1
8.901989734E0	7.645068169E-1	1.074855900E1	-9.104689956E-1
8.910392755E0	7.322037220E-1	1.067557812E1	-7.926225066E-1
8.918795776E0	8.213363886E-1	1.047099209E1	-8.315058947E-1
8.927198797E0	9.421738982E-1	1.021496010E1	-9.092726111E-1
8.935601817E0	1.137188911E0	9.986445427E0	-1.076171994E0
8.944004838E0	1.258624673E0	9.876375198E0	-1.229312658E0
8.952407859E0	1.268794179E0	9.875777245E0	-1.165304661E0
8.960810880E0	1.180858016E0	9.919445992E0	-1.032503009E0
8.969213901E0	1.056431174E0	9.969695091E0	-1.012762189E0
8.977616922E0	9.134600163E-1	1.002173901E1	-1.083948612E0
8.986019942E0	7.668996453E-1	1.003011417E1	-1.076171994E0
8.994422963E0	6.329016089E-1	1.000080204E1	-1.073180914E0
9.002825984E0	6.161518097E-1	9.939187050E0	-1.078564763E0
9.011229005E0	6.526423693E-1	9.839286804E0	-1.050449133E0
9.019632026E0	6.975077987E-1	9.700503349E0	-8.961120844E-1
9.028035047E0	6.664010882E-1	9.631709099E0	-7.722834945E-1
9.036438067E0	5.389832854E-1	9.643074989E0	-5.246263742E-1
9.044841088E0	4.372883439E-1	9.604789734E0	-1.926222295E-1
9.053244109E0	4.941178858E-1	9.518648148E0	-1.872383654E-1
9.061647130E0	5.808576941E-1	9.498908043E0	-2.231307179E-1
9.070050151E0	5.431707501E-1	9.406784058E0	-8.614161611E-2
9.078453172E0	4.372883439E-1	9.273982048E0	-1.914258115E-2
9.086856192E0	4.139583111E-1	9.201599121E0	-3.026920557E-1
9.095259213E0	4.642075896E-1	9.250652313E0	-5.330012441E-1
9.103662234E0	6.556333899E-1	9.381061554E0	-4.761717021E-1
9.112065255E0	1.039681435E0	9.528220177E0	-5.012963414E-1
9.120468276E0	1.441675663E0	9.652647018E0	-4.965106845E-1
9.128871297E0	1.613958836E0	9.705288887E0	-4.019941986E-1
9.137274317E0	1.577468276E0	9.726225853E0	-3.469592929E-1
9.145677338E0	1.417149186E0	9.741181374E0	-3.326023519E-1
9.154080359E0	1.304686546E0	9.928419113E0	2.333002165E-2
9.162483380E0	1.599601984E0	1.007797050E1	3.505485058E-1
9.170886401E0	2.297708035E0	1.026042366E1	3.559323549E-1
9.179289422E0	3.180659533E0	1.062353420E1	1.196411322E-3
9.187692442E0	4.156930923E0	1.153460121E1	-1.692921966E-1
9.196095463E0	5.570491314E0	1.285484123E1	-1.366301775E0
9.204498484E0	5.636891842E0	1.435095406E1	-9.894321561E-1
9.212901505E0	2.539382935E0	1.440718555E1	2.437089920E0
9.221304526E0	-1.876571178E0	1.306720448E1	3.208775282E0
9.229707547E0	-5.900102615E0	1.138504982E1	2.405983210E0
9.238110567E0	-9.154341698E0	9.840482712E0	1.659422517E0
9.246513588E0	-1.004566765E1	8.999405861E0	2.410768867E-1
9.254916609E0	-8.318049431E0	8.722436905E0	-1.025922656E0
9.263319630E0	-5.258825779E0	8.645268440E0	-1.699502230E0
9.271722651E0	-2.599203587E0	8.653642654E0	-1.761117458E0
9.280125672E0	-4.905286431E-1	8.815158844E0	-1.069591761E0
9.288528692E0	1.336391449E0	9.102297783E0	2.829512656E-1
9.296931713E0	2.660818815E0	9.320044518E0	1.354935765E0
9.305334734E0	2.851646423E0	9.577272415E0	1.292722464E0
9.313737755E0	1.983649969E0	1.010847950E1	3.924229145E-1
9.322140776E0	3.511467278E-1	1.059003448E1	-3.547359705E-1
9.330543797E0	-1.573280931E0	1.064327526E1	-8.069794178E-1
9.338946817E0	-3.062214851E0	1.033101177E1	-1.691725612E0
9.347349838E0	-3.614358664E0	1.008096218E1	-2.594418049E0
9.355752859E0	-3.293720484E0	1.016530895E1	-3.020938635E0
9.364155880E0	-2.619542599E0	1.048355389E1	-1.976471543E0
9.372558901E0	-1.906481385E0	1.045663452E1	-2.877369225E-1
9.380961922E0	-1.359721422E0	1.004267693E1	8.967102766E-1
9.389364942E0	-1.262812138E0	9.489934921E0	1.262213945E0
9.397767963E0	-1.601396561E0	9.076574326E0	1.252642632E0
9.406170984E0	-1.922034740E0	8.983852386E0	1.468594909E0
9.414574005E0	-1.913061738E0	9.241679192E0	1.350150228E0
9.422977026E0	-1.453041553E0	9.712467194E0	1.344168067E0
9.431380047E0	-8.327022791E-1	1.007378292E1	1.281356573E0
9.439783067E0	-4.055834413E-1	1.003789139E1	1.224527001E0
9.448186088E0	-2.231307179E-1	9.748359680E0	1.030110121E0
9.456589109E0	-2.602194548E-1	9.582057953E0	8.338986635E-1
9.464992130E0	-5.796613097E-1	9.641879082E0	1.016949654E0
9.473395151E0	-9.421738982E-1	9.859625816E0	1.015154958E0
9.481798172E0	-1.158724308E0	1.006480980E1	7.615157962E-1
9.490201192E0	-1.095314622E0	1.009053326E1	5.048855543E-1
9.498604213E0	-8.536394835E-1	9.926624298E0	5.838487148E-1
9.507007234E0	-5.300102234E-1	9.684949875E0	8.327022791E-1
9.515410255E0	-2.338984162E-1	9.558728218E0	1.153340459E0
9.523813276E0	-9.332008660E-2	9.593423843E0	1.203589797E0
9.532216297E0	-1.920240223E-1	9.783653259E0	1.102493048E0
9.540619317E0	-4.289134443E-1	9.994820595E0	1.246062398E0
9.549022338E0	-5.491527915E-1	9.978668213E0	1.064806104E0
9.557425359E0	-5.521438122E-1	9.795618057E0	1.036690354E0
9.565828380E0	-4.432703853E-1	9.553942680E0	1.078564763E0
9.574231401E0	-2.889333367E-1	9.407382011E0	1.062413216E0
9.582634422E0	-1.651047617E-1	9.434301376E0	1.127019525E0
9.591037442E0	-2.147558331E-1	9.580862045E0	9.475577474E-1
9.599440463E0	-4.462614357E-1	9.742975235E0	6.771687865E-1
9.607843484E0	-7.423732281E-1	9.818349838E0	2.775674164E-1
9.616246505E0	-9.296116233E-1	9.799804688E0	4.546362907E-2
9.624649526E0	-1.004387259E0	9.751948357E0	1.920240223E-1
9.633052547E0	-1.054636598E0	9.726823807E0	4.079762697E-1
9.641455567E0	-1.059422255E0	9.792626381E0	4.103690982E-1
9.649858588E0	-1.039681435E0	9.808777809E0	5.018945336E-1
9.658261609E0	-9.852447510E-1	9.762716293E0	5.222335458E-1
9.666664630E0	-9.266205430E-1	9.689137459E0	7.136593461E-1
9.675067651E0	-8.494520187E-1	9.593423843E0	8.638089895E-1
9.683470672E0	-7.154539824E-1	9.537791252E0	7.692924738E-1
9.691873692E0	-7.268198729E-1	9.564710617E0	7.657032609E-1
9.700276713E0	-9.116654396E-1	9.607182503E0	6.646065116E-1
9.708679734E0	-9.936196208E-1	9.664610863E0	5.240281820E-1
9.717082755E0	-8.781659007E-1	9.735796928E0	5.419743061E-1
9.725485776E0	-6.855437160E-1	9.699904442E0	6.711867452E-1
9.733888797E0	-4.486542344E-1	9.655637741E0	7.848458290E-1
9.742291817E0	-2.410768867E-1	9.703494072E0	8.500502706E-1
9.750694838E0	-1.698904037E-1	9.777671814E0	9.320043921E-1
9.759097859E0	-3.212364316E-1	9.765707016E0	8.380861282E-1
9.767500880E0	-5.234299302E-1	9.802796364E0	6.789634228E-1
9.775903901E0	-6.436693072E-1	9.855438232E0	5.605186820E-1
9.784306922E0	-5.150550604E-1	9.806385040E0	5.760720372E-1
9.792709942E0	-1.501496136E-1	9.679565430E0	8.566305041E-1
9.801112963E0	2.141576260E-1	9.597013474E0	1.068993568E0
9.809515984E0	3.870390654E-1	9.613164902E0	1.097707391E0
9.817919005E0	2.350948304E-1	9.677771568E0	1.085743308E0
9.826322026E0	-2.991028363E-3	9.776474953E0	9.469595551E-1
9.834725047E0	-1.094716340E-1	9.896714211E0	7.597211599E-1
9.843128067E0	-7.537391037E-2	1.000498962E1	5.802595019E-1
9.851531088E0	4.905286431E-2	1.004267693E1	6.191428304E-1
9.859934109E0	3.427718580E-1	9.975677490E0	5.054838061E-1
9.868337130E0	6.502495408E-1	9.893723488E0	5.389832854E-1
9.876740151E0	7.674978375E-1	9.898509026E0	5.982056856E-1
9.885143172E0	6.167500615E-1	9.988838196E0	6.185446382E-1
9.893546192E0	4.109672904E-1	1.003968525E1	5.413761139E-1
9.901949213E0	2.865405083E-1	1.000977516E1	5.228317380E-1
9.910352234E0	2.877369225E-1	9.980463028E0	5.180460811E-1
9.918755255E0	3.900300860E-1	1.000139999E1	5.581258535E-1
9.927158276E0	5.294120312E-1	1.001994514E1	5.467599630E-1
9.935561297E0	6.119644046E-1	9.975677490E0	6.143572330E-1
9.943964317E0	6.406782866E-1	9.960722923E0	5.665007830E-1
9.952367338E0	5.778666735E-1	9.940981865E0	5.294120312E-1
9.960770359E0	5.389832854E-1	9.936196327E0	5.240281820E-1
9.969173380E0	5.766702294E-1	9.928419113E0	4.313062727E-1
9.977576401E0	6.843472719E-1	9.924830437E0	5.282155871E-1
9.985979422E0	7.740781307E-1	9.948758125E0	6.275177598E-1
9.994382442E0	7.962117195E-1	9.935597420E0	6.951149702E-1
1.000278546E1	7.651050687E-1	9.879964828E0	7.615157962E-1
1.001118848E1	8.554341197E-1	9.857233047E0	7.435696125E-1
1.001959151E1	9.439685345E-1	9.838688850E0	6.711867452E-1
1.002799453E1	9.062815905E-1	9.809376717E0	6.245267391E-1
1.003639755E1	8.404789567E-1	9.812965393E0	6.215356588E-1
1.004480057E1	8.805587292E-1	9.807581902E0	6.370890141E-1
1.005320359E1	1.055832982E0	9.776474953E0	4.839483798E-1
1.006160661E1	1.135992527E0	9.732806206E0	4.851447940E-1
1.007000963E1	1.126421213E0	9.691530228E0	5.162515044E-1
1.007841265E1	1.140179992E0	9.646066666E0	5.389832854E-1
1.008681567E1	1.348953724E0	9.680762291E0	4.462614357E-1
1.009521869E1	1.540977836E0	9.719047546E0	4.737788737E-1
1.010362171E1	1.634297848E0	9.729815483E0	5.365904570E-1
1.011202473E1	1.619940877E0	9.675976753E0	6.711867452E-1
1.012042776E1	1.610967875E0	9.624530792E0	7.136593461E-1
1.012883078E1	1.559522152E0	9.642477036E0	7.070791125E-1
1.013723380E1	1.391426325E0	9.738788605E0	7.423732281E-1
1.014563682E1	1.263410330E0	9.913464546E0	7.339983582E-1
1.015403984E1	1.226321578E0	1.003430176E1	7.710871100E-1
1.016244286E1	1.142572761E0	1.011505985E1	8.117650747E-1
1.017084588E1	1.041476011E0	1.027478027E1	6.478567123E-1
1.017924890E1	8.979067206E-1	1.060319519E1	4.582255483E-1
1.018765192E1	7.716853023E-1	1.106321526E1	1.824527234E-1
1.019605494E1	5.324030519E-1	1.156211948E1	-1.148554832E-1
1.020445796E1	2.691925466E-1	1.195095253E1	-6.831508875E-1
1.021286098E1	-4.965107143E-2	1.205384445E1	-1.178465128E0
1.022126400E1	-4.893322289E-1	1.184566879E1	-1.074377418E0
1.022966703E1	-1.141974568E0	1.133779144E1	-5.180460811E-1
1.023807005E1	-7.339983582E-1	1.123609734E1	-1.433898926E0
1.024647307E1	5.072783828E-1	1.187856960E1	-1.472782373E0
1.025487609E1	1.458425403E0	1.248395348E1	-9.595218897E-1
1.026327911E1	1.788634896E0	1.228714466E1	-9.601200819E-1
1.027168213E1	1.939382792E0	1.140538883E1	-9.349954724E-1
1.028008515E1	2.296511650E0	1.036750221E1	-1.001994491E0
1.028848817E1	2.816950560E0	9.587442398E0	-9.930213690E-1
1.029689119E1	3.309273720E0	9.049654961E0	-6.580262184E-1
1.030529421E1	3.631108284E0	8.693124771E0	1.304088384E-1
1.031369723E1	3.868596077E0	8.359924316E0	6.693921089E-1
1.032210026E1	4.115056515E0	8.055437088E0	8.476574421E-1
1.033050328E1	4.423730850E0	7.975277901E0	1.015154958E0
1.033890630E1	4.734797955E0	8.097909927E0	1.226321578E0
1.034730932E1	4.942375183E0	8.304290771E0	1.529611826E0
1.035571234E1	5.008177757E0	8.482556343E0	1.732403636E0
1.036411536E1	4.893322468E0	8.525627136E0	1.801795483E0
1.037251838E1	4.521238327E0	8.507082939E0	1.564906001E0
1.038092140E1	3.826721668E0	8.530412674E0	1.380060434E0
1.038932442E1	2.822932482E0	8.535796165E0	1.109073281E0
1.039772744E1	1.603789330E0	8.531010628E0	7.926225066E-1
1.040613046E1	3.816552162E-1	8.511270523E0	4.331009090E-1
1.041453348E1	-6.412764788E-1	8.495118141E0	-1.854437590E-1
1.042293651E1	-1.185643673E0	8.621937752E0	-8.572286963E-1
1.043133953E1	-1.128215909E0	8.989236832E0	-1.204187989E0
1.043974255E1	-5.832505226E-1	9.412766457E0	-9.152546525E-1
1.044814557E1	-2.153540403E-2	9.589237213E0	-3.966103494E-1
1.045654859E1	2.183450609E-1	9.421140671E0	-1.429711580E-1
1.046495161E1	1.627119333E-1	9.119645119E0	-9.750752151E-2
1.047335463E1	0.000000000E0	8.807980537E0	-1.022931710E-1
1.048175765E1	-5.144568533E-2	8.575876236E0	-2.213360965E-1
1.049016067E1	-3.409772366E-2	8.469993591E0	-2.416750938E-1
1.049856369E1	5.084748194E-2	8.391031265E0	-3.236292601E-1
1.050696671E1	5.742774159E-2	8.437690735E0	-3.750749528E-1
1.051536973E1	-1.483550072E-1	8.535796165E0	-3.409772217E-1
1.052377276E1	-4.259224236E-1	8.622536659E0	-3.182454109E-1
1.053217578E1	-6.634100676E-1	8.713463783E0	-2.793620527E-1
1.054057880E1	-7.112665176E-1	8.822337151E0	-3.601198196E-1
1.054898182E1	-6.592226624E-1	8.930612564E0	-4.199403822E-1
1.055738484E1	-6.669993401E-1	9.077172279E0	-4.755735099E-1
1.056578786E1	-7.292127013E-1	9.229715347E0	-4.839483798E-1
1.057419088E1	-6.394818425E-1	9.468399048E0	-6.370890141E-1
1.058259390E1	-3.314059377E-1	9.730413437E0	-6.448656917E-1
1.059099692E1	7.477571070E-2	9.994820595E0	-6.029912829E-1
1.059939994E1	4.073780477E-1	1.018923664E1	-6.323033571E-1
1.060780296E1	6.610172391E-1	1.027717304E1	-7.998009920E-1
1.061620598E1	7.860422134E-1	1.029272652E1	-8.721838593E-1
1.062460900E1	8.237292171E-1	1.022632599E1	-9.906286001E-1
1.063301203E1	7.686942816E-1	1.014796066E1	-1.157527924E0
1.064141505E1	6.502495408E-1	1.014915752E1	-1.293918848E0
1.064981807E1	5.318048596E-1	1.024427223E1	-1.384247899E0
1.065822109E1	5.724828243E-1	1.038066292E1	-1.482353687E0
1.066662411E1	7.710871100E-1	1.050867844E1	-1.537388563E0
1.067502713E1	1.018744230E0	1.064985561E1	-1.503290772E0
1.068343015E1	1.296909928E0	1.079342461E1	-1.442872047E0
1.069183317E1	1.422533035E0	1.086640549E1	-1.339382529E0
1.070023619E1	1.395015597E0	1.085264683E1	-1.152144074E0
1.070863921E1	1.328614831E0	1.086401272E1	-1.051645517E0
1.071704223E1	1.248455167E0	1.097527885E1	-1.033101201E0
1.072544526E1	1.117448211E0	1.111286640E1	-1.066600680E0
1.073384828E1	9.481559992E-1	1.114217854E1	-9.212366939E-1
1.074225130E1	7.692924738E-1	1.103210926E1	-6.293123364E-1
1.075065432E1	6.472585201E-1	1.085204887E1	-4.540380836E-1
1.075905734E1	6.681957245E-1	1.074796104E1	-5.347958803E-1
1.076746036E1	7.872386575E-1	1.074197865E1	-5.880361795E-1
1.077586338E1	9.475577474E-1	1.078863907E1	-5.970092416E-1
1.078426640E1	1.070788145E0	1.079880905E1	-5.294120312E-1
1.079266942E1	1.119840980E0	1.077009487E1	-4.995017350E-1
1.080107244E1	1.106680512E0	1.075095177E1	-4.426721931E-1
1.080947546E1	1.082154036E0	1.067677498E1	-3.038884699E-1
1.081787848E1	1.110269666E0	1.050449181E1	-2.877369225E-1
1.082628150E1	1.174277663E0	1.036092186E1	-3.595215976E-1
1.083468453E1	1.223330617E0	1.026221848E1	-3.708875179E-1
1.084308755E1	1.367498159E0	1.022991467E1	-5.718846321E-1
1.085149057E1	1.467996716E0	1.027597713E1	-6.382854581E-1
1.085989359E1	1.458425403E0	1.032682419E1	-5.593222976E-1
1.086829661E1	1.359721422E0	1.027896786E1	-5.126622319E-1
1.087669963E1	1.241874933E0	1.016351414E1	-5.557330847E-1
1.088510265E1	1.117448211E0	1.000678444E1	-6.717849374E-1
1.089350567E1	9.828519225E-1	9.829715729E0	-6.891329288E-1
1.090190869E1	8.506484628E-1	9.659825325E0	-6.861419082E-1
1.091031171E1	7.483552694E-1	9.522237778E0	-7.483552694E-1
1.091871473E1	6.275177598E-1	9.439684868E0	-8.123632669E-1
1.092711776E1	4.660021961E-1	9.373284340E0	-8.943174481E-1
1.093552078E1	3.463610709E-1	9.276374817E0	-9.948160052E-1
1.094392380E1	3.373879790E-1	9.171689034E0	-1.135394335E0
1.095232682E1	3.792623878E-1	9.107681274E0	-1.170090318E0
1.096072984E1	4.450650215E-1	9.038289070E0	-1.155733347E0
1.096913286E1	5.102694035E-1	9.011968613E0	-1.075573802E0
1.097753588E1	5.234299302E-1	9.041878700E0	-7.686942816E-1
1.098593890E1	6.071787477E-1	9.107681274E0	-4.965106845E-1
1.099434192E1	8.578268886E-1	9.135198593E0	-4.372883439E-1
1.100274494E1	1.129412293E0	9.108877182E0	-4.007977843E-1
1.101114796E1	1.286142230E0	9.144171715E0	-2.757728100E-1
1.101955098E1	1.156929731E0	9.335597992E0	-6.640082598E-2
1.102795401E1	7.363911867E-1	9.445667267E0	3.122633696E-1
1.103635703E1	2.512463629E-1	9.342177391E0	3.523431420E-1
1.104476005E1	-3.116651475E-1	9.162715912E0	2.554338276E-1
1.105316307E1	-8.883354068E-1	8.916254997E0	2.273181528E-1
1.106156609E1	-1.161117196E0	8.705686569E0	3.768695518E-2
1.106996911E1	-1.127019525E0	8.592027664E0	-1.872383654E-1
1.107837213E1	-9.182456732E-1	8.651249886E0	-3.714857101E-1
1.108677515E1	-5.198407173E-1	8.775676727E0	-7.609176040E-1
1.109517817E1	-2.093719877E-2	8.944371223E0	-1.021137118E0
1.110358119E1	6.257231236E-1	9.152546883E0	-1.060618639E0
1.111198421E1	1.777867198E0	9.792626381E0	-1.259821177E0
1.112038723E1	3.722035646E0	1.116132164E1	-1.800599098E0
1.112879026E1	6.104688644E0	1.333520031E1	-2.250449657E0
1.113719328E1	7.438687325E0	1.608156204E1	-1.094716311E0
1.114559630E1	5.553143024E0	1.752144432E1	1.750947952E0
1.115399932E1	5.054838061E-1	1.665823364E1	4.360321045E0
1.116240234E1	-5.876173973E0	1.395972729E1	5.587240696E0
1.117080536E1	-1.084786129E1	1.083529949E1	4.110270977E0
1.117920838E1	-1.223689461E1	7.767700672E0	5.264210105E-1
1.118761140E1	-9.882357597E0	5.859424591E0	-3.273381472E0
1.119601442E1	-5.949155331E0	5.773283005E0	-3.712464333E0
1.120441744E1	-2.485544443E0	7.106084824E0	-1.536192179E0
1.121282046E1	2.422732860E-1	8.659027100E0	2.997010350E-1
1.122122348E1	2.630908489E0	9.981659889E0	1.342373490E0
1.122962650E1	4.089334011E0	1.066481018E1	1.109073281E0
1.123802953E1	4.192225456E0	1.078744221E1	6.017948985E-1
1.124643255E1	3.337389469E0	1.089033413E1	-4.618147612E-1
1.125483557E1	1.847259045E0	1.100638580E1	-1.608574986E0
1.126323859E1	1.489532143E-1	1.101655579E1	-2.545365095E0
1.127164161E1	-1.540379524E0	1.085085201E1	-2.281556368E0
1.128004463E1	-2.915056229E0	1.046381378E1	-9.792626500E-1
1.128844765E1	-3.453441381E0	9.952347755E0	9.032905847E-2
1.129685067E1	-3.305086374E0	9.572486877E0	4.953143001E-1
1.130525369E1	-2.693121910E0	9.391828537E0	8.871390224E-1
1.131365671E1	-1.904686809E0	9.183652878E0	1.447657704E0
1.132205973E1	-9.858429432E-1	9.032905579E0	1.369292736E0
1.133046276E1	-5.802594870E-2	9.127422333E0	1.383051515E0
1.133886578E1	9.110672474E-1	9.440283775E0	1.212562919E0
1.134726880E1	1.700100541E0	9.789635658E0	8.751748800E-1
1.135567182E1	1.874178290E0	1.006959629E1	1.080957651E0
1.136407484E1	1.273579836E0	1.013898754E1	1.270588875E0
1.137247786E1	2.572284341E-1	1.008455086E1	1.046859860E0
1.138088088E1	-6.652047038E-1	1.005105114E1	5.892325640E-1
1.138928390E1	-1.116850019E0	1.004925728E1	1.465603858E-1
1.139768692E1	-1.122832060E0	1.003011417E1	-1.058823988E-1
1.140608994E1	-7.537391186E-1	9.975079536E0	-1.776670814E-1
1.141449296E1	-2.201396823E-1	9.977472305E0	-4.785645287E-3
1.142289598E1	2.021935135E-1	1.000199890E1	3.062812984E-1
1.143129901E1	5.497509837E-1	1.005105114E1	4.426721931E-1
1.143970203E1	7.728816867E-1	1.010010433E1	5.641079545E-1
1.144810505E1	7.722834945E-1	1.001276588E1	7.328019142E-1
1.145650807E1	6.556333899E-1	9.818947792E0	8.410771489E-1
1.146491109E1	5.659025311E-1	9.676574707E0	8.309076428E-1
1.147331411E1	4.534398913E-1	9.690333366E0	8.099704385E-1
1.148171713E1	3.780659735E-1	9.777671814E0	7.423732281E-1
1.149012015E1	4.013960063E-1	9.859625816E0	6.855437160E-1
1.149852317E1	4.701896608E-1	9.859027863E0	6.586244106E-1
1.150692619E1	4.995017350E-1	9.833903313E0	6.382854581E-1
1.151532921E1	4.378865361E-1	9.831509590E0	5.216353536E-1
1.152373223E1	3.876372576E-1	9.906884193E0	5.264210105E-1
1.153213526E1	4.151547253E-1	9.969097137E0	5.473581553E-1
1.154053828E1	4.983053207E-1	9.855438232E0	7.363911867E-1
1.154894130E1	6.394818425E-1	9.671191216E0	9.882357717E-1
1.155734432E1	7.477570772E-1	9.529416084E0	1.090528965E0
1.156574734E1	6.580262184E-1	9.494720459E0	1.052842021E0
1.157415036E1	3.619144261E-1	9.644869804E0	1.010369420E0
1.158255338E1	9.272187948E-2	9.891928673E0	8.901300430E-1
1.159095640E1	9.212367237E-2	1.000798035E1	7.746763229E-1
1.159935942E1	2.333002090E-1	9.945169449E0	7.196413875E-1
1.160776244E1	2.883351147E-1	9.824930191E0	7.549355626E-1
1.161616546E1	2.177468538E-1	9.824331284E0	6.807580590E-1
1.162456848E1	9.332008660E-2	9.910472870E0	5.976074338E-1
1.163297150E1	8.315058798E-2	9.971489906E0	5.312066078E-1
1.164137453E1	1.896311939E-1	9.951150894E0	4.642075896E-1
1.164977755E1	2.721835673E-1	9.910472870E0	4.037888348E-1
1.165818057E1	2.428714931E-1	9.871589661E0	6.496513486E-1
1.166658359E1	2.715853751E-1	9.888339996E0	6.634100676E-1
1.167498661E1	4.109672904E-1	9.893125534E0	6.879364848E-1
1.168338963E1	4.953143001E-1	9.889535904E0	7.214360237E-1
1.169179265E1	3.152543902E-1	9.911669731E0	7.381857634E-1
1.170019567E1	2.033899277E-1	9.932606697E0	7.052844763E-1
1.170859869E1	2.709871531E-1	9.903892517E0	6.364908218E-1
1.171700171E1	3.834498227E-1	9.801001549E0	6.646065116E-1
1.172540473E1	5.581258535E-1	9.734601021E0	7.130611539E-1
1.173380776E1	8.087740541E-1	9.811170578E0	7.674978375E-1
1.174221078E1	9.625129104E-1	9.905687332E0	7.322037220E-1
1.175061380E1	7.740781307E-1	9.835697174E0	7.375875711E-1
1.175901682E1	6.113662124E-1	9.801599503E0	8.739784956E-1
1.176741984E1	8.422735929E-1	9.766903877E0	9.708877802E-1
1.177582286E1	1.134796143E0	9.589237213E0	1.042672515E0
1.178422588E1	1.174277663E0	9.333803177E0	1.227517962E0
1.179262890E1	1.147956610E0	9.184251785E0	1.211366415E0
1.180103192E1	1.023529887E0	9.306285858E0	9.320043921E-1
1.180943494E1	6.640082598E-1	9.559925079E0	7.812566161E-1
1.181783796E1	4.660021961E-1	9.738788605E0	6.107679605E-1
1.182624098E1	5.754738450E-1	9.799804688E0	4.241278172E-1
1.183464401E1	7.974081635E-1	9.863214493E0	2.027917206E-1
1.184304703E1	8.590233326E-1	1.003430176E1	1.914258115E-2
1.185145005E1	8.907282352E-1	1.018564796E1	-8.733802289E-2
1.185985307E1	1.033699393E0	1.015513897E1	-1.758724600E-1
1.186825609E1	1.213161111E0	9.897313118E0	-9.152546525E-2
1.187665911E1	1.379462242E0	9.632308006E0	-4.426721856E-2
1.188506213E1	1.508076429E0	9.533603668E0	3.230310604E-2
1.189346515E1	1.501496196E0	9.607182503E0	1.974078715E-1
1.190186817E1	1.440479279E0	9.726225853E0	3.469592929E-1
1.191027119E1	1.503889084E0	9.798010826E0	4.133601189E-1
1.191867421E1	1.590628862E0	9.799206734E0	5.419743061E-1
1.192707723E1	1.549950838E0	9.732806206E0	5.629115105E-1
1.193548026E1	1.555334687E0	9.708279610E0	5.958128572E-1
1.194388328E1	1.657029629E0	9.782457352E0	4.881358147E-1
1.195228630E1	1.718644857E0	9.847661972E0	4.301098585E-1
1.196068932E1	1.740778446E0	9.872786522E0	3.625126183E-1
1.196909234E1	1.727617979E0	9.914660454E0	2.955136001E-1
1.197749536E1	1.741974831E0	9.973882675E0	2.985046208E-1
1.198589838E1	1.806581140E0	1.007198906E1	2.650051117E-1
1.199430140E1	1.850250125E0	1.018026352E1	2.614158690E-1
1.200270442E1	1.833500385E0	1.028136063E1	1.561316848E-1
1.201110744E1	1.715055585E0	1.042433167E1	1.142572835E-1
1.201951046E1	1.515254974E0	1.077488041E1	1.375873089E-1
1.202791348E1	1.335195065E0	1.137308598E1	1.232303679E-1
1.203631650E1	1.127617717E0	1.219262791E1	1.884347796E-1
1.204471953E1	9.266205430E-1	1.294457245E1	5.563312769E-2
1.205312255E1	8.470591903E-1	1.320419312E1	-3.726821244E-1
1.206152557E1	9.278169870E-1	1.288834095E1	-7.471588850E-1
1.206992859E1	1.147956610E0	1.198026466E1	-1.093519926E0
1.207833161E1	1.164706469E0	1.092203903E1	-1.116251707E0
1.208673463E1	1.013360381E0	1.009651470E1	-1.143171072E0
1.209513765E1	9.032905698E-1	9.862616539E0	-1.189232826E0
1.210354067E1	9.050851464E-1	1.004746246E1	-6.478567123E-1
1.211194369E1	1.063609719E0	1.026999474E1	-4.707878530E-1
1.212034671E1	1.488335729E0	1.029093170E1	-4.259224236E-1
1.212874973E1	2.127817631E0	1.017547798E1	-8.075776696E-2
1.213715276E1	2.919243574E0	1.014616585E1	2.117647976E-1
1.214555578E1	3.675973892E0	1.013061333E1	6.011967063E-1
1.215395880E1	4.399802685E0	1.015454102E1	8.524430394E-1
1.216236182E1	4.839483738E0	1.010249710E1	1.182054400E0
1.217076484E1	4.931009293E0	9.916455269E0	1.462612867E0
1.217916786E1	4.717449665E0	9.646066666E0	1.503889084E0
1.218757088E1	4.252045631E0	9.354142189E0	1.378265858E0
1.219597390E1	3.661018610E0	9.086744308E0	1.234098315E0
1.220437692E1	3.117249727E0	8.829515457E0	1.019342422E0
1.221277994E1	2.736192703E0	8.626125336E0	6.652047038E-1
1.222118296E1	2.504088879E0	8.508278847E0	2.955136001E-1
1.222958598E1	2.260619164E0	8.431708336E0	3.230310678E-1
1.223798901E1	1.931007862E0	8.178069115E0	5.114658475E-1
1.224639203E1	1.579861164E0	7.873582840E0	6.939185411E-2
1.225479505E1	1.217946768E0	7.856235027E0	-6.711867452E-1
1.226319807E1	9.134600163E-1	8.154739380E0	-9.308080077E-1
1.227160109E1	6.430711150E-1	8.365307808E0	-9.409775138E-1
1.228000411E1	3.146561682E-1	8.407780647E0	-9.002995491E-1
1.228840713E1	7.836493850E-2	8.487341881E0	-1.284347534E0
1.229681015E1	3.170489892E-2	8.158329010E0	-1.034297585E0
1.230521317E1	5.862415582E-2	7.458428383E0	-4.145565331E-1
1.231361619E1	2.177468538E-1	6.665805817E0	-3.978067636E-1
1.232201921E1	6.646065116E-1	6.489335060E0	-9.152546525E-1
1.233042223E1	1.100100160E0	7.095317364E0	-1.153938770E0
1.233882526E1	1.344168067E0	7.906484127E0	-1.169492126E0
1.234722828E1	1.171286702E0	8.391629219E0	-1.034895778E0
1.235563130E1	6.472585201E-1	8.377870560E0	-9.948160052E-1
1.236403432E1	-4.785645287E-3	8.152944565E0	-9.696913958E-1
1.237243734E1	-5.748756528E-1	8.051250458E0	-1.111466169E0
1.238084036E1	-1.009771109E0	8.079365730E0	-1.152144074E0
1.238924338E1	-1.206580877E0	8.261817932E0	-1.146760225E0
1.239764640E1	-1.112662554E0	8.614161491E0	-1.386042476E0
1.240604942E1	-9.092726111E-1	9.118449211E0	-1.392024517E0
1.241445244E1	-6.849454641E-1	9.660423279E0	-1.205384374E0
1.242285546E1	-3.601198196E-1	1.013121128E1	-9.912267923E-1
1.243125848E1	1.058823988E-1	1.052423191E1	-7.896314859E-1
1.243966150E1	7.986045480E-1	1.084427261E1	-8.177471161E-1
1.244806453E1	1.351944804E0	1.102971554E1	-8.374879360E-1
1.245646755E1	1.638485312E0	1.108714390E1	-8.859425783E-1
1.246487057E1	1.549950838E0	1.118644619E1	-8.691928387E-1
1.247327359E1	1.250249863E0	1.133001518E1	-9.517452121E-1
1.248167661E1	1.033699393E0	1.147537899E1	-1.093519926E0
1.249007963E1	9.493523836E-1	1.156271744E1	-1.231705427E0
1.249848265E1	8.303094506E-1	1.159023476E1	-1.299900889E0
1.250688567E1	7.639086246E-1	1.155434227E1	-1.350150228E0
1.251528869E1	8.488538265E-1	1.146401310E1	-1.203589797E0
1.252369171E1	1.295115232E0	1.160638618E1	-1.325025558E0
1.253209473E1	1.903490424E0	1.175234795E1	-9.708877802E-1
1.254049776E1	2.416750908E0	1.169551849E1	-8.315058947E-1
1.254890078E1	2.615355253E0	1.148495007E1	-1.040279627E0
1.255730380E1	2.564507723E0	1.136830044E1	-1.265205026E0
1.256570682E1	2.367697954E0	1.131206894E1	-1.323230863E0
1.257410984E1	2.129014015E0	1.130907822E1	-1.333998680E0
1.258251286E1	1.931007862E0	1.130967617E1	-1.158724308E0
1.259091588E1	1.782054663E0	1.123071289E1	-1.097707391E0
1.259931890E1	1.606182218E0	1.115174961E1	-1.067198873E0
1.260772192E1	1.480558991E0	1.114516926E1	-1.230509043E0
1.261612494E1	1.596012712E0	1.111406326E1	-1.543370605E0
1.262452796E1	1.675574064E0	1.088614655E1	-9.936196208E-1
1.263293098E1	1.536192179E0	1.047099209E1	-5.365904570E-1
1.264133401E1	1.442872047E0	1.016231823E1	-5.575276613E-1
1.264973703E1	1.582253933E0	1.008694363E1	-7.010970116E-1
1.265814005E1	1.777269006E0	1.007438183E1	-8.482556343E-1
1.266654307E1	1.899302959E0	9.984052658E0	-1.185045362E0
1.267494609E1	1.858624935E0	9.759127617E0	-1.283749342E0
1.268334911E1	1.818545222E0	9.393623352E0	-9.541380405E-1
1.269175213E1	1.841277003E0	8.941379547E0	-6.221339107E-1
1.270015515E1	1.950748682E0	8.515457153E0	-5.910272002E-1
1.270855817E1	2.121237278E0	8.249256134E0	-9.720842242E-1
1.271696119E1	2.194816589E0	8.283951759E0	-1.162911773E0
1.272536421E1	2.067398787E0	8.398807526E0	-9.020941257E-1
1.273376723E1	1.856830359E0	8.445467949E0	-6.251249313E-1
1.274217026E1	1.627717614E0	8.476573944E0	-4.091726840E-1
1.275057328E1	1.373480201E0	8.599804878E0	-1.716850251E-1
1.275897630E1	1.131206870E0	8.834898949E0	-2.153540403E-2
1.276737932E1	9.553344250E-1	9.038289070E0	4.247260094E-2
1.277578234E1	8.769695163E-1	9.129216194E0	1.663011760E-1
1.278418536E1	9.068797827E-1	9.067003250E0	4.546363056E-1
1.279258838E1	1.267597795E0	9.017950058E0	5.473581553E-1
1.280099140E1	1.975275040E0	9.112466812E0	2.021935135E-1
1.280939442E1	2.667398930E0	9.282357216E0	2.811566554E-2
1.281779744E1	3.134597778E0	9.482755661E0	6.640082598E-2
1.282620046E1	3.279363394E0	9.557532310E0	-1.633101404E-1
1.283460348E1	3.164507866E0	9.643074989E0	-4.588237405E-1
1.284300650E1	3.112463951E0	9.765707016E0	-7.106683254E-1
1.285140953E1	3.396611691E0	1.003968525E1	-1.000798106E0
1.285981255E1	4.055236340E0	1.036690426E1	-8.135597110E-1
1.286821557E1	5.041079044E0	1.079043388E1	-6.747759581E-1
1.287661859E1	5.988636971E0	1.188036442E1	-1.939382792E0
1.288502161E1	4.888536453E0	1.329990673E1	-3.870390654E-1
1.289342463E1	1.233500123E0	1.348893929E1	1.735992789E0
1.290182765E1	-3.451048374E0	1.304327583E1	2.583052158E0
1.291023067E1	-8.617152214E0	1.258146191E1	3.275774240E0
1.291863369E1	-1.340339565E1	1.196949673E1	2.727219582E0
1.292703671E1	-1.360020542E1	1.132044411E1	1.316052526E-1
1.293543973E1	-9.113064766E0	1.081735325E1	-2.443670034E0
1.294384276E1	-3.539582968E0	1.084247780E1	-4.005585194E0
1.295224578E1	1.495514214E-1	1.067916775E1	-2.935395241E0
1.296064880E1	2.368894339E0	1.011326504E1	-7.818548083E-1
1.296905182E1	3.596412420E0	9.212965012E0	1.591825247E0
1.297745484E1	4.074976921E0	8.481958389E0	2.576471806E0
1.298585786E1	3.719044685E0	8.517251968E0	2.228316069E0
1.299426088E1	2.469393015E0	9.189635277E0	9.876375198E-1
1.300266390E1	6.155536175E-1	9.857233047E0	1.710868180E-1
1.301106692E1	-1.293320656E0	1.018624592E1	-4.426721931E-1
1.301946994E1	-2.585444927E0	1.037408257E1	-1.426720500E0
1.302787296E1	-2.983849764E0	1.037348461E1	-1.889731646E0
1.303627598E1	-2.714059114E0	1.008873844E1	-1.174875975E0
1.304467900E1	-2.304886341E0	9.782457352E0	-3.266202807E-1
1.305308203E1	-2.041077614E0	9.682557106E0	2.392822644E-3
1.306148505E1	-1.935195327E0	9.614959717E0	6.466603279E-1
1.306988807E1	-1.622931957E0	9.437891006E0	7.022934556E-1
1.307829109E1	-1.167697430E0	9.364909172E0	2.614158690E-1
1.308669411E1	-8.733802438E-1	9.524032593E0	1.304088384E-1
1.309509713E1	-7.423732281E-1	9.812367439E0	2.297109663E-1
1.310350015E1	-6.293123364E-1	9.964909554E0	2.781656384E-1
1.311190317E1	-5.497509837E-1	9.884152412E0	2.327020019E-1
1.312030619E1	-6.239284873E-1	9.783653259E0	4.193421602E-1
1.312870921E1	-9.487541914E-1	9.794421196E0	8.769695163E-1
1.313711223E1	-1.209571838E0	9.799804688E0	1.049850941E0
1.314551526E1	-1.344766378E0	9.802198410E0	9.493523836E-1
1.315391828E1	-1.298106313E0	9.806983948E0	8.452646136E-1
1.316232130E1	-1.035493970E0	9.784850121E0	7.094719410E-1
1.317072432E1	-7.250252366E-1	9.798010826E0	6.466603279E-1
1.317912734E1	-4.325026870E-1	9.805189133E0	6.933203340E-1
1.318753036E1	-1.932204217E-1	9.850054741E0	8.799605370E-1
1.319593338E1	-2.392822690E-2	9.861420631E0	8.685946465E-1
1.320433640E1	-1.561316848E-1	9.790233612E0	8.679963946E-1
1.321273942E1	-4.642075896E-1	9.722636223E0	7.657032609E-1
1.322114244E1	-5.210371017E-1	9.763314247E0	7.423732281E-1
1.322954546E1	-2.596212626E-1	9.866804123E0	6.867401004E-1
1.323794848E1	-6.580262445E-3	9.882955551E0	6.394818425E-1
1.324635151E1	3.828516230E-2	9.816555023E0	6.059823632E-1
1.325475453E1	2.691925503E-2	9.794421196E0	5.312066078E-1
1.326315755E1	-2.392822644E-3	9.893723488E0	4.480560422E-1
1.327156057E1	-7.357929647E-2	1.003968525E1	4.229314029E-1
1.327996359E1	-2.464607358E-1	1.000558758E1	5.114658475E-1
1.328836661E1	-3.397808075E-1	9.806385040E0	6.693921089E-1
1.329676963E1	-1.986042857E-1	9.630513191E0	7.417750359E-1
1.330517265E1	1.016949583E-2	9.613164902E0	7.956135273E-1
1.331357567E1	7.238288224E-2	9.649057388E0	8.650053740E-1
1.332197869E1	2.273181453E-2	9.661021233E0	8.883354068E-1
1.333038171E1	-2.991028316E-2	9.689735413E0	1.021137118E0
1.333878473E1	-6.819544733E-2	9.764511108E0	8.626125455E-1
1.334718776E1	-2.338984162E-1	9.831509590E0	8.045865893E-1
1.335559078E1	-4.253242314E-1	9.842277527E0	7.118647099E-1
1.336399380E1	-4.624129832E-1	9.748359680E0	6.173482537E-1
1.337239682E1	-2.733799815E-1	9.662218094E0	6.580262184E-1
1.338079984E1	-1.764706671E-1	9.642477036E0	7.854440212E-1
1.338920286E1	-2.009970993E-1	9.595816612E0	9.678967595E-1
1.339760588E1	-2.524427772E-1	9.626325607E0	1.086341500E0
1.340600890E1	-3.535395563E-1	9.745368004E0	1.105484009E0
1.341441192E1	-4.223332107E-1	9.797411919E0	1.050449133E0
1.342281494E1	-4.157529473E-1	9.705886841E0	1.010967612E0
1.343121796E1	-3.391826153E-1	9.603593826E0	1.054038405E0
1.343962098E1	-1.872383654E-1	9.580862045E0	1.121635556E0
1.344802400E1	-3.888336942E-2	9.611968994E0	1.110269666E0
1.345642703E1	9.631111473E-2	9.689137459E0	1.037288666E0
1.346483005E1	1.573280841E-1	9.734601021E0	9.457631707E-1
1.347323307E1	1.046859920E-1	9.731609344E0	8.632107973E-1
1.348163609E1	5.862415582E-2	9.668199539E0	9.020941257E-1
1.349003911E1	1.082752272E-1	9.669396400E0	8.117650747E-1
1.349844213E1	1.782652885E-1	9.697511673E0	7.483552694E-1
1.350684515E1	2.560320199E-1	9.742975235E0	7.609176040E-1
1.351524817E1	3.439682424E-1	9.760323524E0	8.578268886E-1
1.352365119E1	4.833501875E-1	9.793823242E0	8.853443861E-1
1.353205421E1	4.869394004E-1	9.781260490E0	9.397810698E-1
1.354045723E1	2.973082066E-1	9.733404160E0	8.362914920E-1
1.354886026E1	1.130608693E-1	9.666405678E0	7.268198729E-1
1.355726328E1	7.716853172E-2	9.711869240E0	6.418746710E-1
1.356566630E1	1.160518974E-1	9.858428955E0	6.191428304E-1
1.357406932E1	1.339980662E-1	9.927223206E0	5.934200287E-1
1.358247234E1	4.666004330E-2	9.940981865E0	4.211367965E-1
1.359087536E1	5.682953820E-2	9.927821159E0	3.834498227E-1
1.359927838E1	2.452643216E-1	9.936196327E0	3.601198196E-1
1.360768140E1	4.695914388E-1	9.885348320E0	3.332005441E-1
1.361608442E1	5.760720372E-1	9.832706451E0	3.810569942E-1
1.362448744E1	5.964110494E-1	9.877572060E0	4.809573591E-1
1.363289046E1	5.832505226E-1	1.000199890E1	5.533402562E-1
1.364129348E1	4.725824594E-1	1.001755238E1	5.479564071E-1
1.364969651E1	3.774677813E-1	9.936794281E0	5.473581553E-1
1.365809953E1	4.217349887E-1	9.837491989E0	5.533402562E-1
1.366650255E1	5.353940725E-1	9.777671814E0	6.161518097E-1
1.367490557E1	5.497509837E-1	9.746564865E0	6.783652306E-1
1.368330859E1	6.059823632E-1	9.739386559E0	7.058826685E-1
1.369171161E1	6.424728632E-1	9.765707016E0	7.094719410E-1
1.370011463E1	6.484549642E-1	9.752547264E0	6.550351977E-1
1.370851765E1	7.459624410E-1	9.730413437E0	5.868397355E-1
1.371692067E1	8.315058947E-1	9.772886276E0	6.000002623E-1
1.372532369E1	8.464609981E-1	9.809376717E0	6.532405615E-1
1.373372671E1	9.158528447E-1	9.789635658E0	7.860422134E-1
1.374212973E1	1.030110121E0	9.804591179E0	7.657032609E-1
1.375053276E1	1.063609719E0	9.828518867E0	7.405785918E-1
1.375893578E1	9.822536707E-1	9.820143700E0	6.945167780E-1
1.376733880E1	9.511470199E-1	9.814162254E0	5.850451589E-1
1.377574182E1	1.018146038E0	9.837491989E0	4.701896608E-1
1.378414484E1	1.162313581E0	9.897313118E0	3.266202807E-1
1.379254786E1	1.278963685E0	1.000498962E1	2.171486616E-1
1.380095088E1	1.293320656E0	1.000917721E1	1.639083475E-1
1.380935390E1	1.241276741E0	9.937990189E0	1.232303679E-1
1.381775692E1	1.179063320E0	9.986445427E0	3.708875179E-2
1.382615994E1	1.012762189E0	1.035972595E1	1.615155302E-2
1.383456296E1	7.842476368E-1	1.093639565E1	-2.093719877E-2
1.384296598E1	5.246263742E-1	1.160339546E1	4.486542568E-2
1.385136900E1	3.852444589E-1	1.213579845E1	-1.423729509E-1
1.385977203E1	5.599204898E-1	1.243071365E1	-5.976074338E-1
1.386817505E1	8.333004713E-1	1.240917778E1	-1.043868899E0
1.387657807E1	9.661021233E-1	1.210409355E1	-1.236491084E0
1.388498109E1	9.996016622E-1	1.180558872E1	-1.384247899E0
1.389338411E1	1.177866936E0	1.180857944E1	-1.622931957E0
1.390178713E1	1.291526079E0	1.195155048E1	-1.768295884E0
1.391019015E1	1.121037364E0	1.190130138E1	-1.760519266E0
1.391859317E1	7.304090858E-1	1.140897846E1	-1.747358680E0
1.392699619E1	4.253242314E-1	1.087119102E1	-1.636092424E0
1.393539921E1	2.793620527E-1	1.056191921E1	-1.591227055E0
1.394380223E1	7.477571070E-2	1.007318497E1	-1.546959877E0
1.395220526E1	2.165504545E-1	9.687342644E0	-1.249651670E0
1.396060828E1	6.885347366E-1	9.651450157E0	-5.144568682E-1
1.396901130E1	1.709671736E0	9.787242889E0	-3.690928817E-1
1.397741432E1	2.855833769E0	9.888937950E0	-1.381855011E-1
1.398581734E1	3.590430260E0	9.817152977E0	4.163511395E-1
1.399422036E1	4.047459602E0	9.695717812E0	7.543373108E-1
1.400262338E1	4.292723656E0	9.688538551E0	1.005583763E0
1.401102640E1	4.362115860E0	9.870991707E0	1.215553880E0
1.401942942E1	4.165904045E0	1.001695347E1	1.253839016E0
1.402783244E1	3.746562004E0	9.955936432E0	1.310070395E0
1.403623546E1	3.199203968E0	9.684351921E0	1.214955688E0
1.404463848E1	2.615953445E0	9.259625435E0	9.391828775E-1
1.405304151E1	2.014158487E0	8.843872070E0	5.814558864E-1
1.406144453E1	1.512263894E0	8.452047348E0	3.810569942E-1
1.406984755E1	1.132403374E0	8.123632431E0	1.609173268E-1
1.407825057E1	7.998009920E-1	7.961519241E0	-1.992024779E-1
1.408665359E1	5.174478889E-1	7.840681553E0	-4.911268353E-1
1.409505661E1	4.253242314E-1	7.843074322E0	-7.824530005E-1
1.410345963E1	5.431707501E-1	7.840083599E0	-6.592226624E-1
1.411186265E1	8.859425783E-1	8.097909927E0	-7.076773047E-1
1.412026567E1	1.143769264E0	8.220541954E0	-3.607180119E-1
1.412866869E1	1.191027522E0	7.906484127E0	3.978067636E-1
1.413707171E1	1.003190875E0	7.453642368E0	2.644068897E-1
1.414547473E1	6.311069727E-1	7.384250641E0	-2.638086975E-1
1.415387776E1	1.794617027E-1	7.722835064E0	-3.445664644E-1
1.416228078E1	-1.489532143E-1	8.003992081E0	-2.883351147E-1
1.417068380E1	-2.973082066E-1	8.185846329E0	-3.798605800E-1
1.417908682E1	-3.858426511E-1	8.302495956E0	-4.414757788E-1
1.418748984E1	-4.863412082E-1	8.372486115E0	-5.228317380E-1
1.419589286E1	-6.071787477E-1	8.420342445E0	-6.376872063E-1
1.420429588E1	-7.369893789E-1	8.486145973E0	-6.568298340E-1
1.421269890E1	-8.476574421E-1	8.496315002E0	-6.334998012E-1
1.422110192E1	-8.991031051E-1	8.538188934E0	-7.214360237E-1
1.422950494E1	-8.303094506E-1	8.669795036E0	-8.410771489E-1
1.423790796E1	-6.460621357E-1	8.943773270E0	-9.236295223E-1
1.424631098E1	-3.433700502E-1	9.214759827E0	-7.501499057E-1
1.425471400E1	9.032905847E-2	9.510273933E0	-8.644071817E-1
1.426311703E1	4.713860750E-1	9.798010826E0	-7.058826685E-1
1.427152005E1	8.715856671E-1	1.000199890E1	-6.927221417E-1
1.427992307E1	1.080957651E0	1.023769188E1	-7.860422134E-1
1.428832609E1	1.036092162E0	1.042193890E1	-7.286145091E-1
1.429672911E1	8.548358679E-1	1.047218800E1	-7.381857634E-1
1.430513213E1	6.179464459E-1	1.045663452E1	-7.698906660E-1
1.431353515E1	4.163511395E-1	1.050030422E1	-7.369893789E-1
1.432193817E1	2.464607358E-1	1.058943653E1	-7.310073376E-1
1.433034119E1	1.154536903E-1	1.071087265E1	-7.226324677E-1
1.433874421E1	7.178468257E-2	1.080598736E1	-6.909275651E-1
1.434714723E1	1.202393398E-1	1.085444164E1	-5.904290080E-1
1.435555026E1	2.596212626E-1	1.084427261E1	-5.072783828E-1
1.436395328E1	3.990031779E-1	1.084187984E1	-4.480560422E-1
1.437235630E1	4.552344978E-1	1.087298584E1	-4.061816335E-1
1.438075932E1	4.133601189E-1	1.089272690E1	-4.031906128E-1
1.438916234E1	3.068794906E-1	1.091067314E1	-3.984049559E-1
1.439756536E1	1.902294010E-1	1.093280697E1	-4.007977843E-1
1.440596838E1	9.272187948E-2	1.099262714E1	-4.923232496E-1
1.441437140E1	-8.973085321E-3	1.101416302E1	-5.132604837E-1
1.442277442E1	-5.443671346E-2	1.094596672E1	-5.754738450E-1
1.443117744E1	9.571290575E-3	1.082871914E1	-7.639086246E-1
1.443958046E1	1.208375469E-1	1.074736309E1	-8.536394835E-1
1.444798348E1	1.992024779E-1	1.068574810E1	-8.315058947E-1
1.445638651E1	2.943171859E-1	1.054337502E1	-8.883354068E-1
1.446478953E1	4.791627228E-1	1.039322472E1	-1.051047325E0
1.447319255E1	6.574280262E-1	1.027597713E1	-1.135394335E0
1.448159557E1	8.524430394E-1	1.018086243E1	-1.117448211E0
1.448999859E1	9.708877802E-1	1.007497978E1	-1.165902853E0
1.449840161E1	9.278169870E-1	9.927223206E0	-1.302891970E0
1.450680463E1	7.477570772E-1	9.696913719E0	-1.489532113E0
1.451520765E1	5.120640397E-1	9.480362892E0	-1.545165181E0
1.452361067E1	3.720839322E-1	9.300303459E0	-1.425524116E0
1.453201369E1	4.121637046E-1	9.198608398E0	-1.298704505E0
1.454041671E1	7.004988194E-1	9.354142189E0	-1.092323542E0
1.454881973E1	1.186840057E0	9.509077072E0	-9.110672474E-1
1.455722276E1	1.628315806E0	9.730413437E0	-1.001396298E0
1.456562578E1	1.750947952E0	1.009711361E1	-8.141579032E-1
1.457402880E1	1.735992789E0	1.023769188E1	-6.442674994E-1
1.458243182E1	1.814955950E0	1.016471100E1	-6.574280262E-1
1.459083484E1	1.844866276E0	1.008036327E1	-2.452643216E-1
1.459923786E1	1.858624935E0	9.948160172E0	4.965107143E-2
1.460764088E1	1.880160451E0	9.765707016E0	-1.896311939E-1
1.461604390E1	1.689332843E0	9.706484795E0	-4.043870270E-1
1.462444692E1	1.176072359E0	9.791430473E0	-3.140579760E-1
1.463284994E1	4.869394004E-1	9.952347755E0	4.725824669E-2
1.464125296E1	8.853443712E-2	1.020598698E1	1.016949639E-1
1.464965598E1	3.589233849E-3	1.032144070E1	3.020938635E-1
1.465805900E1	2.237289101E-1	1.020658493E1	3.188436031E-1
1.466646203E1	6.987041831E-1	1.013719273E1	-5.700899959E-1
1.467486505E1	1.022931695E0	1.017488003E1	-7.704889178E-1
1.468326807E1	1.316650629E0	1.011805058E1	-7.244270444E-1
1.469167109E1	1.713261008E0	1.000319481E1	-5.832505226E-1
1.470007411E1	2.142772675E0	9.798608780E0	-3.888336718E-1
1.470847713E1	2.673381090E0	9.775279045E0	-6.532405615E-1
1.471688015E1	3.160320520E0	1.013958549E1	-1.360319614E0
1.472528317E1	3.270988464E0	1.038903809E1	-4.606183469E-1
1.473368619E1	3.963710785E0	1.104826069E1	-2.169093609E0
1.474208921E1	3.731008768E0	1.266102314E1	-3.156731367E0
1.475049223E1	1.296311617E0	1.376710510E1	-3.954139352E-1
1.475889526E1	-2.745764017E0	1.323530006E1	2.793022156E0
1.476729828E1	-6.443273067E0	1.157886887E1	3.463610888E0
1.477570130E1	-8.580063820E0	9.823135376E0	3.382254839E0
1.478410432E1	-7.691130161E0	8.994620323E0	2.148156643E0
1.479250734E1	-4.813760757E0	9.299106598E0	1.119840980E0
1.480091036E1	-2.127219439E0	9.905687332E0	7.417750359E-2
1.480931338E1	-1.009771109E0	1.037946606E1	-7.196413875E-1
1.481771640E1	-4.402793646E-1	1.046142101E1	-9.284151793E-1
1.482611942E1	5.168496966E-1	1.009950638E1	-3.170489967E-1
1.483452846E1	1.350748420E0	9.577870369E0	1.059422255E0
1.484293148E1	1.469791293E0	9.452247620E0	1.137787223E0
1.485133450E1	5.024927258E-1	9.808179855E0	-6.759724021E-2
1.485973752E1	-7.214360237E-1	1.028794098E1	-1.248455167E0
1.486814054E1	-1.562513232E0	1.061695385E1	-1.500898004E0
1.487654356E1	-1.644467354E0	1.074736309E1	-1.365703583E0
1.488494658E1	-1.222134113E0	1.075394344E1	-1.399801254E0
1.489334960E1	-8.219345808E-1	1.048056316E1	-9.499505758E-1
1.490175262E1	-7.956135273E-1	9.974481583E0	-1.561316848E-1
1.491015565E1	-1.164108157E0	9.480362892E0	4.211367965E-1
1.491855867E1	-1.750947952E0	9.300303459E0	6.723831892E-1
1.492696169E1	-2.142174482E0	9.427123070E0	9.667003751E-1
1.493536471E1	-2.298306227E0	9.576674461E0	1.046859860E0
1.494376773E1	-2.196611166E0	9.584450722E0	5.772684813E-1
1.495217075E1	-1.883151412E0	9.552147865E0	2.865405083E-1
1.496057377E1	-1.252044439E0	9.604191780E0	3.230310678E-1
1.496897679E1	-4.755735099E-1	9.814760208E0	4.498506486E-1
1.497737981E1	8.494520187E-2	1.000498962E1	7.351947427E-1
1.498578283E1	2.644068897E-1	1.002891827E1	9.918249846E-1
1.499418585E1	6.460621208E-2	9.964311600E0	1.064207911E0
1.500258888E1	-4.121637046E-1	9.868000984E0	8.500502706E-1
1.501099190E1	-8.775677085E-1	9.805787086E0	4.803591371E-1
1.501939492E1	-1.143171072E0	9.762716293E0	3.672982752E-1
1.502779794E1	-1.079162955E0	9.790233612E0	3.966103494E-1
1.503620096E1	-8.458628058E-1	9.842875481E0	4.325026870E-1
1.504460398E1	-6.364908218E-1	9.810572624E0	5.114658475E-1
1.505300700E1	-3.990031779E-1	9.705886841E0	6.699903607E-1
1.506141002E1	-9.032905847E-2	9.741779327E0	7.567301393E-1
1.506981304E1	8.195417374E-2	9.826724052E0	6.652047038E-1
1.507821606E1	-7.776673418E-3	9.896116257E0	6.406782866E-1
1.508661908E1	-1.782652885E-1	9.888937950E0	8.488538265E-1
1.509502210E1	-2.344966233E-1	9.811769485E0	9.367900491E-1
1.510342513E1	-1.830509305E-1	9.724431038E0	9.080761671E-1
1.511182815E1	-1.292124242E-1	9.668199539E0	8.410771489E-1
1.512023117E1	-1.824527234E-1	9.644271851E0	8.297112584E-1
1.512863419E1	-3.152543902E-1	9.665806770E0	8.171489239E-1
1.513703721E1	-4.420739710E-1	9.713065147E0	6.735795736E-1
1.514544023E1	-4.576273263E-1	9.820742607E0	5.539384484E-1
1.515384325E1	-4.630111754E-1	9.933204651E0	5.216353536E-1
1.516224627E1	-4.791627228E-1	9.928419113E0	6.592226624E-1
1.517064929E1	-4.277170599E-1	9.874580383E0	7.519445419E-1
1.517905231E1	-3.266202807E-1	9.854840279E0	7.256234884E-1
1.518745533E1	-2.153540403E-1	9.824930191E0	7.495517135E-1
1.519585835E1	-2.087737769E-1	9.766305923E0	8.673982024E-1
1.520426138E1	-3.415754437E-1	9.714262009E0	8.685946465E-1
1.521266440E1	-3.978067636E-1	9.737591743E0	7.112665176E-1
1.522106742E1	-3.750749528E-1	9.808179855E0	5.479564071E-1
1.522947044E1	-4.085744619E-1	9.905687332E0	5.228317380E-1
1.523787346E1	-5.024927258E-1	9.957731247E0	7.704889178E-1
1.524627648E1	-5.000999570E-1	9.943972588E0	7.752745152E-1
1.525467950E1	-4.085744619E-1	9.851848602E0	8.237292171E-1
1.526308252E1	-2.344966233E-1	9.738788605E0	8.219345808E-1
1.527148554E1	-8.494520187E-2	9.650253296E0	8.943174481E-1
1.527988856E1	7.357929647E-2	9.614361763E0	9.050851464E-1
1.528829158E1	2.243271172E-1	9.597611427E0	9.140582681E-1
1.529669460E1	2.177468538E-1	9.543174744E0	1.063011408E0
1.530509762E1	5.324030295E-2	9.549755096E0	1.016351461E0
1.531350065E1	-3.349951655E-2	9.619745255E0	1.056431174E0
1.532190367E1	7.477571070E-2	9.718449593E0	1.030110121E0
1.533030669E1	3.002992272E-1	9.703494072E0	1.010967612E0
1.533870971E1	5.300102234E-1	9.611370087E0	1.069591761E0
1.534711273E1	6.993024349E-1	9.561718941E0	1.211366415E0
1.535551575E1	7.639086246E-1	9.571888924E0	1.342373490E0
1.536391877E1	7.645068169E-1	9.613762856E0	1.286740422E0
1.537232179E1	6.717849374E-1	9.705288887E0	1.345364571E0
1.538072481E1	5.617151260E-1	9.749555588E0	1.332203984E0
1.538912783E1	5.288137794E-1	9.668798447E0	1.231705427E0
1.539753085E1	5.724828243E-1	9.548559189E0	1.097707391E0
1.540593388E1	5.952146053E-1	9.543174744E0	1.013360381E0
1.541433690E1	6.568298340E-1	9.643074989E0	9.625129104E-1
1.542273992E1	7.752745152E-1	9.815358162E0	8.536394835E-1
1.543114294E1	7.609176040E-1	9.893723488E0	6.987041831E-1
1.543954596E1	6.233302951E-1	9.856635094E0	6.137589812E-1
1.544794898E1	5.479564071E-1	9.839884758E0	4.558327198E-1
1.545635200E1	5.874379873E-1	9.938589096E0	4.390829504E-1
1.546475502E1	6.741777658E-1	9.998409271E0	4.031906128E-1
1.547315804E1	7.322037220E-1	9.991230965E0	3.326023519E-1
1.548156106E1	7.609176040E-1	1.001216793E1	2.877369225E-1
1.548996408E1	8.123632669E-1	1.006301594E1	3.296113312E-1
1.549836710E1	9.278169870E-1	1.009531879E1	4.642075896E-1
1.550677013E1	1.057627559E0	1.010847950E1	4.480560422E-1
1.551517315E1	9.960124493E-1	9.999606133E0	5.700899959E-1
1.552357617E1	8.350951076E-1	9.817152977E0	5.479564071E-1
1.553197919E1	7.836494446E-1	9.729216576E0	4.091726840E-1
1.554038221E1	8.165507317E-1	9.772886276E0	3.810569942E-1
1.554878523E1	8.380861282E-1	9.881160736E0	3.888336718E-1
1.555718825E1	9.882357717E-1	9.953543663E0	3.068794906E-1
1.556559127E1	1.149153113E0	9.967901230E0	3.409772217E-1
1.557399429E1	1.185045362E0	9.909874916E0	2.775674164E-1
1.558239731E1	1.199402332E0	9.841081619E0	2.835494876E-1
1.559080033E1	1.271785259E0	9.838089943E0	2.129612118E-1
1.559920335E1	1.348953724E0	9.982257843E0	1.812563092E-1
1.560760638E1	1.295713425E0	1.025803089E1	1.854437590E-1
1.561600940E1	1.103091240E0	1.054277611E1	2.973082066E-1
1.562441242E1	9.768698215E-1	1.076471043E1	2.458625287E-1
1.563281544E1	1.083350420E0	1.102672482E1	1.878365725E-1
1.564121846E1	1.191027522E0	1.138564873E1	9.152546525E-2
1.564962148E1	1.120439172E0	1.177388382E1	1.328016520E-1
1.565802450E1	9.834501147E-1	1.205803108E1	6.041877344E-2
1.566642752E1	1.101894855E0	1.220040417E1	-1.609173268E-1
1.567483054E1	1.379462242E0	1.227458191E1	-4.013960063E-1
1.568323356E1	1.552941918E0	1.231167030E1	-6.077769399E-1
1.569163658E1	1.521237016E0	1.228654575E1	-5.958128572E-1
1.570003960E1	1.494317770E0	1.207478142E1	-7.878368497E-1
1.570844263E1	1.555932879E0	1.172363472E1	-9.888339639E-1
1.571684565E1	1.531406522E0	1.129531956E1	-1.082154036E0
1.572524867E1	1.426720500E0	1.082393360E1	-1.199402332E0
1.573365169E1	1.352542996E0	1.031306553E1	-1.320838094E0
1.574205471E1	1.367498159E0	9.868000984E0	-1.398604870E0
1.575045773E1	1.490728498E0	9.559925079E0	-1.503889084E0
1.575886075E1	1.737787485E0	9.372686386E0	-1.584646821E0
1.576726377E1	2.017747641E0	9.221340179E0	-1.521835208E0
1.577566679E1	2.326421738E0	9.004789352E0	-1.455434322E0
1.578406981E1	2.723630428E0	8.668000221E0	-1.244866014E0
1.579247283E1	3.301496983E0	8.291728973E0	-8.883354068E-1
1.580087585E1	4.136591911E0	8.142177582E0	-3.260220885E-1
1.580927888E1	5.160720348E0	8.301300049E0	1.884347796E-1
1.581768190E1	6.014957905E0	8.525029182E0	6.568298340E-1
1.582608492E1	6.534200668E0	8.670990944E0	9.619147182E-1
1.583448794E1	6.612565517E0	8.683553696E0	1.201196909E0
1.584289096E1	6.365506649E0	8.713463783E0	1.216750264E0
1.585129398E1	5.958128452E0	8.828917503E0	1.202393413E0
1.585969700E1	5.407779217E0	8.857032776E0	1.405783296E0
1.586810002E1	4.714458942E0	8.729017258E0	1.503889084E0
1.587650304E1	3.814757586E0	8.424530029E0	1.302293777E0
1.588490606E1	2.953341246E0	8.170292854E0	9.906286001E-1
1.589330908E1	2.356930256E0	8.137989998E0	7.645068169E-1
1.590171210E1	2.102094650E0	8.174480438E0	7.740781307E-1
1.591011512E1	1.972284079E0	8.129614830E0	7.178468108E-1
1.591851815E1	1.834098577E0	7.972885132E0	3.918247223E-1
1.592692117E1	1.960918188E0	8.961718559E0	-1.780260086E0
1.593532419E1	1.867598057E0	9.771091461E0	-1.309472203E0
1.594372721E1	1.521237016E0	9.477372169E0	5.341976285E-1
1.595213023E1	9.266205430E-1	8.434102058E0	1.931007862E0
1.596053325E1	2.081755698E-1	7.414759159E0	1.956132531E0
1.596893627E1	-4.845465720E-1	6.951149940E0	1.004985452E0
1.597733929E1	-1.048654556E0	6.982256413E0	-1.698904037E-1
1.598574231E1	-1.302293777E0	7.246065140E0	-1.027717352E0
1.599414533E1	-1.058824062E0	7.558926582E0	-1.177268744E0
1.600254835E1	-6.083751321E-1	7.837690353E0	-8.967102766E-1
1.601095138E1	-1.573280841E-1	7.917850018E0	-6.562315822E-1
1.601935440E1	1.692921966E-1	7.777271748E0	-8.111668825E-1
1.602775742E1	3.864408433E-1	7.679764271E0	-1.076770186E0
1.603616044E1	3.996013701E-1	7.802994728E0	-1.080359459E0
1.604456346E1	2.685943544E-1	7.998009682E0	-1.024726272E0
1.605296648E1	1.603191197E-1	8.154141426E0	-1.225125194E0
1.606136950E1	4.666004330E-2	8.383852005E0	-1.323829174E0
1.606977252E1	-6.699903309E-2	8.639883995E0	-1.253240824E0
1.607817554E1	-1.351944804E-1	8.865407944E0	-1.181456208E0
1.608657856E1	-1.250249892E-1	9.088538170E0	-1.037886858E0
1.609498158E1	4.247260094E-2	9.296115875E0	-9.122636318E-1
1.610338460E1	3.122633696E-1	9.552745819E0	-8.356932998E-1
1.611178762E1	5.916253924E-1	9.790832520E0	-7.806583643E-1
1.612019065E1	8.416753411E-1	1.003789139E1	-8.673982024E-1
1.612859367E1	8.446664214E-1	1.025503922E1	-6.987041831E-1
1.613699669E1	7.100701332E-1	1.045244789E1	-8.291130662E-1
1.614539971E1	5.383850932E-1	1.064746284E1	-8.273184299E-1
1.615380273E1	5.132604837E-1	1.088136101E1	-7.555337548E-1
1.616220575E1	5.898307562E-1	1.114457130E1	-6.424728632E-1
1.617060877E1	8.644071817E-1	1.144487095E1	-7.842476368E-1
1.617901179E1	1.213161111E0	1.182174015E1	-7.657032609E-1
1.618741481E1	1.511067510E0	1.199522018E1	-4.354937077E-1
1.619581783E1	1.995015860E0	1.200180054E1	-6.239284873E-1
1.620422085E1	2.900699139E0	1.236072350E1	-1.039681435E0
1.621262388E1	3.538984776E0	1.284108257E1	-6.245267391E-1
1.622102690E1	3.327219963E0	1.267358494E1	1.543370634E-1
1.622942992E1	2.490928411E0	1.186122227E1	-4.133601189E-1
1.623783294E1	1.721635938E0	1.150469112E1	-1.456630826E0
1.624623596E1	1.240678549E0	1.163510036E1	-1.444666624E0
1.625463898E1	1.398006678E0	1.186720371E1	-1.312463164E0
1.626304200E1	1.886142492E0	1.204786205E1	-1.524826288E0
1.627144502E1	1.847259045E0	1.210528946E1	-1.284945726E0
1.627984804E1	1.539781332E0	1.180439186E1	-1.015753269E0
1.628825106E1	1.864008784E0	1.151665497E1	-1.801795483E0
1.629665408E1	2.484348059E0	1.134855938E1	-1.350150228E0
1.630505710E1	2.977867842E0	1.122592735E1	-7.513462901E-1
1.631346013E1	3.617947817E0	1.116909790E1	-7.465606928E-1
1.632186315E1	4.267599106E0	1.136291695E1	-9.930213690E-1
1.633026617E1	4.494917393E0	1.161356449E1	-8.703892231E-1
1.633866919E1	4.439882278E0	1.152144146E1	-5.760720372E-1
1.634707221E1	4.191627026E0	1.094357395E1	-5.946164131E-1
1.635547523E1	3.671188116E0	1.009531879E1	-4.067798555E-1
1.636387825E1	3.056232691E0	9.236295700E0	-2.757728100E-1
1.637228127E1	2.522633314E0	8.657232285E0	-6.071787477E-1
1.638068429E1	1.992024899E0	8.458627701E0	-8.356932998E-1
1.638908731E1	1.480558991E0	8.428119659E0	-8.949156404E-1
1.639749033E1	1.007378340E0	8.423334122E0	-8.165507317E-1
1.640589335E1	6.376872063E-1	8.471788406E0	-7.298108935E-1
1.641429638E1	4.630111754E-1	8.479565620E0	-2.153540403E-1
1.642269940E1	5.533402562E-1	8.357531548E0	2.183450609E-1
1.643110242E1	9.846464992E-1	8.228319168E0	-4.546362907E-2
1.643950544E1	1.645663738E0	8.328219414E0	-7.208378315E-1
1.644790846E1	2.173879385E0	8.812167168E0	-9.493523836E-1
1.645631148E1	2.433500528E0	9.306285858E0	-4.713860750E-1
1.646471450E1	2.549552441E0	9.637093544E0	1.674975827E-2
1.647311752E1	2.731407166E0	9.888339996E0	3.272185028E-1
1.648152054E1	3.102294445E0	1.032682419E1	4.271188378E-1
1.648992356E1	3.591626883E0	1.099801064E1	9.553344250E-1
1.649832658E1	4.685744762E0	1.162493038E1	1.564906001E0
1.650672960E1	7.195217609E0	1.245284748E1	5.288137794E-1
1.651513262E1	8.693722725E0	1.424208069E1	-3.529413417E-2
1.652353565E1	6.321238995E0	1.471885014E1	2.317448616E0
1.653193867E1	9.577272534E-1	1.248754311E1	2.616551638E0
1.654034169E1	-4.778466702E0	9.966704369E0	4.295116663E-1
1.654874471E1	-1.050867844E1	8.550153732E0	-1.519442350E-1
1.655714773E1	-1.306481171E1	8.057829857E0	-1.495514154E0
1.656555075E1	-9.540184021E0	9.003593445E0	-4.741377831E0
1.657395377E1	-3.775874138E0	1.055174923E1	-5.120042324E0
1.658235679E1	4.079762697E-1	1.129172993E1	-1.910668850E0
1.659075981E1	3.018545866E0	1.085683441E1	1.059422255E0
1.659916283E1	4.850849628E0	9.893723488E0	2.458027124E0
1.660756585E1	5.606383324E0	9.068798065E0	2.992822886E0
1.661596888E1	5.018347263E0	8.632107735E0	2.524427891E0
1.662437190E1	2.981456995E0	8.754739761E0	7.118647099E-1
1.663277492E1	3.565305769E-1	9.396614075E0	-8.685946465E-1
1.664117794E1	-2.017149448E0	1.005045319E1	-1.114457130E0
1.664958096E1	-3.276372433E0	1.043629551E1	-1.174875975E0
1.665798398E1	-3.082553864E0	1.040518951E1	-1.224527001E0
1.666638700E1	-2.224726915E0	1.020658493E1	-9.014959335E-1
1.667479002E1	-1.381855130E0	1.001755238E1	-6.000002623E-1
1.668319304E1	-8.099704385E-1	9.920044899E0	-1.848455518E-1
1.669159606E1	-4.450650215E-1	9.879964828E0	6.807580590E-1
1.669999908E1	-1.812563092E-1	9.848857880E0	1.001396298E0
1.670840210E1	-2.003988922E-1	9.735796928E0	1.132403374E0
1.671680512E1	-6.245267391E-1	9.544969559E0	1.296311617E0
1.672520815E1	-9.619147182E-1	9.517452240E0	1.097707391E0
1.673361117E1	-1.014556766E0	9.692128181E0	1.043868899E0
1.674201419E1	-9.936196208E-1	9.811769485E0	1.156331539E0
1.675041721E1	-9.828519225E-1	9.713663101E0	1.225125194E0
1.675882023E1	-8.709874153E-1	9.628120422E0	1.173081279E0
1.676722325E1	-7.429714203E-1	9.650253296E0	1.042074203E0
1.677562627E1	-6.263213158E-1	9.744770050E0	1.003789067E0
1.678402929E1	-3.882354796E-1	9.808777809E0	9.996016622E-1
1.679243231E1	-9.690931439E-2	9.800403595E0	1.100698471E0
1.680083533E1	1.591227055E-1	9.739984512E0	9.744769931E-1
1.680923835E1	2.416750938E-1	9.791430473E0	8.249256015E-1
1.681764138E1	1.435693651E-1	9.873982430E0	6.382854581E-1
1.682604440E1	6.939185411E-2	9.863214493E0	2.973082066E-1
1.683444742E1	6.580262445E-3	9.805189133E0	1.860419661E-1
1.684285044E1	-6.161518395E-2	9.866206169E0	1.914258152E-1
1.685125346E1	-3.110669367E-2	1.005344391E1	3.176472187E-1
1.685965648E1	1.800599098E-1	1.015633583E1	4.019941986E-1
1.686805950E1	3.996013701E-1	1.000020409E1	3.529413342E-1
1.687646252E1	4.390829504E-1	9.790233612E0	1.746760458E-1
1.688486554E1	3.068794906E-1	9.766305923E0	8.374879509E-2
1.689326856E1	7.776673883E-2	1.001156998E1	1.776670814E-1
1.690167158E1	-5.144568533E-2	1.022453117E1	2.997010350E-1
1.691007460E1	-1.674975827E-2	1.026221848E1	3.631108403E-1
1.691847762E1	1.028913707E-1	1.013898754E1	4.133601189E-1
1.692688065E1	2.673979402E-1	9.926026344E0	5.617151260E-1
1.693528367E1	5.569294691E-1	9.718449593E0	7.686942816E-1
1.694368669E1	7.992027402E-1	9.606584549E0	9.200403094E-1
1.695208971E1	7.268198729E-1	9.650852203E0	1.023529887E0
1.696049273E1	2.871387303E-1	9.800403595E0	1.054038405E0
1.696889575E1	-6.759724021E-2	9.997811317E0	9.463613629E-1
1.697729877E1	-1.722832322E-1	1.016171932E1	8.338986635E-1
1.698570179E1	-1.549352705E-1	1.013958549E1	7.686942816E-1
1.699410481E1	-7.896314561E-2	1.006600666E1	6.556333899E-1
1.700250783E1	1.645065546E-1	9.946963310E0	4.660021961E-1
1.701091085E1	5.156532526E-1	9.765707016E0	3.445664644E-1
1.701931388E1	7.567301393E-1	9.635896683E0	1.746760458E-1
1.702771690E1	7.112665176E-1	9.737591743E0	3.804588020E-1
1.703611992E1	4.642075896E-1	9.969695091E0	6.101697683E-1
1.704452294E1	3.050848842E-1	1.010728264E1	7.447660565E-1
1.705292596E1	2.769692242E-1	1.003968525E1	8.297112584E-1
1.706132898E1	4.199403822E-1	9.881160736E0	9.176474810E-1
1.706973200E1	6.861419082E-1	9.673583984E0	1.141974568E0
1.707813502E1	1.034895778E0	9.476774216E0	1.281356573E0
1.708653804E1	1.322632670E0	9.341579437E0	1.304686546E0
1.709494106E1	1.450050473E0	9.287740707E0	1.284347534E0
1.710334408E1	1.390828133E0	9.266803741E0	1.217348576E0
1.711174710E1	1.223928809E0	9.260223389E0	1.161715388E0
1.712015013E1	1.159322619E0	9.279366493E0	9.864411354E-1
1.712855315E1	1.306481123E0	9.247062683E0	9.308080077E-1
1.713695617E1	1.642074585E0	9.176474571E0	9.589236975E-1
1.714535919E1	1.951346874E0	9.141180992E0	9.451649189E-1
1.715376221E1	2.077568293E0	9.154341698E0	9.553344250E-1
1.716216523E1	1.970489502E0	9.241679192E0	9.116654396E-1
1.717056825E1	1.665404558E0	9.404989243E0	9.080761671E-1
1.717897127E1	1.269990563E0	9.634101868E0	9.020941257E-1
1.718737429E1	9.541380405E-1	9.829116821E0	8.775677085E-1
1.719577731E1	1.033101201E0	9.941579819E0	8.380861282E-1
1.720418033E1	1.418345571E0	9.978070259E0	8.356932998E-1
1.721258335E1	1.725225091E0	9.946963310E0	8.225327730E-1
1.722098638E1	1.768295884E0	9.915857315E0	7.932206988E-1
1.722938940E1	1.637887120E0	9.955936432E0	5.868397355E-1
1.723779242E1	1.533799291E0	1.005643559E1	4.492524564E-1
1.724619544E1	1.442872047E0	1.014676476E1	3.655036688E-1
1.725459846E1	1.372283816E0	1.021914768E1	3.774677813E-1
1.726300148E1	1.425524116E0	1.023948669E1	3.678964674E-1
1.727140450E1	1.563709617E0	1.022333431E1	4.558327198E-1
1.727980752E1	1.705484390E0	1.017188931E1	5.126622319E-1
1.728821054E1	1.798804402E0	1.011924744E1	5.688936114E-1
1.729661356E1	1.872981906E0	1.003071213E1	5.036891699E-1
1.730501658E1	2.012363911E0	9.929018021E0	4.755735099E-1
