"Time (s)"	"Gyroscope x (rad/s)"	"Gyroscope y (rad/s)"	"Gyroscope z (rad/s)"
2.839973400E-2	5.955760833E-3	2.244863659E-2	-7.742489129E-2
3.680275500E-2	1.282779220E-2	2.641914412E-2	-9.254335612E-2
4.520577600E-2	2.000524849E-2	2.153236605E-2	-1.014006436E-1
5.360879700E-2	2.214321308E-2	6.566607859E-3	-8.383878320E-2
6.201181700E-2	1.572931744E-2	1.466033421E-2	-5.864133686E-2
7.041483800E-2	6.719320081E-3	4.459185153E-2	-4.184303805E-2
7.881785900E-2	-1.527118147E-4	6.566607952E-2	-3.466558084E-2
8.722088000E-2	-1.985253533E-3	7.207997888E-2	-2.825168520E-2
9.562390100E-2	1.527118147E-4	6.230641901E-2	-2.107422985E-2
1.040269220E-1	6.566607859E-3	4.459185153E-2	-1.282779220E-2
1.124299420E-1	7.330167107E-3	2.672456764E-2	-1.679830020E-3
1.208329630E-1	1.252236869E-2	1.420219894E-2	9.009997360E-3
1.292359840E-1	1.618745178E-2	6.719320081E-3	1.282779220E-2
1.376390050E-1	1.908897609E-2	7.177455351E-3	1.618745178E-2
1.460420260E-1	1.664558798E-2	4.886778072E-3	2.076880634E-2
1.544450470E-1	1.603474095E-2	1.527118147E-3	2.504473738E-2
1.628480670E-1	1.847812906E-2	3.817795310E-3	2.382304333E-2
1.712510880E-1	2.046338283E-2	1.298050396E-2	2.596100792E-2
1.796541090E-1	2.367033064E-2	1.252236869E-2	2.809897438E-2
1.880571300E-1	2.260134928E-2	1.191152167E-2	2.947338112E-2
1.964601510E-1	2.244863659E-2	1.771457121E-2	3.069507517E-2
2.048631720E-1	2.275406010E-2	1.298050396E-2	3.359659761E-2
2.132661920E-1	2.580829710E-2	6.108472589E-4	4.123219103E-2
2.216692130E-1	2.886253223E-2	-1.359135192E-2	4.474456236E-2
2.300722340E-1	2.977880463E-2	-2.305948362E-2	4.535540938E-2
2.384752550E-1	2.779355086E-2	-2.901524492E-2	4.413371533E-2
2.468782760E-1	2.473931387E-2	-2.916795574E-2	4.550812021E-2
2.552812970E-1	2.122694254E-2	-2.122694254E-2	4.367557913E-2
2.636843170E-1	1.649287529E-2	-6.108472589E-3	3.756710514E-2
2.720873380E-1	1.527118124E-2	6.566607859E-3	3.222219273E-2
2.804903590E-1	1.649287529E-2	5.803049076E-3	2.840439789E-2
2.888933800E-1	1.466033421E-2	-3.054236295E-3	2.321219631E-2
2.972964010E-1	1.068982668E-2	-1.099525020E-2	1.924168877E-2
3.056994220E-1	8.551862091E-3	-1.343864016E-2	1.511846948E-2
3.141024420E-1	6.413896102E-3	-6.872031838E-3	1.160609815E-2
3.225054630E-1	4.275931045E-3	1.679830020E-3	5.497625098E-3
3.309084840E-1	3.359660041E-3	2.596100792E-3	-0.000000000E0
3.393115050E-1	4.886778072E-3	2.137965523E-3	-6.261184346E-3
3.477145260E-1	1.053711493E-2	-5.039489828E-3	-8.246437646E-3
3.561175470E-1	1.206423342E-2	-1.603474095E-2	-6.261184346E-3
3.645205670E-1	9.162709117E-3	-1.725643501E-2	-5.039489828E-3
3.729235880E-1	4.734066315E-3	-1.084253844E-2	-6.413896102E-3
3.813266090E-1	4.123218823E-3	-2.443389036E-3	-9.773556143E-3
3.897296300E-1	7.177455351E-3	3.665083554E-3	-1.114796288E-2
3.981326510E-1	1.084253844E-2	2.901524538E-3	-1.206423342E-2
4.065356720E-1	1.130067464E-2	-4.734066315E-3	-1.191152167E-2
4.149386920E-1	1.359135192E-2	-1.374406368E-2	-1.236965694E-2
4.233417130E-1	1.572931744E-2	-1.588202827E-2	-1.343864016E-2
4.317447340E-1	1.328592747E-2	-1.084253844E-2	-1.298050396E-2
4.401477550E-1	1.298050396E-2	-2.596100792E-3	-1.206423342E-2
4.485507760E-1	1.191152167E-2	6.261184346E-3	-1.114796288E-2
4.569537970E-1	1.221694518E-2	7.482878864E-3	-1.023169141E-2
4.653568170E-1	1.084253844E-2	6.261184346E-3	-5.192201585E-3
4.737598380E-1	1.068982668E-2	3.359660041E-3	-2.443389036E-3
4.821628590E-1	1.068982668E-2	1.221694518E-3	7.635590737E-4
4.905658800E-1	1.664558798E-2	-8.704573847E-3	2.748812549E-3
4.989689010E-1	2.550287358E-2	-2.901524492E-2	7.788302377E-3
5.073719220E-1	3.985778242E-2	-5.955760926E-2	1.634016447E-2
5.157749420E-1	5.803048983E-2	-1.029277667E-1	2.611372061E-2
5.241779630E-1	7.345438004E-2	-1.511846930E-1	3.405473381E-2
5.325809840E-1	8.292251825E-2	-1.823379099E-1	3.894151375E-2
5.409840050E-1	8.063183725E-2	-1.782146841E-1	3.970507160E-2
5.493870260E-1	6.673506647E-2	-1.372879148E-1	3.466558084E-2
5.577900470E-1	4.291202128E-2	-6.627693027E-2	2.473931387E-2
5.661930670E-1	1.939439960E-2	1.572931744E-2	1.420219894E-2
5.745960880E-1	5.039489828E-3	9.040539712E-2	6.719320081E-3
5.829991090E-1	0.000000000E0	1.452289373E-1	7.330167107E-3
5.914021300E-1	4.581354442E-4	1.646233350E-1	9.468132630E-3
5.998051510E-1	3.206948051E-3	1.408002973E-1	1.466033421E-2
6.082081720E-1	1.359135192E-2	8.796200156E-2	1.557660475E-2
6.166111920E-1	2.428117767E-2	3.344388679E-2	1.954711229E-2
6.250142130E-1	3.451287001E-2	-7.330167107E-3	2.244863659E-2
6.334172340E-1	4.107947648E-2	-3.329117596E-2	2.580829710E-2
6.418202550E-1	4.474456236E-2	-4.443913698E-2	2.229592577E-2
6.502232760E-1	4.443913698E-2	-4.001049697E-2	2.107422985E-2
6.586262970E-1	4.107947648E-2	-1.725643501E-2	1.863084175E-2
6.670293170E-1	3.756710514E-2	1.252236869E-2	1.679829881E-2
6.754323380E-1	3.771981969E-2	3.863608837E-2	1.435491070E-2
6.838353590E-1	4.077405483E-2	6.001574174E-2	1.679829881E-2
6.922383800E-1	3.939964995E-2	6.627693027E-2	2.092151903E-2
7.006414010E-1	3.726168349E-2	5.818320066E-2	1.634016447E-2
7.090444220E-1	3.145863488E-2	4.001049697E-2	1.282779220E-2
7.174474420E-1	2.886253223E-2	2.168507688E-2	8.399149403E-3
7.258504630E-1	3.145863488E-2	6.261184346E-3	5.192201585E-3
7.342534840E-1	3.344388679E-2	-7.788302377E-3	4.428642802E-3
7.426565050E-1	3.252761811E-2	-1.221694518E-2	4.581354442E-4
7.510595260E-1	2.916795574E-2	-7.024743594E-3	-2.290677279E-3
7.594625470E-1	2.809897438E-2	3.359660041E-3	-1.985253533E-3
7.678655670E-1	2.901524492E-2	9.315420873E-3	-5.803049076E-3
7.762685880E-1	2.886253223E-2	7.330167107E-3	-7.330167107E-3
7.846716090E-1	2.901524492E-2	2.137965523E-3	-9.468132630E-3
7.930746300E-1	2.840439789E-2	-3.665083554E-3	-1.206423342E-2
8.014776510E-1	2.718270384E-2	-9.620844387E-3	-1.435491070E-2
8.098806720E-1	3.054236248E-2	-1.557660475E-2	-1.817270555E-2
8.182836920E-1	2.840439789E-2	-1.985253580E-2	-1.908897609E-2
8.266867130E-1	2.764083818E-2	-2.275406010E-2	-1.893626526E-2
8.350897340E-1	2.672456764E-2	-2.122694254E-2	-2.107422985E-2
8.434927550E-1	2.580829710E-2	-1.817270555E-2	-2.428117767E-2
8.518957760E-1	2.977880463E-2	-2.489202656E-2	-2.825168520E-2
8.602987970E-1	3.176405653E-2	-3.695625812E-2	-3.405473381E-2
8.687018170E-1	2.702999115E-2	-3.726168349E-2	-3.909422457E-2
8.771048380E-1	1.969982497E-2	-2.794626169E-2	-4.001049697E-2
8.855078590E-1	2.290677279E-2	-2.412846684E-2	-3.726168349E-2
8.939108800E-1	2.886253223E-2	-2.947338112E-2	-3.741439432E-2
9.023139010E-1	3.191677108E-2	-3.237490356E-2	-3.649812192E-2
9.107169220E-1	3.008422814E-2	-3.008422814E-2	-3.817795217E-2
9.191199420E-1	2.901524492E-2	-2.031067200E-2	-3.894151375E-2
9.275229630E-1	2.840439789E-2	-9.926267900E-3	-3.909422457E-2
9.359259840E-1	3.130592033E-2	2.748812549E-3	-4.123219103E-2
9.443290050E-1	3.344388679E-2	1.863084175E-2	-4.107947648E-2
9.527320260E-1	3.206948191E-2	3.054236248E-2	-3.909422457E-2
9.611350470E-1	3.634541109E-2	3.222219273E-2	-3.634541109E-2
9.695380670E-1	4.291202128E-2	3.038965166E-2	-2.962609194E-2
9.779410880E-1	5.115845799E-2	2.901524492E-2	-2.214321308E-2
9.863441090E-1	6.062658876E-2	2.382304333E-2	-1.893626526E-2
9.947471300E-1	7.223268598E-2	1.969982497E-2	-1.756185852E-2
1.003150151E0	8.047912270E-2	1.893626526E-2	-1.664558798E-2
1.011553172E0	8.231166750E-2	2.580829710E-2	-1.572931744E-2
1.019956192E0	8.506047726E-2	3.833066672E-2	-1.481304597E-2
1.028359213E0	8.903098851E-2	6.001574174E-2	-9.468132630E-3
1.036762234E0	9.422318637E-2	7.513421029E-2	-1.221694518E-3
1.045165255E0	1.024696305E-1	8.353336155E-2	4.734066315E-3
1.053568276E0	1.107160673E-1	8.124268800E-2	1.221694518E-2
1.061971297E0	1.226275861E-1	6.902574003E-2	1.756185852E-2
1.070374317E0	1.310267299E-1	6.077930331E-2	2.183778957E-2
1.078777338E0	1.360662282E-1	6.245913357E-2	3.329117596E-2
1.087180359E0	1.420219839E-1	8.108997345E-2	5.008947477E-2
1.095583380E0	1.524063945E-1	1.043021679E-1	6.215370819E-2
1.103986401E0	1.653869003E-1	1.160609797E-1	7.207997888E-2
1.112389422E0	1.711899489E-1	1.253764033E-1	8.292251825E-2
1.120792442E0	1.797417998E-1	1.372879148E-1	9.910997003E-2
1.129195463E0	1.973036677E-1	1.437018216E-1	1.267508119E-1
1.137598484E0	2.154763639E-1	1.447708011E-1	1.566823274E-1
1.146001505E0	2.278460264E-1	1.521009654E-1	1.757712960E-1
1.154404526E0	2.382304370E-1	1.731752008E-1	1.887518018E-1
1.162807547E0	2.509055138E-1	1.979145110E-1	1.960819662E-1
1.171210567E0	2.574721277E-1	2.257080674E-1	1.921114624E-1
1.179613588E0	2.524326444E-1	2.420482337E-1	1.834068894E-1
1.188016609E0	2.440334857E-1	2.620534599E-1	1.797417998E-1
1.196419630E0	2.400629669E-1	2.932066917E-1	1.890572309E-1
1.204822651E0	2.428117841E-1	3.182514310E-1	2.092151791E-1
1.213225672E0	2.458660156E-1	3.397837877E-1	2.279987335E-1
1.221628692E0	2.499892414E-1	3.555130959E-1	2.504473627E-1
1.230031713E0	2.518217862E-1	3.695625961E-1	2.823641598E-1
1.238434734E0	2.559449971E-1	3.665083647E-1	3.355078697E-1
1.246837755E0	2.562504113E-1	3.558185399E-1	3.955236077E-1
1.255240776E0	2.504473627E-1	3.477247953E-1	4.523324072E-1
1.263643797E0	2.394521236E-1	3.338280320E-1	5.070032477E-1
1.272046817E0	2.234173864E-1	3.014531136E-1	5.667135715E-1
1.280449838E0	1.986780763E-1	2.857238054E-1	6.268820167E-1
1.288852859E0	1.687465608E-1	2.916795611E-1	6.859814525E-1
1.297255880E0	1.334701329E-1	3.202366829E-1	7.350019813E-1
1.305658901E0	9.376505762E-2	3.689517379E-1	7.611156702E-1
1.314061922E0	5.665608495E-2	4.172086716E-1	7.753179073E-1
1.322464942E0	2.687728032E-2	4.468347728E-1	7.879929543E-1
1.330867963E0	1.374406274E-3	4.584408700E-1	8.014315963E-1
1.339270984E0	-2.122694254E-2	4.735593498E-1	8.134958148E-1
1.347674005E0	-3.313846514E-2	4.663818777E-1	8.275453448E-1
1.356077026E0	-3.726168349E-2	4.558447599E-1	8.377770185E-1
1.364480047E0	-4.856235534E-2	4.921901822E-1	8.244910836E-1
1.372883067E0	-1.731752008E-1	5.749599934E-1	7.606575489E-1
1.381286088E0	-2.880144715E-1	7.101099491E-1	6.195518374E-1
1.389689109E0	-2.478512824E-1	6.783458591E-1	5.399889946E-1
1.398092130E0	-1.658450365E-1	5.404471159E-1	5.147915483E-1
1.406495151E0	-1.432436854E-1	5.137225389E-1	4.645493329E-1
1.414898172E0	-1.896680743E-1	5.784723759E-1	3.921639323E-1
1.423301192E0	-2.501419485E-1	6.838434935E-1	2.904578745E-1
1.431704213E0	-2.831276953E-1	8.070819378E-1	1.565296054E-1
1.440107234E0	-2.864873707E-1	8.886300325E-1	2.244863659E-2
1.448510255E0	-2.678565085E-1	9.071081877E-1	-8.994726092E-2
1.456913276E0	-2.554868758E-1	8.701519370E-1	-1.806580722E-1
1.465316297E0	-2.608317733E-1	7.872294188E-1	-2.582356930E-1
1.473719317E0	-2.761029601E-1	6.817055345E-1	-3.332171738E-1
1.482122338E0	-2.808370292E-1	5.746545792E-1	-4.062134326E-1
1.490525359E0	-2.774773538E-1	4.934118688E-1	-4.694361091E-1
1.498928380E0	-2.667875290E-1	4.382829070E-1	-5.247178078E-1
1.507331401E0	-2.596100867E-1	3.773508966E-1	-5.783196688E-1
1.515734422E0	-2.605263591E-1	2.838912606E-1	-6.319214702E-1
1.524137442E0	-2.597627938E-1	1.676775664E-1	-6.833853722E-1
1.532540463E0	-2.486148328E-1	4.810422286E-2	-7.204943299E-1
1.540943484E0	-2.319692522E-1	-5.650337040E-2	-7.401941419E-1
1.549346505E0	-2.200577259E-1	-1.415638477E-1	-7.421793938E-1
1.557749526E0	-2.159345001E-1	-2.069245130E-1	-7.325585485E-1
1.566152547E0	-2.177670449E-1	-2.443388999E-1	-7.287407517E-1
1.574555567E0	-2.174616307E-1	-2.461714447E-1	-7.363763452E-1
1.582958588E0	-2.099787444E-1	-2.156290859E-1	-7.411104441E-1
1.591361609E0	-1.998997629E-1	-1.884463727E-1	-7.224795818E-1
1.599764630E0	-1.968455315E-1	-1.517955512E-1	-7.009472251E-1
1.608167651E0	-2.082989216E-1	-6.337540597E-2	-6.995728016E-1
1.616570672E0	-2.225011140E-1	4.123219103E-2	-7.113316059E-1
1.624973692E0	-2.313583940E-1	1.495048702E-1	-7.218687534E-1
1.633376713E0	-2.302894145E-1	2.516690791E-1	-7.258392572E-1
1.641779734E0	-2.212794125E-1	3.287885487E-1	-7.183563709E-1
1.650182755E0	-2.058555335E-1	3.744493723E-1	-7.087355256E-1
1.658585776E0	-1.922641695E-1	3.917058110E-1	-7.114843726E-1
1.666988797E0	-1.841704547E-1	3.994941115E-1	-7.211052179E-1
1.675391817E0	-1.797417998E-1	4.004103839E-1	-7.229377031E-1
1.683794838E0	-1.776038408E-1	3.903313875E-1	-7.072083950E-1
1.692197859E0	-1.542389393E-1	3.674246371E-1	-6.829272509E-1
1.700600880E0	-1.223221645E-1	3.313846290E-1	-6.503996253E-1
1.709003901E0	-9.788827598E-2	2.611372173E-1	-6.137487888E-1
1.717406922E0	-9.132166207E-2	2.035648525E-1	-5.899257660E-1
1.725809942E0	-1.091889441E-1	1.982199401E-1	-5.974085927E-1
1.734212963E0	-1.250709742E-1	2.136438340E-1	-6.106945276E-1
1.742615984E0	-1.276670843E-1	2.192941606E-1	-6.161921620E-1
1.751019005E0	-1.149920002E-1	1.994416267E-1	-6.109999418E-1
1.759422026E0	-9.468132257E-2	1.550024897E-1	-5.893148780E-1
1.767825047E0	-6.948387623E-2	7.299624383E-2	-5.525113344E-1
1.776228067E0	-5.268557742E-2	5.039489828E-3	-5.192201734E-1
1.784631088E0	-5.070032179E-2	-8.857285604E-3	-4.958552718E-1
1.793034109E0	-5.299099907E-2	-1.374406274E-3	-4.726430774E-1
1.801437130E0	-5.314370990E-2	1.328592747E-2	-4.451549351E-1
1.809840151E0	-3.451287001E-2	3.970507067E-3	-4.172086716E-1
1.818243172E0	-1.511846948E-2	4.321744293E-2	-4.164451063E-1
1.826646192E0	9.162708884E-4	9.819369763E-2	-3.962871730E-1
1.835049213E0	1.679830020E-3	1.036913246E-1	-3.477247953E-1
1.843452234E0	-1.664558798E-2	1.101052165E-1	-3.171824515E-1
1.851855255E0	-3.512371704E-2	1.426328421E-1	-3.086305857E-1
1.860258276E0	-3.939964995E-2	1.563768983E-1	-2.974826097E-1
1.868661297E0	-3.634541109E-2	1.553079188E-1	-2.849602401E-1
1.877064317E0	-4.001049697E-2	1.623326540E-1	-2.799207568E-1
1.885467338E0	-4.688252881E-2	1.524063945E-1	-2.802261710E-1
1.893870359E0	-4.764608666E-2	1.090362370E-1	-2.768665254E-1
1.902273380E0	-3.802524135E-2	5.085303262E-2	-2.704526186E-1
1.910676401E0	-2.932066843E-2	-1.084253844E-2	-2.623589039E-1
1.919079422E0	-1.939439960E-2	-8.399149776E-2	-2.515163720E-1
1.927482442E0	-1.160609815E-2	-1.606528312E-1	-2.475458533E-1
1.935885463E0	-9.162709117E-3	-2.234173864E-1	-2.513636351E-1
1.944288484E0	-7.024743594E-3	-2.722851634E-1	-2.588465214E-1
1.952691505E0	-2.137965523E-3	-3.083251417E-1	-2.637332976E-1
1.961094526E0	1.053711493E-2	-3.290939629E-1	-2.525853515E-1
1.969497547E0	1.557660475E-2	-3.895678520E-1	-2.136438340E-1
1.977900567E0	1.664558798E-2	-4.714213610E-1	-1.569877416E-1
1.986303588E0	1.053711493E-2	-5.373928547E-1	-9.193251282E-2
1.994706609E0	-4.581354442E-4	-5.845808387E-1	-2.779355086E-2
2.003109630E0	-2.229592577E-2	-5.813738704E-1	2.993151546E-2
2.011512651E0	-5.421269313E-2	-5.207473040E-1	8.032641560E-2
2.019915672E0	-7.559234649E-2	-4.159869850E-1	1.223221645E-1
2.028318692E0	-9.284878522E-2	-3.009949923E-1	1.459924877E-1
2.036721713E0	-1.110214889E-1	-1.800472289E-1	1.478250325E-1
2.045124734E0	-1.276670843E-1	-9.865183383E-2	1.430909634E-1
2.053527755E0	-1.108687744E-1	-1.064401343E-1	1.884463727E-1
2.061930776E0	-8.246438205E-2	-1.856975704E-1	2.751866877E-1
2.070333797E0	-9.880454093E-2	-2.209739983E-1	3.509317636E-1
2.078736817E0	-1.565296054E-1	-2.082989216E-1	4.196520746E-1
2.087139838E0	-1.861557066E-1	-2.367033064E-1	5.163186193E-1
2.095542859E0	-2.011214644E-1	-1.945548505E-1	5.590779781E-1
2.103945880E0	-2.683146596E-1	4.230117425E-2	5.054761171E-1
2.112348901E0	-4.101839364E-1	3.996468186E-1	3.582619131E-1
2.120751922E0	-4.795151055E-1	5.732801557E-1	2.793098986E-1
2.129154942E0	-4.653128982E-1	5.537330508E-1	3.400892019E-1
2.137557963E0	-3.674246371E-1	2.715215981E-1	5.853443742E-1
2.145960984E0	-2.157817930E-1	-2.174616307E-1	8.907679915E-1
2.154364005E0	-6.642963737E-2	-7.281299233E-1	1.111283898E0
2.162767026E0	2.031067200E-2	-1.068219185E0	1.190235853E0
2.171170047E0	1.038440317E-2	-1.144880533E0	1.142437100E0
2.179573067E0	-6.810946763E-2	-9.936957955E-1	1.013395548E0
2.187976088E0	-1.724116355E-1	-7.058340311E-1	8.484668136E-1
2.196379109E0	-2.449497581E-1	-4.008685052E-1	7.046123147E-1
2.204782130E0	-2.712161839E-1	-1.088835225E-1	6.203153729E-1
2.213185151E0	-2.536543310E-1	1.885990947E-1	6.035171151E-1
2.221588172E0	-2.402156889E-1	4.324798584E-1	6.125270724E-1
2.229991192E0	-2.557922900E-1	5.248705149E-1	5.975613594E-1
2.238394213E0	-2.783936262E-1	4.575245976E-1	5.702258945E-1
2.246797234E0	-2.757975459E-1	2.870981991E-1	5.729747415E-1
2.255200255E0	-2.617480457E-1	1.572931707E-1	6.000047326E-1
2.263603276E0	-2.640387416E-1	1.169772521E-1	6.148177385E-1
2.272006297E0	-2.765611112E-1	1.563768983E-1	6.004628539E-1
2.280409317E0	-2.851129472E-1	2.733541429E-1	5.786250830E-1
2.288812338E0	-2.922904193E-1	4.034646153E-1	5.580089688E-1
2.297215359E0	-2.869454920E-1	4.753918648E-1	5.409052372E-1
2.305618380E0	-2.870981991E-1	4.208737612E-1	5.363239050E-1
2.314021401E0	-2.704526186E-1	2.930539846E-1	5.410579443E-1
2.322424422E0	-2.560977042E-1	1.670667231E-1	5.435013771E-1
2.330827442E0	-2.480039895E-1	1.084253863E-1	5.248705149E-1
2.339230463E0	-2.547233105E-1	1.250709742E-1	4.963133931E-1
2.347633484E0	-2.709107697E-1	1.760767251E-1	4.686725736E-1
2.356036505E0	-2.765611112E-1	2.321219593E-1	4.373666346E-1
2.364439526E0	-2.825168669E-1	2.527380586E-1	4.146125913E-1
2.372842547E0	-2.706053257E-1	2.535016239E-1	4.017847776E-1
2.381245567E0	-2.464768738E-1	2.370087355E-1	4.092676640E-1
2.389648588E0	-2.212794125E-1	1.774511337E-1	4.333961308E-1
2.398051609E0	-1.950129867E-1	7.895200700E-2	4.483618736E-1
2.406454630E0	-1.747023165E-1	-2.886253223E-2	4.491254389E-1
2.414857651E0	-1.577513069E-1	-1.110214889E-1	4.448495209E-1
2.423260672E0	-1.302631795E-1	-1.403421611E-1	4.399627447E-1
2.431663692E0	-1.204896197E-1	-1.302631795E-1	4.271349311E-1
2.440066713E0	-1.133121699E-1	-9.315420687E-2	4.094203711E-1
2.448469734E0	-1.061347127E-1	-7.727217674E-2	3.914003670E-1
2.456872755E0	-9.636115283E-2	-7.162184268E-2	3.674246371E-1
2.465275776E0	-9.284878522E-2	-6.551336497E-2	3.342861533E-1
2.473678797E0	-9.177979827E-2	-5.512896553E-2	3.045073450E-1
2.482081817E0	-9.025268257E-2	-3.451287001E-2	2.762556672E-1
2.490484838E0	-8.872556686E-2	-1.572931744E-2	2.515163720E-1
2.498887859E0	-8.521319181E-2	-1.527118124E-2	2.299840003E-1
2.507290880E0	-8.154810965E-2	-2.779355086E-2	2.093679011E-1
2.515693901E0	-8.002099395E-2	-4.581354558E-2	1.947075576E-1
2.524096922E0	-7.421794534E-2	-5.650337040E-2	1.798945218E-1
2.532499942E0	-7.085828483E-2	-5.329642445E-2	1.695101112E-1
2.540902963E0	-6.627693027E-2	-5.925218388E-2	1.551551968E-1
2.549305984E0	-6.169557199E-2	-7.024743408E-2	1.382041872E-1
2.557709005E0	-5.787777901E-2	-7.941014320E-2	1.159082651E-1
2.566112026E0	-5.467082933E-2	-8.903098851E-2	9.468132257E-2
2.574515047E0	-5.100574717E-2	-8.750387281E-2	8.139539510E-2
2.582918067E0	-5.100574717E-2	-7.360709459E-2	7.925742865E-2
2.591321088E0	-4.153761268E-2	-6.826218218E-2	8.154810965E-2
2.599724109E0	-3.084778599E-2	-7.574506104E-2	8.872556686E-2
2.608127130E0	-2.153236605E-2	-9.208522737E-2	1.009425074E-1
2.616530151E0	-9.620844387E-3	-1.209477559E-1	1.105633527E-1
2.624933172E0	1.985253533E-3	-1.456870735E-1	1.107160673E-1
2.633336192E0	9.468132630E-3	-1.589729935E-1	1.136175916E-1
2.641739213E0	1.466033421E-2	-1.734806150E-1	1.204896197E-1
2.650142234E0	2.305948362E-2	-1.852394342E-1	1.288887709E-1
2.658545255E0	3.176405653E-2	-1.974563748E-1	1.345391124E-1
2.666948276E0	3.970507160E-2	-2.073826492E-1	1.385096163E-1
2.675351297E0	4.978405312E-2	-2.176143378E-1	1.498102844E-1
2.683754317E0	6.032116711E-2	-2.199050188E-1	1.638597846E-1
2.692157338E0	6.810946763E-2	-2.008160353E-1	1.714953631E-1
2.700560359E0	7.742489129E-2	-1.751604527E-1	1.788255423E-1
2.708963380E0	8.994726092E-2	-1.583621502E-1	1.838650256E-1
2.717366401E0	1.006370857E-1	-1.488940120E-1	1.875301152E-1
2.725769422E0	1.075091213E-1	-1.238492802E-1	1.902789176E-1
2.734172442E0	1.149920002E-1	-7.834116369E-2	1.959292591E-1
2.742575463E0	1.156028435E-1	-2.977880463E-2	1.960819662E-1
2.750978484E0	1.105633527E-1	2.229592577E-2	1.892099380E-1
2.759381505E0	1.064401343E-1	6.154286116E-2	1.873773932E-1
2.767784526E0	1.146865711E-1	6.658235192E-2	1.971509457E-1
2.776187547E0	1.185043678E-1	1.756185852E-2	2.024958730E-1
2.784590567E0	1.203369126E-1	-3.023693897E-2	2.159345001E-1
2.792993588E0	1.186570823E-1	-6.749862432E-2	2.437280566E-1
2.801396609E0	1.122431830E-1	-8.078455180E-2	2.655658424E-1
2.809799630E0	1.056765765E-1	-6.963659078E-2	2.735068500E-1
2.818202651E0	1.058292910E-1	-5.864133686E-2	2.814478874E-1
2.826605672E0	1.078145429E-1	-3.894151375E-2	2.861819267E-1
2.835008692E0	1.128540337E-1	-2.565558441E-2	2.922904193E-1
2.843411713E0	1.214058921E-1	-2.901524492E-2	3.046600819E-1
2.851814734E0	1.328592747E-1	-3.741439432E-2	3.194731176E-1
2.860217755E0	1.424801201E-1	-4.871506989E-2	3.384093940E-1
2.868620776E0	1.531699449E-1	-5.497625470E-2	3.558185399E-1
2.877023797E0	1.655396074E-1	-5.329642445E-2	3.640649617E-1
2.885426817E0	1.783674061E-1	-3.023693897E-2	3.665083647E-1
2.893829838E0	1.864611208E-1	5.650337320E-3	3.686463237E-1
2.902232859E0	1.933331639E-1	2.702999115E-2	3.732276857E-1
2.910635880E0	2.018850148E-1	2.580829710E-2	3.773508966E-1
2.919038901E0	2.186833173E-1	1.298050396E-2	3.831539452E-1
2.927441922E0	2.272351831E-1	-1.496575773E-2	4.013266563E-1
2.935844942E0	2.435753495E-1	-5.360184610E-2	4.265241027E-1
2.944247963E0	2.586938143E-1	-1.035386100E-1	4.448495209E-1
2.952650984E0	2.768665254E-1	-1.377460510E-1	4.598152637E-1
2.961054005E0	2.971771955E-1	-1.467560530E-1	4.781406820E-1
2.969457026E0	3.263451457E-1	-1.637070626E-1	4.982986450E-1
2.977860047E0	3.584146202E-1	-1.876828223E-1	5.083776116E-1
2.986263067E0	3.889569938E-1	-2.157817930E-1	5.129590034E-1
2.994666088E0	4.167505503E-1	-2.524326444E-1	5.138752460E-1
3.003069109E0	4.337015450E-1	-3.083251417E-1	5.097520351E-1
3.011472130E0	4.352286756E-1	-3.785725832E-1	5.021164417E-1
3.019875151E0	4.343124032E-1	-4.448495209E-1	4.978405237E-1
3.028278172E0	4.259132445E-1	-4.969242513E-1	4.949389994E-1
3.036681192E0	4.265241027E-1	-5.352548957E-1	4.816530645E-1
3.045084213E0	4.471401870E-1	-5.719057322E-1	4.129327536E-1
3.053487234E0	4.643966258E-1	-6.102364063E-1	2.683146596E-1
3.061890255E0	4.691306949E-1	-7.024743557E-1	1.722589284E-1
3.070293276E0	4.892886579E-1	-8.664868474E-1	2.336490750E-1
3.078696297E0	4.779879749E-1	-1.013395548E0	4.488200247E-1
3.087099317E0	4.216373265E-1	-9.970554113E-1	6.261184216E-1
3.095502338E0	3.578037918E-1	-8.913788795E-1	7.058340311E-1
3.103905359E0	3.058817685E-1	-7.806627750E-1	7.527165413E-1
3.112308380E0	2.713688910E-1	-6.369609833E-1	8.247964978E-1
3.120711401E0	2.254026383E-1	-4.914266169E-1	9.225320816E-1
3.129114422E0	1.892099380E-1	-3.939964771E-1	1.017060637E0
3.137517442E0	1.840177327E-1	-3.332171738E-1	1.085475564E0
3.145920463E0	1.557660550E-1	-2.408265322E-1	1.125180602E0
3.154323484E0	1.142284349E-1	-1.058292910E-1	1.147476554E0
3.162726505E0	7.360709459E-2	4.856235534E-2	1.149767280E0
3.171129526E0	3.130592033E-2	2.026485801E-1	1.126860499E0
3.179532547E0	-7.330167107E-3	3.121429384E-1	1.089140654E0
3.187935567E0	-3.298575059E-2	3.614688516E-1	1.014617324E0
3.196338588E0	-6.322269142E-2	3.805578351E-1	8.562551737E-1
3.204741609E0	-9.529217333E-2	4.697415531E-1	6.400152445E-1
3.213144630E0	-1.325538605E-1	5.888567567E-1	4.572191834E-1
3.221547651E0	-1.461452097E-1	6.630746722E-1	3.564293683E-1
3.229950672E0	-1.192679256E-1	6.407787800E-1	3.028275371E-1
3.238353692E0	-7.162184268E-2	5.248705149E-1	2.461714447E-1
3.246756713E0	-1.527118124E-2	3.738385141E-1	1.696628332E-1
3.255159734E0	2.779355086E-2	2.617480457E-1	7.238540053E-2
3.263562755E0	3.924693540E-2	2.385358512E-1	-3.313846514E-2
3.271965776E0	3.695625812E-2	2.953446507E-1	-1.375933439E-1
3.280368797E0	3.710897267E-2	3.888042867E-1	-2.299840003E-1
3.288771817E0	4.153761268E-2	4.868452549E-1	-3.087832928E-1
3.297174838E0	4.947862774E-2	5.570927262E-1	-3.810159862E-1
3.305577859E0	5.238015205E-2	5.809157491E-1	-4.457657933E-1
3.313980880E0	4.550812021E-2	5.647283196E-1	-4.973823726E-1
3.322383901E0	3.634541109E-2	5.253286362E-1	-5.413633585E-1
3.330786922E0	2.748812735E-2	4.770717025E-1	-5.890094638E-1
3.339189942E0	1.801999472E-2	4.191939235E-1	-6.372663975E-1
3.347592963E0	1.542389300E-2	3.599417508E-1	-6.820109487E-1
3.355995984E0	2.107422985E-2	3.023693860E-1	-7.165238261E-1
3.364399005E0	3.451287001E-2	2.406738251E-1	-7.444701195E-1
3.372802026E0	4.672981426E-2	1.866138428E-1	-7.727217674E-1
3.381205047E0	4.902049154E-2	1.519482583E-1	-8.058602214E-1
3.389608067E0	4.169032723E-2	1.398840249E-1	-8.422056437E-1
3.398011088E0	2.535016090E-2	1.427855492E-1	-8.791618943E-1
3.406414109E0	6.566607859E-3	1.624853760E-1	-9.182561636E-1
3.414817130E0	-9.773556143E-3	1.823379099E-1	-9.546015263E-1
3.423220151E0	-2.351761982E-2	1.875301152E-1	-9.837695360E-1
3.431623172E0	-3.130592033E-2	1.698155403E-1	-1.013242841E0
3.440026192E0	-3.833066672E-2	1.475196183E-1	-1.035996914E0
3.448429213E0	-4.153761268E-2	1.174353883E-1	-1.046992183E0
3.456832234E0	-3.436015919E-2	6.474980712E-2	-1.047297597E0
3.465235255E0	-2.641914412E-2	-1.527118147E-3	-1.042105436E0
3.473638276E0	-1.725643501E-2	-5.268557742E-2	-1.041036487E0
3.482041297E0	-9.315420873E-3	-8.078455180E-2	-1.037676811E0
3.490444317E0	-2.748812549E-3	-1.038440317E-1	-1.036913276E0
3.498847338E0	4.886778072E-3	-9.605573118E-2	-1.061041713E0
3.507250359E0	6.413896102E-3	-4.703523964E-2	-1.104869962E0
3.515653380E0	1.221694518E-3	1.252236869E-2	-1.135870457E0
3.524056401E0	-5.497625098E-3	6.047387794E-2	-1.149461865E0
3.532459422E0	-1.282779220E-2	9.880454093E-2	-1.165954709E0
3.540862442E0	-1.725643501E-2	9.055810422E-2	-1.189625025E0
3.549265463E0	-1.634016447E-2	3.069507517E-2	-1.200009465E0
3.557668484E0	-2.458660305E-2	-5.161659420E-2	-1.191915751E0
3.566071505E0	-4.230117425E-2	-9.498675168E-2	-1.186418056E0
3.574474526E0	-5.512896553E-2	-9.559759498E-2	-1.186723471E0
3.582877547E0	-4.963133857E-2	-9.315420687E-2	-1.179393291E0
3.591280567E0	-2.764083818E-2	-1.282779276E-1	-1.138466597E0
3.599683588E0	-8.551862091E-3	-1.918060333E-1	-1.070967913E0
3.608086609E0	1.038440317E-2	-2.793098986E-1	-1.000415087E0
3.616489630E0	3.588727489E-2	-3.350497186E-1	-9.683456421E-1
3.624892651E0	3.833066672E-2	-3.225273490E-1	-9.660549164E-1
3.633295672E0	1.924168877E-2	-3.220692277E-1	-9.254335761E-1
3.641698692E0	-6.108472589E-3	-3.402419090E-1	-8.339592218E-1
3.650101713E0	-1.068982668E-2	-3.096995652E-1	-7.632536292E-1
3.658504734E0	6.872031838E-3	-2.486148328E-1	-7.359182239E-1
3.666907755E0	2.473931387E-2	-2.032594234E-1	-7.218687534E-1
3.675310776E0	1.878355257E-2	-1.950129867E-1	-6.781931520E-1
3.683713797E0	4.275931045E-3	-1.905843467E-1	-6.050441861E-1
3.692116817E0	-8.551862091E-3	-1.592784226E-1	-5.392253995E-1
3.700519838E0	-1.236965694E-2	-9.284878522E-2	-5.140279531E-1
3.708922859E0	-1.450762246E-2	-6.261184346E-3	-5.160132051E-1
3.717325880E0	-2.076880634E-2	8.460234851E-2	-5.013529062E-1
3.725728901E0	-2.504473738E-2	1.386623234E-1	-4.672981501E-1
3.734131922E0	-2.626643144E-2	1.568350345E-1	-4.317162931E-1
3.742534942E0	-2.611372061E-2	1.545443535E-1	-3.981196880E-1
3.750937963E0	-3.191677108E-2	1.484358907E-1	-3.718532622E-1
3.759340984E0	-4.367557913E-2	1.588202864E-1	-3.591781855E-1
3.767744005E0	-5.558710173E-2	1.762294322E-1	-3.457395434E-1
3.776147026E0	-5.909947306E-2	1.908897758E-1	-3.231382072E-1
3.784550047E0	-5.650337040E-2	1.934858710E-1	-2.858765125E-1
3.792953067E0	-4.520269856E-2	1.640124917E-1	-2.356343269E-1
3.801356088E0	-2.412846684E-2	1.139230132E-1	-1.818797737E-1
3.809759109E0	-1.832541823E-2	8.429691941E-2	-1.611109674E-1
3.818162130E0	-2.596100792E-2	8.292251825E-2	-1.756185889E-1
3.826565151E0	-3.527642787E-2	7.849387079E-2	-1.948602796E-1
3.834968172E0	-5.054761097E-2	9.376505762E-2	-2.229592502E-1
3.843371192E0	-6.581879407E-2	1.522536725E-1	-2.654131353E-1
3.851774213E0	-6.765133142E-2	1.725643575E-1	-2.959555089E-1
3.860177234E0	-5.650337040E-2	1.246128380E-1	-3.107685447E-1
3.868580255E0	-4.779879749E-2	6.734590977E-2	-3.251234591E-1
3.876983276E0	-4.291202128E-2	1.466033421E-2	-3.494046330E-1
3.885386297E0	-4.764608666E-2	-3.787253052E-2	-3.810159862E-1
3.893789317E0	-5.772506446E-2	-9.361234307E-2	-4.043808877E-1
3.902192338E0	-7.314895838E-2	-1.346918195E-1	-4.181249440E-1
3.910595359E0	-8.567132801E-2	-1.620272398E-1	-4.274403751E-1
3.918998380E0	-8.231166750E-2	-2.046338320E-1	-4.286620617E-1
3.927401401E0	-8.108997345E-2	-2.644968629E-1	-4.278984964E-1
3.935804422E0	-9.788827598E-2	-3.197785318E-1	-4.277457893E-1
3.944207442E0	-1.212531775E-1	-3.785725832E-1	-4.103366435E-1
3.952610463E0	-1.223221645E-1	-4.731011987E-1	-3.458922505E-1
3.961013484E0	-1.125486046E-1	-5.986303091E-1	-2.374668717E-1
3.969416505E0	-1.044548824E-1	-6.937697530E-1	-1.259872466E-1
3.977819526E0	-1.163664013E-1	-7.143858671E-1	-3.710897267E-2
3.986222547E0	-1.351499557E-1	-7.091936469E-1	7.910472155E-2
3.994625567E0	-1.197260618E-1	-7.238540053E-1	2.735068500E-1
4.003028588E0	-7.986827940E-2	-8.293778896E-1	5.931326747E-1
4.011431609E0	-1.038440317E-2	-9.941539168E-1	1.020573020E0
4.019834630E0	1.084253844E-2	-9.610154629E-1	1.321109891E0
4.028237651E0	-1.014006436E-1	-2.657185495E-1	1.239714503E0
4.036640672E0	-3.136700690E-1	9.413156509E-1	8.333483934E-1
4.045043692E0	-5.254813433E-1	1.910882950E0	4.239279926E-1
4.053446713E0	-6.577298045E-1	2.426285267E0	1.850867122E-1
4.061849734E0	-6.681141853E-1	2.602972984E0	1.487413049E-1
4.070252755E0	-5.109737515E-1	2.392535925E0	3.403946459E-1
4.078655776E0	-2.376195788E-1	1.628518820E0	6.700994372E-1
4.087058797E0	2.855710872E-2	4.333961308E-1	9.651386738E-1
4.095461817E0	1.809635013E-1	-7.499676943E-1	1.134343386E0
4.103864838E0	1.995943487E-1	-1.426022887E0	1.204590797E0
4.112267859E0	1.516428292E-1	-1.536738992E0	1.205965161E0
4.120670880E0	1.062874198E-1	-1.244143128E0	1.132968903E0
4.129073901E0	6.520794332E-2	-7.461498976E-1	9.875873327E-1
4.137476922E0	-4.306473210E-2	-1.464506239E-1	8.009734750E-1
4.145879942E0	-2.061609477E-1	5.036435723E-1	6.177192926E-1
4.154282963E0	-3.416163325E-1	1.078908920E0	4.882196784E-1
4.162685984E0	-3.836120665E-1	1.352263093E0	4.553866386E-1
4.171089005E0	-3.642176688E-1	1.307365894E0	4.850127101E-1
4.179492026E0	-3.318427801E-1	1.022558331E0	5.309789777E-1
4.187895047E0	-2.988570333E-1	6.166502833E-1	5.706840754E-1
4.196298067E0	-2.528907657E-1	2.496838123E-1	5.854970813E-1
4.204701088E0	-2.107423097E-1	4.260659590E-2	5.818319917E-1
4.213104109E0	-2.144073844E-1	-3.084778599E-2	5.871769190E-1
4.221507130E0	-2.386885732E-1	-4.856235534E-2	6.109999418E-1
4.229910151E0	-2.425063550E-1	-5.467082933E-2	6.100836992E-1
4.238313172E0	-2.483094037E-1	-1.985253580E-2	5.728220344E-1
4.246716192E0	-2.591519356E-1	8.383878320E-2	5.186093450E-1
4.255119213E0	-2.744231224E-1	2.115058601E-1	4.828747511E-1
4.263522234E0	-3.005368412E-1	2.812951505E-1	4.723376334E-1
4.271925255E0	-3.101576865E-1	2.683146596E-1	4.815003574E-1
4.280328276E0	-2.918322682E-1	1.992889196E-1	5.034908652E-1
4.288731297E0	-2.776300907E-1	1.320957243E-1	5.364766121E-1
4.297134317E0	-2.608317733E-1	5.467082933E-2	5.737382770E-1
4.305537338E0	-2.481566966E-1	-3.558185324E-2	6.003101468E-1
4.313940359E0	-2.362451702E-1	-1.004843712E-1	6.022953987E-1
4.322343380E0	-2.215848416E-1	-1.291942000E-1	5.967977643E-1
4.330746401E0	-2.078407854E-1	-1.189625040E-1	5.922164321E-1
4.339149422E0	-2.037175596E-1	-1.009425074E-1	5.859552622E-1
4.347552442E0	-1.895153672E-1	-9.483403713E-2	5.778614879E-1
4.355955463E0	-1.661504507E-1	-1.047603041E-1	5.673243999E-1
4.364358484E0	-1.452289373E-1	-1.148392856E-1	5.590779781E-1
4.372761505E0	-1.218640283E-1	-1.105633527E-1	5.483881235E-1
4.381164526E0	-1.041494608E-1	-1.033858955E-1	5.303681493E-1
4.389567547E0	-8.719844371E-2	-8.689302206E-2	5.030327439E-1
4.397970567E0	-7.162184268E-2	-6.352811307E-2	4.708105326E-1
4.406373588E0	-6.306997687E-2	-4.443913698E-2	4.422534108E-1
4.414776609E0	-5.848862603E-2	-3.619270027E-2	4.233171642E-1
4.423179630E0	-4.825693369E-2	-3.680354729E-2	4.088095427E-1
4.431582651E0	-3.756710514E-2	-5.971032009E-2	3.953709006E-1
4.439985672E0	-2.641914412E-2	-7.864658535E-2	3.765873313E-1
4.448388692E0	-1.863084175E-2	-9.972081333E-2	3.585673273E-1
4.456791713E0	-7.330167107E-3	-1.169772521E-1	3.429907262E-1
4.465194734E0	2.748812549E-3	-1.308740228E-1	3.231382072E-1
4.473597755E0	6.872031838E-3	-1.496575773E-1	3.081724346E-1
4.482000776E0	1.114796288E-2	-1.601946950E-1	2.956500649E-1
4.490403797E0	1.236965694E-2	-1.687465608E-1	2.861819267E-1
4.498806817E0	1.542389300E-2	-1.685938388E-1	2.811424434E-1
4.507209838E0	1.710372418E-2	-1.664558798E-1	2.809897363E-1
4.515612859E0	1.969982497E-2	-1.667613089E-1	2.831276953E-1
4.524015880E0	2.702999115E-2	-1.748550236E-1	2.823641598E-1
4.532418901E0	3.252761811E-2	-1.812689304E-1	2.761029601E-1
4.540821922E0	3.420744836E-2	-1.753131598E-1	2.767138183E-1
4.549224942E0	3.527642787E-2	-1.670667231E-1	2.874036431E-1
4.557627963E0	4.214845970E-2	-1.757712960E-1	2.948864996E-1
4.566030984E0	4.978405312E-2	-1.847812980E-1	3.022166789E-1
4.574434005E0	5.772506446E-2	-1.844758689E-1	3.095468581E-1
4.582837026E0	6.291726977E-2	-1.792836636E-1	3.161134422E-1
4.591240047E0	6.719319522E-2	-1.795890927E-1	3.168770075E-1
4.599643067E0	7.162184268E-2	-1.885990947E-1	3.185568452E-1
4.608046088E0	7.681404054E-2	-1.916533262E-1	3.274141252E-1
4.616449109E0	8.429691941E-2	-2.008160353E-1	3.361186981E-1
4.624852130E0	9.407047927E-2	-2.122694254E-1	3.370349705E-1
4.633255151E0	1.027750522E-1	-2.082989216E-1	3.319954872E-1
4.641658172E0	1.036913246E-1	-2.069245130E-1	3.319954872E-1
4.650061192E0	1.052184403E-1	-2.084516287E-1	3.332171738E-1
4.658464213E0	1.094943732E-1	-1.991362125E-1	3.255815804E-1
4.666867234E0	1.099525094E-1	-1.815743446E-1	3.162661791E-1
4.675270255E0	1.188097894E-1	-1.750077456E-1	3.193204105E-1
4.683673276E0	1.221694499E-1	-1.574458778E-1	3.196258247E-1
4.692076297E0	1.269035190E-1	-1.505738497E-1	3.164188862E-1
4.700479317E0	1.269035190E-1	-1.430909634E-1	3.142809272E-1
4.708882338E0	1.264453828E-1	-1.192679256E-1	3.161134422E-1
4.717285359E0	1.256818175E-1	-8.765657991E-2	3.171824515E-1
4.725688380E0	1.322484314E-1	-6.108472496E-2	3.093941510E-1
4.734091401E0	1.470614821E-1	-6.016845629E-2	3.028275371E-1
4.742494422E0	1.553079188E-1	-8.796200156E-2	3.148917556E-1
4.750897442E0	1.684411317E-1	-1.250709742E-1	3.454341292E-1
4.759300463E0	1.820324808E-1	-1.722589284E-1	3.746020794E-1
4.767703484E0	1.954711229E-1	-1.892099380E-1	3.842229247E-1
4.776106505E0	2.089097649E-1	-1.992889196E-1	3.924693763E-1
4.784509526E0	2.203631550E-1	-2.327328026E-1	4.144598544E-1
4.792912547E0	2.360924631E-1	-2.501419485E-1	4.482091665E-1
4.801315567E0	2.467822880E-1	-2.614426315E-1	4.909684956E-1
4.809718588E0	2.603736520E-1	-2.901524603E-1	5.392253995E-1
4.818121609E0	2.735068500E-1	-2.971771955E-1	5.661026835E-1
4.826524630E0	2.820587158E-1	-2.719797492E-1	5.996993184E-1
4.834927651E0	2.910687327E-1	-2.518217862E-1	6.445965767E-1
4.843330672E0	3.054236174E-1	-2.432699203E-1	6.821636558E-1
4.851733692E0	3.208475113E-1	-2.461714447E-1	7.191199064E-1
4.860136713E0	3.289412558E-1	-2.600682080E-1	7.589777112E-1
4.868539734E0	3.532224298E-1	-2.948864996E-1	8.096780181E-1
4.876942755E0	3.964398801E-1	-3.492519259E-1	8.886300325E-1
4.885345776E0	4.376720488E-1	-4.582881629E-1	8.971819282E-1
4.893748797E0	4.850127101E-1	-6.390989423E-1	8.533536196E-1
4.902151817E0	5.427377820E-1	-8.551861644E-1	8.689302206E-1
4.910554838E0	5.850389600E-1	-9.946120381E-1	9.683456421E-1
4.918957859E0	5.917583108E-1	-1.042716265E0	1.087002754E0
4.927360880E0	5.673243999E-1	-1.013853788E0	1.185807228E0
4.935763901E0	5.195255876E-1	-8.875610828E-1	1.249488115E0
4.944166922E0	4.534013867E-1	-6.641436815E-1	1.266591787E0
4.952569942E0	3.900259733E-1	-4.022429287E-1	1.275601745E0
4.960972963E0	3.327590525E-1	-1.488940120E-1	1.292247415E0
4.969375984E0	2.840439677E-1	9.239064902E-2	1.300646544E0
4.977779005E0	2.279987335E-1	2.785463631E-1	1.298508525E0
4.986182026E0	1.812689304E-1	4.156815708E-1	1.282931924E0
4.994585047E0	1.479777545E-1	5.951179266E-1	1.235285878E0
5.002988067E0	1.140757278E-1	7.811209559E-1	1.180767775E0
5.011391088E0	8.551861346E-2	9.315420985E-1	1.119835734E0
5.019794109E0	6.306997687E-2	1.039967418E0	1.032942772E0
5.028197130E0	4.550812021E-2	1.085933685E0	9.284878373E-1
5.036600151E0	2.626643144E-2	1.045006990E0	7.988355160E-1
5.045003172E0	3.130592033E-2	9.626953006E-1	6.442911625E-1
5.053406192E0	4.902049154E-2	8.475505710E-1	4.863871336E-1
5.061809213E0	7.956285775E-2	7.412631512E-1	3.460449576E-1
5.070212234E0	8.872556686E-2	6.212316751E-1	2.571666837E-1
5.078615255E0	8.383878320E-2	4.886777997E-1	2.026485801E-1
5.087018276E0	8.826743066E-2	3.694098890E-1	1.394258887E-1
5.095421297E0	1.085781008E-1	2.762556672E-1	5.115845799E-2
5.103824317E0	1.287360638E-1	2.180724740E-1	-6.032116711E-2
5.112227338E0	1.366770715E-1	2.199050188E-1	-1.829487532E-1
5.120630359E0	1.285833418E-1	2.712161839E-1	-3.060344756E-1
5.129033380E0	1.030804738E-1	3.431434333E-1	-4.158342779E-1
5.137436401E0	7.177454978E-2	4.101839364E-1	-5.112791657E-1
5.145839422E0	4.306473210E-2	4.616478086E-1	-5.928272605E-1
5.154242442E0	1.695101149E-2	5.060869455E-1	-6.769714952E-1
5.162645463E0	-1.313321572E-2	5.254813433E-1	-7.718055248E-1
5.171048484E0	-4.062134400E-2	5.196782947E-1	-8.788564801E-1
5.179451505E0	-6.215370819E-2	4.912739098E-1	-9.830059409E-1
5.187854526E0	-7.818844914E-2	4.236225784E-1	-1.068677306E0
5.196257547E0	-8.994726092E-2	3.248180151E-1	-1.138313890E0
5.204660567E0	-9.666658193E-2	2.038702667E-1	-1.195580840E0
5.213063588E0	-1.053711548E-1	5.879404768E-2	-1.251778722E0
5.221466609E0	-1.246128380E-1	-7.879929990E-2	-1.309809208E0
5.229869630E0	-1.418692768E-1	-2.075353563E-1	-1.359135151E0
5.238272651E0	-1.466033459E-1	-3.553603888E-1	-1.389219403E0
5.246675672E0	-1.511846930E-1	-4.909684956E-1	-1.418234587E0
5.255078692E0	-1.580567211E-1	-5.761816502E-1	-1.451831222E0
5.263481713E0	-1.572931707E-1	-6.534538269E-1	-1.459314108E0
5.271884734E0	-1.459924877E-1	-7.426375747E-1	-1.420830727E0
5.280287755E0	-1.432436854E-1	-8.616000414E-1	-1.347681761E0
5.288690776E0	-1.472141892E-1	-9.564340711E-1	-1.324469566E0
5.297093797E0	-1.626380831E-1	-9.257390499E-1	-1.398534775E0
5.305496817E0	-1.736333370E-1	-8.634325862E-1	-1.477639556E0
5.313899838E0	-1.750077456E-1	-8.141067028E-1	-1.493521571E0
5.322302859E0	-1.885990947E-1	-7.632536292E-1	-1.464811683E0
5.330705880E0	-2.060082406E-1	-6.992673874E-1	-1.440072417E0
5.339108901E0	-2.115058601E-1	-6.908682585E-1	-1.430604339E0
5.347511922E0	-2.041756958E-1	-6.963658929E-1	-1.440225124E0
5.355914942E0	-1.953184158E-1	-6.814001203E-1	-1.450762272E0
5.364317963E0	-1.963873953E-1	-6.242858768E-1	-1.464048147E0
5.372720984E0	-2.130329758E-1	-4.909684956E-1	-1.489398360E0
5.381124005E0	-2.315111160E-1	-3.162661791E-1	-1.519482613E0
5.389527026E0	-2.399102598E-1	-1.568350345E-1	-1.551093936E0
5.397930047E0	-2.460187376E-1	-7.024743594E-3	-1.592020631E0
5.406333067E0	-2.556395829E-1	1.200314835E-1	-1.621646762E0
5.414736088E0	-2.646495700E-1	2.220429778E-1	-1.630809426E0
5.423139109E0	-2.736595869E-1	2.941229641E-1	-1.636154413E0
5.431542130E0	-2.806843221E-1	3.141281903E-1	-1.640277624E0
5.439945151E0	-2.761029601E-1	2.974826097E-1	-1.645775199E0
5.448348172E0	-2.557922900E-1	2.660239935E-1	-1.644400835E0
5.456751192E0	-2.228065431E-1	2.151709497E-1	-1.616607308E0
5.465154213E0	-1.944021434E-1	1.240019947E-1	-1.576749444E0
5.473557234E0	-1.762294322E-1	2.473931387E-2	-1.564837933E0
5.481960255E0	-1.692046970E-1	-2.290677279E-2	-1.595838428E0
5.490363276E0	-1.605001241E-1	-3.268032894E-2	-1.612178683E0
5.498766297E0	-1.510319859E-1	-7.253811508E-2	-1.588966489E0
5.507169317E0	-1.377460510E-1	-1.449235082E-1	-1.550635815E0
5.515572338E0	-1.183516532E-1	-2.206685692E-1	-1.521009684E0
5.523975359E0	-9.147437662E-2	-2.881672084E-1	-1.498866439E0
5.532378380E0	-6.093201414E-2	-3.333698809E-1	-1.461146593E0
5.540781401E0	-5.833591148E-2	-3.636068404E-1	-1.394869685E0
5.549184422E0	-8.200624585E-2	-3.045073450E-1	-1.377766013E0
5.557587442E0	-1.032331884E-1	-2.009687424E-1	-1.381583810E0
5.565990463E0	-1.102579311E-1	-1.185043678E-1	-1.364480019E0
5.574393484E0	-9.987352788E-2	-4.062134400E-2	-1.333632231E0
5.582796505E0	-8.994726092E-2	8.047912270E-2	-1.323858738E0
5.591199526E0	-9.376505762E-2	2.354816198E-1	-1.336075664E0
5.599602547E0	-1.125486046E-1	3.807105422E-1	-1.350125194E0
5.608005567E0	-1.348445266E-1	4.779879749E-1	-1.340656996E0
5.616408588E0	-1.391204596E-1	5.282301903E-1	-1.287665963E0
5.624811609E0	-1.146865711E-1	5.054761171E-1	-1.136481285E0
5.633214630E0	-9.071081877E-2	3.975088596E-1	-8.756495714E-1
5.641617651E0	-9.101624042E-2	3.655920923E-1	-6.471926570E-1
5.650020672E0	-1.099525094E-1	4.923428893E-1	-5.503733754E-1
5.658423692E0	-1.530172378E-1	6.923953891E-1	-5.690042377E-1
5.666826713E0	-2.028012872E-1	8.594620824E-1	-6.129852533E-1
5.675229734E0	-2.229592502E-1	8.620582223E-1	-5.628957748E-1
5.683632755E0	-1.980672181E-1	6.766660213E-1	-3.996468186E-1
5.692035776E0	-1.336228400E-1	3.254288733E-1	-1.678302884E-1
5.700438797E0	-4.062134400E-2	-1.572931707E-1	9.910997003E-2
5.708841817E0	4.627167806E-2	-6.204680800E-1	3.707842827E-1
5.717244838E0	1.139230132E-1	-1.031873703E0	6.878139973E-1
5.725647859E0	1.455343664E-1	-1.417623758E0	1.045617819E0
5.734050880E0	1.064401343E-1	-1.559187651E0	1.299577594E0
5.742453901E0	-1.634016447E-2	-1.295759797E0	1.333937645E0
5.750856922E0	-2.635805905E-1	-4.436278343E-1	1.074174881E0
5.759259942E0	-5.832064152E-1	7.663078904E-1	6.633801460E-1
5.767662963E0	-7.731798887E-1	1.915158868E0	2.785463631E-1
5.776065984E0	-7.434011102E-1	2.627406836E0	9.498675168E-2
5.784469005E0	-4.964661002E-1	2.406738281E0	3.271087110E-1
5.792872026E0	-1.440072358E-1	1.278045177E0	8.852704167E-1
5.801275047E0	1.039967462E-1	-1.163664013E-1	1.335006714E0
5.809678067E0	1.127013192E-1	-1.065470338E0	1.419761777E0
5.818081088E0	2.321219631E-2	-1.218793035E0	1.228566527E0
5.826484109E0	-4.474456236E-2	-8.910734653E-1	1.016907930E0
5.834887130E0	-9.101624042E-2	-4.172086716E-1	8.794673681E-1
5.843290151E0	-1.918060333E-1	7.162184268E-2	7.689039707E-1
5.851693172E0	-3.642176688E-1	5.328115225E-1	6.082511544E-1
5.860096192E0	-4.773771465E-1	7.499676943E-1	4.569137394E-1
5.868499213E0	-4.827220440E-1	7.336275578E-1	3.703261614E-1
5.876902234E0	-4.530959427E-1	6.494833231E-1	3.394783735E-1
5.885305255E0	-4.422534108E-1	5.066977739E-1	3.506263196E-1
5.893708276E0	-4.356867969E-1	3.110739589E-1	3.865135908E-1
5.902111297E0	-4.146125913E-1	1.214058921E-1	4.219427407E-1
5.910514317E0	-3.717005551E-1	-1.679829881E-2	4.471401870E-1
5.918917338E0	-3.397837877E-1	-1.009425074E-1	4.718795121E-1
5.927320359E0	-3.126010895E-1	-1.476723254E-1	4.940227270E-1
5.935723380E0	-2.768665254E-1	-1.534753740E-1	4.998257756E-1
5.944126401E0	-2.545706034E-1	-1.421747059E-1	5.094466209E-1
5.952529422E0	-2.307475507E-1	-1.400367320E-1	5.291464329E-1
5.960932442E0	-2.047865391E-1	-1.325538605E-1	5.399889946E-1
5.969335463E0	-1.809635013E-1	-1.065928489E-1	5.373928547E-1
5.977738484E0	-1.528645307E-1	-8.444963396E-2	5.390726924E-1
5.986141505E0	-1.354553849E-1	-7.207997888E-2	5.425850749E-1
5.994544526E0	-1.166718230E-1	-5.512896553E-2	5.450284481E-1
6.002947547E0	-8.964183182E-2	-5.268557742E-2	5.459447503E-1
6.011350567E0	-7.040014863E-2	-5.879404768E-2	5.392253995E-1
6.019753588E0	-5.207473040E-2	-6.749862432E-2	5.270084739E-1
6.028156609E0	-3.665083647E-2	-7.696675509E-2	5.095993280E-1
6.036559630E0	-3.985778242E-2	-6.597150117E-2	4.850127101E-1
6.044962651E0	-5.497625470E-2	-5.833591148E-2	4.541649222E-1
6.053365672E0	-6.291726977E-2	-5.604523420E-2	4.196520746E-1
6.061768692E0	-6.719319522E-2	-4.398100078E-2	4.016320705E-1
6.070171713E0	-6.627693027E-2	-6.413896382E-2	3.981196880E-1
6.078574734E0	-5.726693198E-2	-1.093416587E-1	3.965925872E-1
6.086977755E0	-5.360184610E-2	-1.566823274E-1	3.892624080E-1
6.095380776E0	-5.879404768E-2	-1.837123185E-1	3.717005551E-1
6.103783797E0	-6.734590977E-2	-1.673721522E-1	3.613161445E-1
6.112186817E0	-7.650861889E-2	-1.365243644E-1	3.550549746E-1
6.120589838E0	-7.788302749E-2	-1.221694499E-1	3.516952991E-1
6.128992859E0	-7.085828483E-2	-1.330119967E-1	3.524588645E-1
6.137395880E0	-5.421269313E-2	-1.491994411E-1	3.655920923E-1
6.145798901E0	-3.833066672E-2	-1.678302884E-1	3.825430870E-1
6.154201922E0	-2.825168520E-2	-2.014268786E-1	3.892624080E-1
6.162604942E0	-1.801999472E-2	-2.408265322E-1	3.901786804E-1
6.171007963E0	-1.695101149E-2	-2.722851634E-1	3.965925872E-1
6.179410984E0	-1.313321572E-2	-2.927485406E-1	4.194993675E-1
6.187814005E0	-6.566607859E-3	-3.080197275E-1	4.454603493E-1
6.196217026E0	3.665083554E-3	-3.214583695E-1	4.666872919E-1
6.204620047E0	1.206423342E-2	-3.402419090E-1	4.836383164E-1
6.213023067E0	1.832541823E-2	-3.539859951E-1	4.992149174E-1
6.221426088E0	2.580829710E-2	-3.568875194E-1	5.140279531E-1
6.229829109E0	3.695625812E-2	-3.558185399E-1	5.251759291E-1
6.238232130E0	4.504998401E-2	-3.367295563E-1	5.378510356E-1
6.246635151E0	5.390727147E-2	-3.205420971E-1	5.599942207E-1
6.255038172E0	6.581879407E-2	-2.962609231E-1	5.700731874E-1
6.263441192E0	6.719319522E-2	-2.733541429E-1	5.647283196E-1
6.271844213E0	6.994201243E-2	-2.528907657E-1	5.635066032E-1
6.280247234E0	7.452336699E-2	-2.509055138E-1	5.647283196E-1
6.288650255E0	8.460234851E-2	-2.415900975E-1	5.628957748E-1
6.297053276E0	8.964183182E-2	-2.174616307E-1	5.703786016E-1
6.305456297E0	9.025268257E-2	-1.940967143E-1	5.787777901E-1
6.313859317E0	9.300149232E-2	-1.724116355E-1	5.824428797E-1
6.322262338E0	9.407047927E-2	-1.626380831E-1	5.824428797E-1
6.330665359E0	1.001789495E-1	-1.637070626E-1	5.859552622E-1
6.339068380E0	1.082726792E-1	-1.968455315E-1	5.868715048E-1
6.347471401E0	1.131594554E-1	-2.209739983E-1	5.821374655E-1
6.355874422E0	1.131594554E-1	-2.249445021E-1	5.812211633E-1
6.364277442E0	1.157555580E-1	-2.229592502E-1	5.798467398E-1
6.372680463E0	1.264453828E-1	-2.031067163E-1	5.716003180E-1
6.381083484E0	1.336228400E-1	-1.777565479E-1	5.648810267E-1
6.389486505E0	1.388150454E-1	-1.763821393E-1	5.688515306E-1
6.397889526E0	1.420219839E-1	-1.892099380E-1	5.763344169E-1
6.406292547E0	1.473668963E-1	-2.005106062E-1	5.813738704E-1
6.414695567E0	1.540862173E-1	-1.998997629E-1	5.844281316E-1
6.423098588E0	1.591257155E-1	-1.866138428E-1	5.809157491E-1
6.431501609E0	1.679829955E-1	-1.739387512E-1	5.792359114E-1
6.439904630E0	1.846285909E-1	-1.695101112E-1	5.832064152E-1
6.448307651E0	1.973036677E-1	-1.797417998E-1	5.917583108E-1
6.456710672E0	2.082989216E-1	-1.963873953E-1	6.015318632E-1
6.465113692E0	2.186833173E-1	-2.003578991E-1	6.113054156E-1
6.473516713E0	2.247917950E-1	-1.953184158E-1	6.186355352E-1
6.481919734E0	2.327328026E-1	-1.899735034E-1	6.190937161E-1
6.490322755E0	2.367033064E-1	-1.724116355E-1	6.134433746E-1
6.498725776E0	2.454078794E-1	-1.711899489E-1	6.094728708E-1
6.507128797E0	2.560977042E-1	-1.867665499E-1	6.035171151E-1
6.515531817E0	2.576248348E-1	-1.740914732E-1	6.076403260E-1
6.523934838E0	2.629697323E-1	-1.392731816E-1	6.294780970E-1
6.532337859E0	2.785463631E-1	-1.130067408E-1	6.478035450E-1
6.540740880E0	3.025220931E-1	-8.368607610E-2	6.517740488E-1
6.549143901E0	3.203893900E-1	-7.360709459E-2	6.617003083E-1
6.557546922E0	3.480302393E-1	-1.270562261E-1	6.849125028E-1
6.565949942E0	3.738385141E-1	-2.368560284E-1	7.069029808E-1
6.574352963E0	4.007157981E-1	-3.220692277E-1	7.438592315E-1
6.582755984E0	4.417952895E-1	-4.097257853E-1	8.084563613E-1
6.591159005E0	5.053234100E-1	-5.480827093E-1	8.480086923E-1
6.599562026E0	5.488462448E-1	-7.408050299E-1	8.309049606E-1
6.607965047E0	5.903838873E-1	-8.799254894E-1	8.005153537E-1
6.616368067E0	6.615476012E-1	-9.471186996E-1	7.829535007E-1
6.624771088E0	7.214106321E-1	-1.016907930E0	8.281561732E-1
6.633174109E0	7.401941419E-1	-1.037676811E0	9.729269743E-1
6.641577130E0	6.946860552E-1	-9.156600237E-1	1.119988441E0
6.649980151E0	6.218425035E-1	-6.713211536E-1	1.194053650E0
6.658383172E0	5.554128885E-1	-3.503209054E-1	1.215738773E0
6.666786192E0	4.921901822E-1	-2.214321308E-2	1.238340139E0
6.675189213E0	4.265241027E-1	2.874036431E-1	1.261094213E0
6.683592234E0	3.639122546E-1	5.593833923E-1	1.284917235E0
6.691995255E0	3.133646548E-1	8.025006056E-1	1.309198380E0
6.700398276E0	2.733541429E-1	1.010188699E0	1.337908268E0
6.708801297E0	2.287622988E-1	1.144116879E0	1.389219403E0
6.717204317E0	1.843231618E-1	1.236812949E0	1.466186166E0
6.725607338E0	1.212531775E-1	1.280335903E0	1.518108130E0
6.734010359E0	6.994201243E-2	1.449540496E0	1.440988660E0
6.742413380E0	3.970507160E-2	1.679982662E0	1.282626510E0
6.750816401E0	2.412846684E-2	1.776801944E0	1.161678791E0
6.759219422E0	9.162708884E-4	1.732210159E0	1.094332814E0
6.767622442E0	-1.863084175E-2	1.579040170E0	1.050199151E0
6.776025463E0	-1.863084175E-2	1.353790283E0	9.776610136E-1
6.784428484E0	-7.482878864E-3	1.079977989E0	8.753440976E-1
6.792831505E0	9.468132630E-3	7.722636461E-1	7.646280527E-1
6.801234526E0	7.024743594E-3	5.412106514E-1	6.114581227E-1
6.809637547E0	-2.107422985E-2	4.387410581E-1	4.318690002E-1
6.818040567E0	-2.458660305E-2	3.594835997E-1	3.031329513E-1
6.826443588E0	9.009997360E-3	2.461714447E-1	2.728960216E-1
6.834846609E0	8.231166750E-2	4.734066129E-2	3.836120665E-1
6.843249630E0	2.443389036E-3	-2.299840003E-1	4.839437306E-1
6.851652651E0	-9.834641218E-2	-1.317902952E-1	2.507528067E-1
6.860055672E0	-1.472141892E-1	2.183778957E-2	-1.021642014E-1
6.868458692E0	-1.873773932E-1	3.054236248E-2	-3.924693763E-1
6.876861713E0	-2.692309320E-1	1.408002973E-1	-7.255338430E-1
6.885264734E0	-2.999260128E-1	4.268295169E-1	-1.048213840E0
6.893667755E0	-2.330382317E-1	4.592044353E-1	-1.188556075E0
6.902070776E0	-1.342336833E-1	9.162709117E-2	-1.193595529E0
6.910473797E0	-6.551336497E-2	-3.222219348E-1	-1.250557065E0
6.918876817E0	-4.963133857E-2	-6.132906675E-1	-1.382500052E0
6.927279838E0	-3.894151375E-2	-8.722898960E-1	-1.479013920E0
6.935682859E0	-8.704573847E-3	-1.071273327E0	-1.506043911E0
6.944085880E0	5.955760833E-3	-1.102884769E0	-1.545901656E0
6.952488901E0	8.093725890E-3	-1.023627281E0	-1.607597232E0
6.960891922E0	5.497625098E-3	-9.072608948E-1	-1.678913713E0
6.969294942E0	-1.160609815E-2	-7.232431769E-1	-1.750993609E0
6.977697963E0	-4.703523964E-2	-4.766135812E-1	-1.829029441E0
6.986100984E0	-8.124268800E-2	-1.991362125E-1	-1.915006161E0
6.994504005E0	-8.674030751E-2	2.428117767E-2	-1.980519533E0
7.002907026E0	-6.658235192E-2	1.470614821E-1	-2.007244110E0
7.011310047E0	-4.535540938E-2	1.852394342E-1	-2.008465767E0
7.019713067E0	-3.359659761E-2	1.716480851E-1	-2.009382010E0
7.028116088E0	-1.313321572E-2	1.189625040E-1	-2.010298252E0
7.036519109E0	1.389677543E-2	7.834116369E-2	-2.006022453E0
7.044922130E0	3.420744836E-2	7.452336699E-2	-1.998539567E0
7.053325151E0	4.169032723E-2	1.110214889E-1	-2.002815485E0
7.061728172E0	3.710897267E-2	1.834068894E-1	-2.031525373E0
7.070131192E0	3.298575059E-2	2.770192325E-1	-2.078255177E0
7.078534213E0	3.023693897E-2	3.512371778E-1	-2.110935450E0
7.086937234E0	2.061609551E-2	4.037700295E-1	-2.117043972E0
7.095340255E0	1.282779220E-2	3.973561525E-1	-2.119639874E0
7.103743276E0	1.450762246E-2	3.408527672E-1	-2.128802776E0
7.112146297E0	1.847812906E-2	2.675510943E-1	-2.137812614E0
7.120549317E0	1.496575773E-2	1.737860441E-1	-2.112157106E0
7.128952338E0	2.244863659E-2	1.039967462E-1	-2.073521137E0
7.137355359E0	5.909947306E-2	1.131594554E-1	-2.061762094E0
7.145758380E0	1.217113137E-1	1.423274130E-1	-2.059777021E0
7.154161401E0	1.936385781E-1	1.200314835E-1	-2.046032906E0
7.162564422E0	2.409792393E-1	1.178935245E-1	-2.003578901E0
7.170967442E0	2.385358512E-1	5.039490014E-2	-1.886143565E0
7.179370463E0	1.850867122E-1	-4.474456236E-2	-1.768708229E0
7.187773484E0	1.032331884E-1	1.021642014E-1	-1.772678733E0
7.196176505E0	6.566607859E-3	4.573718905E-1	-1.882478595E0
7.204579526E0	-6.047387794E-2	7.559235096E-1	-1.985864401E0
7.212982547E0	-7.986827940E-2	8.707627654E-1	-1.990751266E0
7.221385567E0	-5.833591148E-2	8.148702383E-1	-1.896069884E0
7.229788588E0	-1.007897966E-2	5.774033666E-1	-1.737707734E0
7.238191609E0	3.726168349E-2	2.289150059E-1	-1.587744713E0
7.246594630E0	6.139015034E-2	-9.727742523E-2	-1.474890709E0
7.254997651E0	7.605048269E-2	-3.342861533E-1	-1.391662717E0
7.263400672E0	1.041494608E-1	-4.906630516E-1	-1.285528064E0
7.271803692E0	1.513374150E-1	-6.166502833E-1	-1.134801507E0
7.280206713E0	1.655396074E-1	-7.325585485E-1	-9.805625677E-1
7.288609734E0	1.415638477E-1	-8.296833038E-1	-8.842014074E-1
7.297012755E0	9.391776472E-2	-8.260182142E-1	-8.730534315E-1
7.305415776E0	5.940489471E-2	-8.020424247E-1	-8.669449687E-1
7.313818797E0	4.978405312E-2	-8.528954983E-1	-7.893673778E-1
7.322221817E0	4.734066129E-2	-9.585720897E-1	-6.343649030E-1
7.330624838E0	3.924693540E-2	-1.020573020E0	-4.672981501E-1
7.339027859E0	5.650337040E-2	-1.097692490E0	-2.834331393E-1
7.347430880E0	1.084253863E-1	-1.223068953E0	-8.689302206E-2
7.355833901E0	1.029277667E-1	-1.302326322E0	8.460234851E-2
7.364236922E0	3.100049868E-2	-1.279114127E0	2.272351831E-1
7.372639942E0	-1.059819981E-1	-1.215738773E0	4.158342779E-1
7.381042963E0	-2.777827978E-1	-1.346612811E0	7.519529462E-1
7.389445984E0	-3.599417508E-1	-1.406323075E0	1.030652046E0
7.397849005E0	-5.373928547E-1	-8.461761475E-1	8.206732869E-1
7.406252026E0	-8.299887180E-1	5.598415136E-1	1.357607991E-1
7.414655047E0	-1.070815206E0	1.969218850E0	-3.422271907E-1
7.423058067E0	-1.054933190E0	2.510276794E0	-4.657710344E-2
7.431461088E0	-7.469134927E-1	2.117960215E0	7.913526297E-1
7.439864109E0	-2.841966748E-1	1.001636744E0	1.467102408E0
7.448267130E0	1.488940120E-1	-3.946073353E-1	1.587744713E0
7.456670151E0	3.703261614E-1	-1.283237338E0	1.370435834E0
7.465073172E0	2.970244884E-1	-1.428008199E0	1.167329073E0
7.473476192E0	8.276980370E-2	-1.197413325E0	1.235438585E0
7.481879213E0	-3.955236077E-2	-9.611681700E-1	1.382500052E0
7.490282234E0	-6.627693027E-2	-7.678350210E-1	1.372573733E0
7.498685255E0	-8.994726092E-2	-5.522059202E-1	1.154654026E0
7.507088276E0	-1.569877416E-1	-2.744231224E-1	9.159654379E-1
7.515491297E0	-2.325800955E-1	3.527642787E-2	8.148702383E-1
7.523894317E0	-2.973299026E-1	3.032856584E-1	8.093726039E-1
7.532297338E0	-3.182514310E-1	4.196520746E-1	7.924215794E-1
7.540700359E0	-3.055763543E-1	3.836120665E-1	7.171346545E-1
7.549103380E0	-2.961082160E-1	3.355078697E-1	6.326850653E-1
7.557506401E0	-2.652604282E-1	3.167243004E-1	5.952706337E-1
7.565909422E0	-2.046338320E-1	2.437280566E-1	6.259657145E-1
7.574312442E0	-1.450762302E-1	7.788302749E-2	6.772769094E-1
7.582715463E0	-9.620844573E-2	-1.348445266E-1	7.131641507E-1
7.591118484E0	-4.489727318E-2	-3.428380191E-1	7.204943299E-1
7.599521505E0	-4.581354442E-4	-4.760027230E-1	7.014053464E-1
7.607924526E0	5.344913341E-3	-4.665345848E-1	6.426113248E-1
7.616327547E0	-3.649812192E-2	-2.890834510E-1	5.367820263E-1
7.624730567E0	-8.704573661E-2	-4.016320780E-2	4.162923992E-1
7.633133588E0	-1.128540337E-1	1.601946950E-1	3.243598938E-1
7.641536609E0	-1.278197914E-1	2.858765125E-1	2.531961799E-1
7.649939630E0	-1.368297935E-1	3.293993771E-1	2.069245130E-1
7.658342651E0	-1.236965731E-1	2.733541429E-1	2.046338320E-1
7.666745672E0	-8.780929446E-2	1.551551968E-1	2.342599183E-1
7.675148692E0	-5.497625470E-2	4.581354442E-4	2.646495700E-1
7.683551713E0	-3.695625812E-2	-1.261399537E-1	2.648022771E-1
7.691954734E0	-2.764083818E-2	-1.707318127E-1	2.487675399E-1
7.700357755E0	-2.748812735E-2	-1.597365588E-1	2.344126403E-1
7.708760776E0	-3.634541109E-2	-1.159082651E-1	2.137965411E-1
7.717163797E0	-4.642439261E-2	-5.314370990E-2	1.826433241E-1
7.725566817E0	-5.268557742E-2	-5.650337320E-3	1.540862173E-1
7.733969838E0	-5.528167635E-2	-5.955760833E-3	1.440072358E-1
7.742372859E0	-5.711421743E-2	-2.367033064E-2	1.397313178E-1
7.750775880E0	-6.810946763E-2	-8.093725890E-3	1.272089481E-1
7.759178901E0	-7.696675509E-2	2.779355086E-2	1.252236813E-1
7.767581922E0	-7.773031294E-2	5.848862603E-2	1.320957243E-1
7.775984942E0	-7.467607409E-2	5.543438718E-2	1.426328421E-1
7.784387963E0	-6.719319522E-2	3.222219273E-2	1.508792788E-1
7.792790984E0	-6.490252167E-2	7.482878864E-3	1.592784226E-1
7.801194005E0	-6.047387794E-2	-5.803049076E-3	1.623326540E-1
7.809597026E0	-5.696150661E-2	-8.704573847E-3	1.624853760E-1
7.818000047E0	-5.497625470E-2	1.527118147E-3	1.652341783E-1
7.826403067E0	-5.482354015E-2	2.168507688E-2	1.701209545E-1
7.834806088E0	-5.650337040E-2	4.260659590E-2	1.754658818E-1
7.843209109E0	-5.100574717E-2	5.176930502E-2	1.864611208E-1
7.851612130E0	-4.489727318E-2	5.283828825E-2	1.998997629E-1
7.860015151E0	-4.291202128E-2	5.497625470E-2	2.104368806E-1
7.868418172E0	-4.321744293E-2	3.939964995E-2	2.157817930E-1
7.876821192E0	-3.741439432E-2	1.496575773E-2	2.206685692E-1
7.885224213E0	-2.993151546E-2	9.162709117E-3	2.310529798E-1
7.893627234E0	-2.596100792E-2	9.926267900E-3	2.596100867E-1
7.902030255E0	-1.801999472E-2	8.857285604E-3	2.893888950E-1
7.910433276E0	-8.857285604E-3	1.527118124E-2	3.055763543E-1
7.918836297E0	1.985253533E-3	1.236965694E-2	3.226800561E-1
7.927239317E0	9.773556143E-3	2.596100792E-3	3.345915973E-1
7.935642338E0	1.221694518E-2	4.734066315E-3	3.306210935E-1
7.944045359E0	1.206423342E-2	1.450762246E-2	3.171824515E-1
7.952448380E0	1.710372418E-2	4.657710344E-2	3.060344756E-1
7.960851401E0	2.351761982E-2	7.299624383E-2	3.028275371E-1
7.969254422E0	3.313846514E-2	7.375980914E-2	3.022166789E-1
7.977657442E0	4.199574888E-2	6.887302548E-2	3.011476994E-1
7.986060463E0	5.238015205E-2	5.757235363E-2	3.086305857E-1
7.994463484E0	6.016845629E-2	4.688252881E-2	3.210002482E-1
8.002866505E0	6.536065787E-2	3.603998944E-2	3.266505599E-1
8.011269526E0	6.749862432E-2	3.771981969E-2	3.246653080E-1
8.019672547E0	6.642963737E-2	6.139015034E-2	3.197785318E-1
8.028075567E0	6.963659078E-2	8.124268800E-2	3.216110766E-1
8.036478588E0	8.017370105E-2	7.757759839E-2	3.274141252E-1
8.044881609E0	8.979454637E-2	6.306997687E-2	3.306210935E-1
8.053284630E0	1.061347127E-1	2.855710872E-2	3.384093940E-1
8.061687651E0	1.299577504E-1	-1.282779220E-2	3.454341292E-1
8.070090672E0	1.398840249E-1	-1.725643501E-2	3.475720882E-1
8.078493692E0	1.398840249E-1	1.634016447E-2	3.497100472E-1
8.086896713E0	1.403421611E-1	5.467082933E-2	3.520007432E-1
8.095299734E0	1.403421611E-1	8.383878320E-2	3.489464819E-1
8.103702755E0	1.400367320E-1	1.059819981E-1	3.478775024E-1
8.112105776E0	1.418692768E-1	1.169772521E-1	3.518480062E-1
8.120508797E0	1.440072358E-1	1.073564067E-1	3.588727713E-1
8.128911817E0	1.487413049E-1	7.040014863E-2	3.626905680E-1
8.137314838E0	1.560714692E-1	2.519745007E-2	3.687990308E-1
8.145717859E0	1.614163816E-1	4.886778072E-3	3.804051280E-1
8.154120880E0	1.652341783E-1	-9.468132630E-3	3.938437700E-1
8.162523901E0	1.771457046E-1	-4.856235534E-2	4.065188468E-1
8.170926922E0	1.904316396E-1	-8.353336155E-2	4.065188468E-1
8.179329942E0	1.977618039E-1	-1.004843712E-1	4.083513916E-1
8.187732963E0	2.026485801E-1	-1.101052165E-1	4.194993675E-1
8.196135984E0	2.076880634E-1	-1.195733473E-1	4.260659516E-1
8.204539005E0	2.192941606E-1	-1.204896197E-1	4.337015450E-1
8.212942026E0	2.293731421E-1	-1.296523362E-1	4.395045936E-1
8.221345047E0	2.380777150E-1	-1.394258887E-1	4.367557764E-1
8.229748067E0	2.466295809E-1	-1.658450365E-1	4.303418994E-1
8.238151088E0	2.579302490E-1	-1.927223057E-1	4.295783341E-1
8.246554109E0	2.753393948E-1	-2.118112892E-1	4.376720488E-1
8.254957130E0	2.901524603E-1	-2.338017821E-1	4.579827189E-1
8.263360151E0	3.095468581E-1	-2.632751763E-1	4.758500159E-1
8.271763172E0	3.261924386E-1	-2.811424434E-1	4.906630516E-1
8.280166192E0	3.455868363E-1	-2.809897363E-1	5.005893111E-1
8.288569213E0	3.663556576E-1	-2.675510943E-1	5.115845799E-1
8.296972234E0	3.865135908E-1	-2.527380586E-1	5.187620521E-1
8.305375255E0	4.129327536E-1	-2.498365343E-1	5.291464329E-1
8.313778276E0	4.466820657E-1	-2.586938143E-1	5.486935377E-1
8.322181297E0	4.842491746E-1	-2.515163720E-1	5.749599934E-1
8.330584317E0	5.109737515E-1	-2.086043358E-1	5.998520255E-1
8.338987338E0	5.291464329E-1	-1.779092699E-1	6.320741773E-1
8.347390359E0	5.344913602E-1	-1.632489264E-1	6.587987542E-1
8.355793380E0	5.326588154E-1	-1.600419879E-1	6.655181050E-1
8.364196401E0	5.384618640E-1	-1.879882365E-1	6.716265678E-1
8.372599422E0	5.482354164E-1	-2.209739983E-1	6.736118197E-1
8.381002442E0	5.541911721E-1	-2.289150059E-1	6.714738607E-1
8.389405463E0	5.561764240E-1	-2.130329758E-1	6.673506498E-1
8.397808484E0	5.557183027E-1	-2.029540092E-1	6.484143734E-1
8.406211505E0	5.570927262E-1	-2.079934925E-1	5.990884304E-1
8.414614526E0	5.583143830E-1	-1.983726472E-1	5.578562617E-1
8.423017547E0	5.525113344E-1	-1.491994411E-1	5.659499764E-1
8.431420567E0	5.286883116E-1	-7.162184268E-2	6.303943992E-1
8.439823588E0	5.037962794E-1	1.282779220E-2	7.122479081E-1
8.448226609E0	4.746283293E-1	1.078145429E-1	7.525638342E-1
8.456629630E0	4.358395338E-1	2.116585821E-1	7.748597264E-1
8.465032651E0	3.943018913E-1	3.139754832E-1	8.170081973E-1
8.473435672E0	3.524588645E-1	4.037700295E-1	8.921424150E-1
8.481838692E0	3.038965166E-1	4.883723855E-1	9.738432169E-1
8.490241713E0	2.458660156E-1	5.722111464E-1	1.049741030E0
8.498644734E0	1.792836636E-1	6.534538269E-1	1.119530320E0
8.507047755E0	1.116323397E-1	7.223268747E-1	1.192679286E0
8.515450776E0	4.902049154E-2	7.350019813E-1	1.292247415E0
8.523853797E0	8.399149403E-3	7.130114436E-1	1.355164647E0
8.532256817E0	-9.162709117E-3	7.595885396E-1	1.328898191E0
8.540659838E0	-1.863084175E-2	7.615737915E-1	1.287055135E0
8.549062859E0	-3.481829539E-2	6.879667044E-1	1.262621284E0
8.557465880E0	-5.894676223E-2	5.981721878E-1	1.232995152E0
8.565868901E0	-8.231166750E-2	5.312843919E-1	1.158929944E0
8.574271922E0	-9.773556143E-2	4.920374751E-1	1.015991688E0
8.582674942E0	-8.735115826E-2	4.915793240E-1	8.110524416E-1
8.591077963E0	-6.520794332E-2	4.775298536E-1	6.216897964E-1
8.599480984E0	-5.512896553E-2	4.199574888E-1	4.984513521E-1
8.607884005E0	-4.260659590E-2	3.707842827E-1	4.190412164E-1
8.616287026E0	-2.687728032E-2	3.483356535E-1	3.371876776E-1
8.624690047E0	-8.704573847E-3	3.413109183E-1	2.273878902E-1
8.633093067E0	1.114796288E-2	3.324536085E-1	9.361234307E-2
8.641496088E0	3.054236248E-2	3.162661791E-1	-5.726693198E-2
8.649899109E0	4.077405483E-2	3.539859951E-1	-2.389939874E-1
8.658302130E0	2.657185495E-2	4.767662883E-1	-4.370612204E-1
8.666705151E0	6.719320081E-3	6.273401380E-1	-6.125270724E-1
8.675108172E0	-8.857285604E-3	7.223268747E-1	-7.418739796E-1
8.683511192E0	2.443389036E-3	7.372926474E-1	-8.290724158E-1
8.691914213E0	1.221694518E-2	7.006418109E-1	-9.095515609E-1
8.700317234E0	2.153236605E-2	6.513158679E-1	-1.007592559E0
8.708720255E0	1.863084175E-2	6.157340407E-1	-1.119224906E0
8.717123276E0	6.566607859E-3	5.799994469E-1	-1.228413820E0
8.725526297E0	-3.970507067E-3	5.279247165E-1	-1.329509020E0
8.733929317E0	-1.084253844E-2	4.532486796E-1	-1.425259352E0
8.742332338E0	-9.620844387E-3	3.556658030E-1	-1.511694312E0
8.750735359E0	-8.399149403E-3	2.392994165E-1	-1.574916959E0
8.759138380E0	-9.315420873E-3	1.133121699E-1	-1.617065430E0
8.767541401E0	-1.847812906E-2	7.024743594E-3	-1.650967479E0
8.775944422E0	-2.886253223E-2	-5.940489471E-2	-1.692810416E0
8.784347442E0	-3.222219273E-2	-1.007898003E-1	-1.734195352E0
8.792750463E0	-2.550287358E-2	-1.392731816E-1	-1.773136854E0
8.801153484E0	-1.771457121E-2	-1.670667231E-1	-1.799250603E0
8.809556505E0	-8.093725890E-3	-1.924168915E-1	-1.806886196E0
8.817959526E0	3.206948051E-3	-2.200577259E-1	-1.805817246E0
8.826362547E0	1.420219894E-2	-2.492256761E-1	-1.814521790E0
8.834765567E0	2.977880463E-2	-2.664821148E-1	-1.827654958E0
8.843168588E0	3.833066672E-2	-2.640387416E-1	-1.834374309E0
8.851571609E0	3.894151375E-2	-2.446443290E-1	-1.829945683E0
8.859974630E0	3.038965166E-2	-2.238755226E-1	-1.812231064E0
8.868377651E0	1.588202827E-2	-2.053973973E-1	-1.790393353E0
8.876780672E0	-1.527118147E-4	-1.936385781E-1	-1.764585018E0
8.885183692E0	-1.404948719E-2	-1.985253543E-1	-1.730988383E0
8.893586713E0	-3.344388679E-2	-2.026485801E-1	-1.704111099E0
8.901989734E0	-5.253286287E-2	-1.853921413E-1	-1.695559263E0
8.910392755E0	-6.169557199E-2	-1.351499557E-1	-1.697239161E0
8.918795776E0	-5.390727147E-2	-1.000262350E-1	-1.688687205E0
8.927198797E0	-3.313846514E-2	-9.483403713E-2	-1.668071151E0
8.935601817E0	-1.786728203E-2	-1.093416587E-1	-1.642262816E0
8.944004838E0	-2.092151903E-2	-1.343863904E-1	-1.616149187E0
8.952407859E0	-3.710897267E-2	-1.238492802E-1	-1.601946950E0
8.960810880E0	-5.314370990E-2	-6.291726977E-2	-1.603015900E0
8.969213901E0	-6.551336497E-2	2.519745007E-2	-1.612178683E0
8.977616922E0	-7.650861889E-2	9.544488788E-2	-1.615232825E0
8.986019942E0	-7.971556485E-2	1.510319859E-1	-1.611109614E0
8.994422963E0	-7.238540053E-2	1.985253543E-1	-1.601641536E0
9.002825984E0	-6.749862432E-2	2.244863659E-1	-1.583621502E0
9.011229005E0	-7.482878864E-2	2.292204350E-1	-1.554300904E0
9.019632026E0	-8.078455180E-2	2.360924631E-1	-1.522536755E0
9.028035047E0	-9.147437662E-2	2.522799075E-1	-1.495506763E0
9.036438067E0	-1.142284349E-1	2.806843221E-1	-1.479319334E0
9.044841088E0	-1.307213157E-1	3.197785318E-1	-1.465728045E0
9.053244109E0	-1.249182671E-1	3.255815804E-1	-1.418998241E0
9.061647130E0	-1.140757278E-1	2.701472044E-1	-1.365701795E0
9.070050151E0	-9.727742523E-2	2.214321345E-1	-1.344932914E0
9.078453172E0	-6.902574003E-2	1.841704547E-1	-1.338060975E0
9.086856192E0	-3.894151375E-2	1.014006436E-1	-1.295301557E0
9.095259213E0	-1.817270555E-2	-3.939964995E-2	-1.204132676E0
9.103662234E0	-1.588202827E-2	-1.600419879E-1	-1.086697221E0
9.112065255E0	-2.305948362E-2	-2.695363462E-1	-9.614735842E-1
9.120468276E0	-3.054236248E-2	-3.707842827E-1	-8.411366940E-1
9.128871297E0	-3.726168349E-2	-4.118637741E-1	-7.467607856E-1
9.137274317E0	-5.528167635E-2	-3.790307343E-1	-6.734591126E-1
9.145677338E0	-8.261708915E-2	-3.361186981E-1	-5.877877474E-1
9.154080359E0	-1.183516532E-1	-3.176405728E-1	-4.592044353E-1
9.162483380E0	-1.139230132E-1	-3.866663277E-1	-2.301367074E-1
9.170886401E0	-6.688777357E-2	-5.612159371E-1	8.383878320E-2
9.179289422E0	-2.672456764E-2	-7.461498976E-1	4.141544402E-1
9.187692442E0	-7.116370648E-2	-8.910734653E-1	7.372926474E-1
9.196095463E0	-1.275143623E-1	-1.092653036E0	1.151294351E0
9.204498484E0	-2.258607745E-1	-1.152516007E0	1.409682751E0
9.212901505E0	-4.648547769E-1	-1.678302884E-1	1.116323352E0
9.221304526E0	-6.959077120E-1	1.374100924E0	5.679352283E-1
9.229707547E0	-8.102889061E-1	2.343821049E0	2.724378705E-1
9.238110567E0	-7.368345261E-1	2.546316862E0	3.361186981E-1
9.246513588E0	-4.865398407E-1	2.016865015E0	7.366818190E-1
9.254916609E0	-1.351499557E-1	8.188407421E-1	1.202300072E0
9.263319630E0	1.652341783E-1	-5.088357925E-1	1.441141367E0
9.271722651E0	2.806843221E-1	-1.419303656E0	1.434880257E0
9.280125672E0	1.983726472E-1	-1.628518820E0	1.304311633E0
9.288528692E0	4.550812021E-2	-1.299119353E0	1.149614573E0
9.296931713E0	-7.452336699E-2	-7.423321605E-1	1.008814216E0
9.305334734E0	-1.565296054E-1	-1.812689304E-1	8.872556686E-1
9.313737755E0	-2.573194206E-1	2.742704153E-1	7.456917763E-1
9.322140776E0	-3.500154912E-1	5.601469278E-1	5.966450572E-1
9.330543797E0	-3.839175105E-1	6.927008033E-1	4.851654470E-1
9.338946817E0	-3.799470067E-1	6.421532035E-1	4.717268050E-1
9.347349838E0	-3.556658030E-1	3.906368315E-1	5.592306852E-1
9.355752859E0	-3.307738006E-1	7.574506104E-2	6.716265678E-1
9.364155880E0	-3.275668323E-1	-1.372879148E-1	7.351546884E-1
9.372558901E0	-3.159607351E-1	-1.870719790E-1	7.368345261E-1
9.380961922E0	-2.878617644E-1	-2.137965411E-1	7.285880446E-1
9.389364942E0	-2.499892414E-1	-2.147128135E-1	6.986565590E-1
9.397767963E0	-2.425063550E-1	-1.659977436E-1	6.638382673E-1
9.406170984E0	-2.330382317E-1	-1.319430023E-1	6.624638438E-1
9.414574005E0	-2.153236568E-1	-1.270562261E-1	6.902574301E-1
9.422977026E0	-2.108950168E-1	-1.281252056E-1	7.188144922E-1
9.431380047E0	-2.017323077E-1	-9.681928903E-2	7.172874212E-1
9.439783067E0	-2.006633282E-1	-1.557660475E-2	6.885775924E-1
9.448186088E0	-2.052446753E-1	9.956810623E-2	6.525375843E-1
9.456589109E0	-2.174616307E-1	2.095206082E-1	6.215370893E-1
9.464992130E0	-2.266243398E-1	2.924431264E-1	5.882459283E-1
9.473395151E0	-2.171562016E-1	3.555130959E-1	5.520532131E-1
9.481798172E0	-1.965401024E-1	3.501681983E-1	5.299099684E-1
9.490201192E0	-1.748550236E-1	2.809897363E-1	5.302154422E-1
9.498604213E0	-1.527118087E-1	1.979145110E-1	5.276193023E-1
9.507007234E0	-1.411057115E-1	1.504211426E-1	5.097520351E-1
9.515410255E0	-1.374406368E-1	1.537808031E-1	4.773771465E-1
9.523813276E0	-1.299577504E-1	1.815743446E-1	4.347705245E-1
9.532216297E0	-1.265980899E-1	2.134911120E-1	3.933856487E-1
9.540619317E0	-1.224748790E-1	2.533488870E-1	3.617742956E-1
9.549022338E0	-1.101052165E-1	2.825168669E-1	3.368822634E-1
9.557425359E0	-1.078145429E-1	2.825168669E-1	3.173351586E-1
9.565828380E0	-1.000262350E-1	2.692309320E-1	3.014531136E-1
9.574231401E0	-9.391776472E-2	2.619007528E-1	2.823641598E-1
9.582634422E0	-8.948912472E-2	2.600682080E-1	2.603736520E-1
9.591037442E0	-8.536590636E-2	2.615953386E-1	2.362451702E-1
9.599440463E0	-8.368607610E-2	2.580829561E-1	2.176143378E-1
9.607843484E0	-8.124268800E-2	2.312056869E-1	2.139492482E-1
9.616246505E0	-8.658760041E-2	1.907370538E-1	2.215848416E-1
9.624649526E0	-8.750387281E-2	1.433963925E-1	2.302894145E-1
9.633052547E0	-8.536590636E-2	1.281252056E-1	2.402156889E-1
9.641455567E0	-8.964183182E-2	1.333174109E-1	2.548760176E-1
9.649858588E0	-9.177979827E-2	1.444653720E-1	2.741177082E-1
9.658261609E0	-8.979454637E-2	1.469087601E-1	2.901524603E-1
9.666664630E0	-8.597674966E-2	1.310267299E-1	3.078670204E-1
9.675067651E0	-8.353336155E-2	1.244601309E-1	3.246653080E-1
9.683470672E0	-8.612946421E-2	1.145338640E-1	3.397837877E-1
9.691873692E0	-8.551861346E-2	8.811471611E-2	3.503209054E-1
9.700276713E0	-8.231166750E-2	6.734590977E-2	3.652866483E-1
9.708679734E0	-8.017370105E-2	4.963133857E-2	3.910949528E-1
9.717082755E0	-7.620319724E-2	2.901524492E-2	4.198047817E-1
9.725485776E0	-6.856760383E-2	2.351761982E-2	4.390464723E-1
9.733888797E0	-6.108472496E-2	2.855710872E-2	4.540122151E-1
9.742291817E0	-5.650337040E-2	4.489727318E-2	4.613423944E-1
9.750694838E0	-5.482354015E-2	6.978929788E-2	4.596625566E-1
9.759097859E0	-5.283828825E-2	8.918370306E-2	4.619532526E-1
9.767500880E0	-4.871506989E-2	8.567132801E-2	4.752391577E-1
9.775903901E0	-3.939964995E-2	6.627693027E-2	4.926483035E-1
9.784306922E0	-3.176405653E-2	4.352286831E-2	5.120427012E-1
9.792709942E0	-2.657185495E-2	2.550287358E-2	5.236487985E-1
9.801112963E0	-2.397575416E-2	2.794626169E-2	5.221216679E-1
9.809515984E0	-2.748812735E-2	4.321744293E-2	5.089884996E-1
9.817919005E0	-2.932066843E-2	5.558710173E-2	4.967715442E-1
9.826322026E0	-2.794626169E-2	5.161659420E-2	4.960079789E-1
9.834725047E0	-1.572931744E-2	2.275406010E-2	5.033381581E-1
9.843128067E0	-1.832541777E-3	-2.840439789E-2	5.080721974E-1
9.851531088E0	1.221694518E-2	-7.635590434E-2	5.103628635E-1
9.859934109E0	2.122694254E-2	-1.142284349E-1	5.071559548E-1
9.868337130E0	2.321219631E-2	-1.369825006E-1	4.979932308E-1
9.876740151E0	2.519745007E-2	-1.450762302E-1	4.807367921E-1
9.885143172E0	2.397575416E-2	-1.371352077E-1	4.636330605E-1
9.893546192E0	2.214321308E-2	-1.281252056E-1	4.604261220E-1
9.901949213E0	3.130592033E-2	-1.386623234E-1	4.650074840E-1
9.910352234E0	4.077405483E-2	-1.553079188E-1	4.723376334E-1
9.918755255E0	5.253286287E-2	-1.794363856E-1	4.789042473E-1
9.927158276E0	5.833591148E-2	-2.032594234E-1	4.816530645E-1
9.935561297E0	6.780404598E-2	-2.131856978E-1	4.880669713E-1
9.943964317E0	7.650861889E-2	-2.102841735E-1	4.906630516E-1
9.952367338E0	8.185353130E-2	-2.031067163E-1	4.892886579E-1
9.960770359E0	8.979454637E-2	-2.182251811E-1	4.978405237E-1
9.969173380E0	1.001789495E-1	-2.356343269E-1	5.051707029E-1
9.977576401E0	1.032331884E-1	-2.481566966E-1	5.125008225E-1
9.985979422E0	1.090362370E-1	-2.444916219E-1	5.175403357E-1
9.994382442E0	1.099525094E-1	-2.240282297E-1	5.204418898E-1
1.000278546E1	1.107160673E-1	-1.966928244E-1	5.279247165E-1
1.001118848E1	1.145338640E-1	-1.791309565E-1	5.373928547E-1
1.001959151E1	1.226275861E-1	-1.814216375E-1	5.412106514E-1
1.002799453E1	1.288887709E-1	-1.855448484E-1	5.451811552E-1
1.003639755E1	1.340809762E-1	-1.795890927E-1	5.575508475E-1
1.004480057E1	1.380514801E-1	-1.643179059E-1	5.711421967E-1
1.005320359E1	1.420219839E-1	-1.647760421E-1	5.804576278E-1
1.006160661E1	1.453816444E-1	-1.944021434E-1	5.853443742E-1
1.007000963E1	1.554606259E-1	-2.218902707E-1	5.879405141E-1
1.007841265E1	1.609582454E-1	-2.309002578E-1	5.972558856E-1
1.008681567E1	1.656923145E-1	-2.385358512E-1	6.103891134E-1
1.009521869E1	1.724116355E-1	-2.586938143E-1	6.096255779E-1
1.010362171E1	1.766875684E-1	-2.649549842E-1	6.006155610E-1
1.011202473E1	1.745496094E-1	-2.559449971E-1	5.955760479E-1
1.012042776E1	1.811162084E-1	-2.449497581E-1	5.969504714E-1
1.012883078E1	1.918060333E-1	-2.531961799E-1	5.966450572E-1
1.013723380E1	2.070772201E-1	-2.713688910E-1	6.021426916E-1
1.014563682E1	2.209739983E-1	-2.854183912E-1	6.171084642E-1
1.015403984E1	2.420482337E-1	-3.019112647E-1	6.352811456E-1
1.016244286E1	2.675510943E-1	-3.167243004E-1	6.543701291E-1
1.017084588E1	2.903051674E-1	-3.316900730E-1	6.752916574E-1
1.017924890E1	3.147390485E-1	-3.567348123E-1	7.099572420E-1
1.018765192E1	3.539859951E-1	-3.967452943E-1	7.426375747E-1
1.019605494E1	4.043808877E-1	-4.500417113E-1	7.522584200E-1
1.020445796E1	4.573718905E-1	-5.309789777E-1	7.495095730E-1
1.021286098E1	5.015056133E-1	-6.621584296E-1	7.510367036E-1
1.022126400E1	5.296045542E-1	-7.747070193E-1	7.824953198E-1
1.022966703E1	5.402944088E-1	-7.493568659E-1	8.754968047E-1
1.023807005E1	4.886777997E-1	-5.694623590E-1	1.046534061E0
1.024647307E1	4.027010500E-1	-3.994941115E-1	1.195886254E0
1.025487609E1	3.513898849E-1	-2.125748396E-1	1.232842445E0
1.026327911E1	3.199312389E-1	4.718795046E-2	1.203216434E0
1.027168213E1	2.922904193E-1	2.829749882E-1	1.180767775E0
1.028008515E1	2.779355049E-1	4.338542521E-1	1.169161677E0
1.028848817E1	2.452551723E-1	4.898995161E-1	1.146865726E0
1.029689119E1	2.023431510E-1	4.671454430E-1	1.122889996E0
1.030529421E1	1.626380831E-1	4.668400288E-1	1.090056896E0
1.031369723E1	1.325538605E-1	5.250232220E-1	1.041036487E0
1.032210026E1	1.017060652E-1	5.822901726E-1	1.005301833E0
1.033050328E1	6.826218218E-2	5.913001299E-1	9.918632507E-1
1.033890630E1	3.573456407E-2	5.667135715E-1	9.793408513E-1
1.034730932E1	7.330167107E-3	5.589252710E-1	9.487984776E-1
1.035571234E1	-1.343864016E-2	5.602996349E-1	9.046648145E-1
1.036411536E1	-2.443389036E-2	5.476245880E-1	8.539644480E-1
1.037251838E1	-3.023693897E-2	5.291464329E-1	7.904363275E-1
1.038092140E1	-4.489727318E-2	5.225798488E-1	6.985038519E-1
1.038932442E1	-6.154286116E-2	5.215108395E-1	5.772506595E-1
1.039772744E1	-6.474980712E-2	4.717268050E-1	4.465293586E-1
1.040613046E1	-4.123219103E-2	3.662029207E-1	3.304683566E-1
1.041453348E1	3.359660041E-3	1.950129867E-1	2.646495700E-1
1.042293651E1	5.024218559E-2	-1.435491070E-2	2.724378705E-1
1.043133953E1	5.971032009E-2	-2.034121305E-1	3.242071867E-1
1.043974255E1	4.734066129E-2	-3.103103936E-1	3.307738006E-1
1.044814557E1	3.558185324E-2	-3.121429384E-1	2.338017821E-1
1.045654859E1	2.596100792E-2	-2.455606014E-1	7.253811508E-2
1.046495161E1	5.803049076E-3	-1.408002973E-1	-8.093725890E-2
1.047335463E1	-2.932066843E-2	-2.901524538E-3	-2.095206082E-1
1.048175765E1	-6.627693027E-2	1.157555580E-1	-3.113794029E-1
1.049016067E1	-9.834641218E-2	1.675248593E-1	-4.104893506E-1
1.049856369E1	-1.113269106E-1	1.510319859E-1	-5.129590034E-1
1.050696671E1	-1.119377613E-1	7.925742865E-2	-6.252021790E-1
1.051536973E1	-1.125486046E-1	1.847812906E-2	-7.557707429E-1
1.052377276E1	-1.081199646E-1	-2.199050039E-2	-8.758022785E-1
1.053217578E1	-9.315420687E-2	-7.116370648E-2	-9.671239257E-1
1.054057880E1	-6.215370819E-2	-1.672194302E-1	-1.029430389E0
1.054898182E1	-2.031067200E-2	-3.237490356E-1	-1.092194915E0
1.055738484E1	1.786728203E-2	-4.943281412E-1	-1.168398142E0
1.056578786E1	5.390727147E-2	-6.525375843E-1	-1.244906664E0
1.057419088E1	6.994201243E-2	-8.014315963E-1	-1.286597013E0
1.058259390E1	7.543963939E-2	-9.255862832E-1	-1.310114622E0
1.059099692E1	7.727217674E-2	-9.868237376E-1	-1.351652265E0
1.059939994E1	7.421794534E-2	-9.758284688E-1	-1.418081880E0
1.060780296E1	7.024743408E-2	-9.307785034E-1	-1.482526302E0
1.061620598E1	6.826218218E-2	-8.605310917E-1	-1.540404081E0
1.062460900E1	6.627693027E-2	-7.485933304E-1	-1.597518325E0
1.063301203E1	6.566607952E-2	-6.242858768E-1	-1.649440289E0
1.064141505E1	7.131642103E-2	-5.073086619E-1	-1.687007427E0
1.064981807E1	8.582404256E-2	-3.972034156E-1	-1.710066915E0
1.065822109E1	1.033858955E-1	-2.991624475E-1	-1.717397094E0
1.066662411E1	1.215586066E-1	-2.292204350E-1	-1.718160629E0
1.067502713E1	1.336228400E-1	-1.690519750E-1	-1.717397094E0
1.068343015E1	1.366770715E-1	-1.102579311E-1	-1.727170587E0
1.069183317E1	1.235438585E-1	-3.390202299E-2	-1.757712960E0
1.070023619E1	9.834641218E-2	6.001574174E-2	-1.781383276E0
1.070863921E1	7.849387079E-2	1.461452097E-1	-1.781994224E0
1.071704223E1	6.566607952E-2	2.035648525E-1	-1.767181158E0
1.072544526E1	4.337015375E-2	2.252499312E-1	-1.753742456E0
1.073384828E1	1.527118124E-2	2.235700935E-1	-1.744121671E0
1.074225130E1	6.872031838E-3	2.081461996E-1	-1.732668281E0
1.075065432E1	1.618745178E-2	1.846285909E-1	-1.705943704E0
1.075905734E1	3.527642787E-2	1.269035190E-1	-1.656159639E0
1.076746036E1	5.024218559E-2	5.360184610E-2	-1.599808931E0
1.077586338E1	5.680879578E-2	-8.704573847E-3	-1.557965875E0
1.078426640E1	5.467082933E-2	-5.115845799E-2	-1.533073902E0
1.079266942E1	4.734066129E-2	-6.734590977E-2	-1.511999726E0
1.080107244E1	3.924693540E-2	-7.681404054E-2	-1.495659471E0
1.080947546E1	3.497100621E-2	-7.391251624E-2	-1.484969735E0
1.081787848E1	4.001049697E-2	-7.864658535E-2	-1.464964390E0
1.082628150E1	4.993676394E-2	-9.727742523E-2	-1.439614296E0
1.083468453E1	5.482354015E-2	-9.345962852E-2	-1.415180445E0
1.084308755E1	5.238015205E-2	-8.857285231E-2	-1.380056620E0
1.085149057E1	4.031591862E-2	-1.094943732E-1	-1.341725945E0
1.085989359E1	2.397575416E-2	-9.865183383E-2	-1.318513751E0
1.086829661E1	9.620844387E-3	-5.451811850E-2	-1.312405348E0
1.087669963E1	7.024743594E-3	-1.863084175E-2	-1.305227876E0
1.088510265E1	6.872031838E-3	-1.710372418E-2	-1.280335903E0
1.089350567E1	0.000000000E0	-2.015795931E-2	-1.252236843E0
1.090190869E1	-1.068982668E-2	-2.031067200E-2	-1.229788303E0
1.091031171E1	-1.954711229E-2	-3.313846514E-2	-1.212989926E0
1.091871473E1	-1.985253580E-2	-5.940489471E-2	-1.202147365E0
1.092711776E1	-1.588202827E-2	-8.261708915E-2	-1.193748236E0
1.093552078E1	-9.620844387E-3	-8.872556686E-2	-1.183974743E0
1.094392380E1	-4.886778072E-3	-8.964183182E-2	-1.170077920E0
1.095232682E1	-1.679830020E-3	-9.407047927E-2	-1.154501319E0
1.096072984E1	2.748812549E-3	-9.498675168E-2	-1.135870457E0
1.096913286E1	1.527118147E-3	-9.407047927E-2	-1.110520363E0
1.097753588E1	-3.359660041E-3	-6.765133142E-2	-1.089140654E0
1.098593890E1	-8.399149403E-3	-2.214321308E-2	-1.057223916E0
1.099434192E1	-1.130067464E-2	-1.328592747E-2	-9.846857786E-1
1.100274494E1	-2.550287358E-2	-2.916795574E-2	-8.889354467E-1
1.101114796E1	-6.184828654E-2	7.941014133E-3	-8.186880350E-1
1.101955098E1	-1.243074164E-1	1.101052165E-1	-7.973083854E-1
1.102795401E1	-1.659977436E-1	1.872246861E-1	-7.853968740E-1
1.103635703E1	-1.432436854E-1	1.597365588E-1	-7.290462255E-1
1.104476005E1	-1.189625040E-1	6.383354217E-2	-6.610894203E-1
1.105316307E1	-1.097997949E-1	-3.466558084E-2	-6.085565686E-1
1.106156609E1	-9.345962852E-2	-2.189887464E-1	-5.218162537E-1
1.106996911E1	-4.917320609E-2	-5.361711979E-1	-3.984251320E-1
1.107837213E1	1.068982761E-3	-8.860339522E-1	-2.541124523E-1
1.108677515E1	3.619270027E-2	-1.173895717E0	-9.956810623E-2
1.109517817E1	5.344913527E-2	-1.358677030E0	6.536065787E-2
1.110358119E1	6.856760383E-2	-1.419150949E0	2.513636351E-1
1.111198421E1	6.597150117E-2	-1.452442050E0	5.276193023E-1
1.112038723E1	3.268032894E-2	-1.602099657E0	1.001789451E0
1.112879026E1	-3.069507517E-2	-1.760461807E0	1.579345584E0
1.113719328E1	-2.192941606E-1	-1.376238823E0	1.860640764E0
1.114559630E1	-5.821374655E-1	3.634541109E-2	1.510014415E0
1.115399932E1	-8.858812451E-1	1.914089918E0	8.480086923E-1
1.116240234E1	-9.688037634E-1	3.394325495E0	4.062134326E-1
1.117080536E1	-8.148702383E-1	4.014793396E0	3.553603888E-1
1.117920838E1	-5.175403357E-1	3.517411232E0	6.881194115E-1
1.118761140E1	-2.701472044E-1	1.840177417E0	1.172826767E0
1.119601442E1	-8.979454637E-2	-2.049392611E-1	1.499629974E0
1.120441744E1	3.130592033E-2	-1.619050622E0	1.613094926E0
1.121282046E1	8.414421231E-2	-2.015337706E0	1.638292313E0
1.122122348E1	6.429167092E-2	-1.702278614E0	1.586981177E0
1.122962650E1	-3.939964995E-2	-1.014922738E0	1.431825995E0
1.123802953E1	-1.942494214E-1	-2.118112892E-1	1.195580840E0
1.124643255E1	-3.376458287E-1	4.338542521E-1	9.654440880E-1
1.125483557E1	-4.249969721E-1	7.951704264E-1	7.971556783E-1
1.126323859E1	-4.781406820E-1	9.318475127E-1	7.026270628E-1
1.127164161E1	-5.068505406E-1	9.813261032E-1	6.723901033E-1
1.128004463E1	-5.082249045E-1	9.840749502E-1	7.000309825E-1
1.128844765E1	-4.671454430E-1	8.518264890E-1	7.713474035E-1
1.129685067E1	-3.923166394E-1	5.309789777E-1	8.764131069E-1
1.130525369E1	-3.115321100E-1	1.568350345E-1	9.691091776E-1
1.131365671E1	-2.367033064E-1	-1.236965731E-1	1.014006495E0
1.132205973E1	-1.878355294E-1	-2.635805905E-1	1.021183848E0
1.133046276E1	-1.754658818E-1	-2.718270421E-1	1.014311910E0
1.133886578E1	-1.808107942E-1	-1.907370538E-1	9.825478196E-1
1.134726880E1	-2.011214644E-1	-5.711421743E-2	9.089407325E-1
1.135567182E1	-2.295258641E-1	1.030804738E-1	7.945595980E-1
1.136407484E1	-2.435753495E-1	2.785463631E-1	6.792621613E-1
1.137247786E1	-2.478512824E-1	4.196520746E-1	6.070294380E-1
1.138088088E1	-2.396048307E-1	4.767662883E-1	5.929799676E-1
1.138928390E1	-2.192941606E-1	4.048390090E-1	6.108472347E-1
1.139768692E1	-1.840177327E-1	2.463241518E-1	6.310052276E-1
1.140608994E1	-1.498102844E-1	6.245913357E-2	6.467345357E-1
1.141449296E1	-1.273616552E-1	-7.757759839E-2	6.500942111E-1
1.142289598E1	-1.156028435E-1	-1.096470803E-1	6.323796511E-1
1.143129901E1	-1.145338640E-1	-7.238540053E-2	6.015318632E-1
1.143970203E1	-1.133121699E-1	-3.023693897E-2	5.628957748E-1
1.144810505E1	-1.108687744E-1	-7.024743594E-3	5.125008225E-1
1.145650807E1	-1.087308154E-1	7.941014133E-3	4.685198367E-1
1.146491109E1	-1.068982705E-1	-9.162708884E-4	4.320217371E-1
1.147331411E1	-1.023169160E-1	-2.397575416E-2	4.031592011E-1
1.148171713E1	-9.452861547E-2	-5.207473040E-2	3.805578351E-1
1.149012015E1	-8.643488586E-2	-8.017370105E-2	3.637595475E-1
1.149852317E1	-7.727217674E-2	-1.030804738E-1	3.461976945E-1
1.150692619E1	-7.177454978E-2	-1.197260618E-1	3.242071867E-1
1.151532921E1	-6.933116168E-2	-1.224748790E-1	3.069507480E-1
1.152373223E1	-6.505523622E-2	-1.149920002E-1	2.968717813E-1
1.153213526E1	-5.864133686E-2	-1.125486046E-1	2.889307439E-1
1.154053828E1	-5.329642445E-2	-9.910997003E-2	2.793098986E-1
1.154894130E1	-4.703523964E-2	-7.879929990E-2	2.698417902E-1
1.155734432E1	-5.070032179E-2	-6.536065787E-2	2.550287247E-1
1.156574734E1	-5.299099907E-2	-6.490252167E-2	2.350234836E-1
1.157415036E1	-4.581354558E-2	-6.734590977E-2	2.223484069E-1
1.158255338E1	-3.924693540E-2	-5.696150661E-2	2.250972092E-1
1.159095640E1	-2.916795574E-2	-6.322269142E-2	2.359397560E-1
1.159935942E1	-2.275406010E-2	-8.933641016E-2	2.423536479E-1
1.160776244E1	-1.435491070E-2	-1.122431830E-1	2.399102598E-1
1.161616546E1	-1.007897966E-2	-1.264453828E-1	2.441861928E-1
1.162456848E1	-8.704573847E-3	-1.169772521E-1	2.548760176E-1
1.163297150E1	-4.275931045E-3	-1.207950488E-1	2.725905776E-1
1.164137453E1	8.857285604E-3	-1.449235082E-1	2.858765125E-1
1.164977755E1	1.649287529E-2	-1.791309565E-1	2.938175201E-1
1.165818057E1	2.168507688E-2	-1.846285909E-1	3.045073450E-1
1.166658359E1	1.969982497E-2	-1.527118087E-1	3.225273490E-1
1.167498661E1	2.260134928E-2	-1.285833418E-1	3.399364948E-1
1.168338963E1	3.649812192E-2	-1.356080920E-1	3.443651497E-1
1.169179265E1	4.749337584E-2	-1.516428292E-1	3.419217467E-1
1.170019567E1	5.512896553E-2	-1.690519750E-1	3.607053161E-1
1.170859869E1	6.566607952E-2	-1.971509457E-1	3.843756318E-1
1.171700171E1	7.635590434E-2	-2.206685692E-1	3.949127495E-1
1.172540473E1	8.307522535E-2	-2.232646793E-1	4.033119082E-1
1.173380776E1	9.315420687E-2	-1.953184158E-1	3.985778391E-1
1.174221078E1	1.047603041E-1	-1.447708011E-1	3.669664860E-1
1.175061380E1	1.058292910E-1	-1.015533581E-1	3.527642787E-1
1.175901682E1	9.529217333E-2	-2.916795574E-2	3.860554695E-1
1.176741984E1	8.215895295E-2	6.505523622E-2	4.198047817E-1
1.177582286E1	7.803573459E-2	1.258345395E-1	4.324798584E-1
1.178422588E1	8.353336155E-2	1.557660550E-1	4.421007037E-1
1.179262890E1	1.036913246E-1	1.598892659E-1	4.570664763E-1
1.180103192E1	1.171299592E-1	1.113269106E-1	4.593571424E-1
1.180943494E1	1.188097894E-1	2.932066843E-2	4.688252807E-1
1.181783796E1	1.235438585E-1	-2.855710872E-2	5.025745630E-1
1.182624098E1	1.301104724E-1	-7.605048269E-2	5.418215394E-1
1.183464401E1	1.441599578E-1	-1.128540337E-1	5.628957748E-1
1.184304703E1	1.537808031E-1	-1.420219839E-1	5.795413256E-1
1.185145005E1	1.583621502E-1	-1.328592747E-1	6.033644080E-1
1.185985307E1	1.620272398E-1	-1.067455560E-1	6.285618544E-1
1.186825609E1	1.681357026E-1	-8.231166750E-2	6.487197876E-1
1.187665911E1	1.798945218E-1	-5.497625470E-2	6.635328531E-1
1.188506213E1	1.919587553E-1	-3.130592033E-2	6.751389503E-1
1.189346515E1	1.982199401E-1	-7.330167107E-3	6.798729897E-1
1.190186817E1	2.021904439E-1	1.908897609E-2	6.893411279E-1
1.191027119E1	2.057028115E-1	2.916795574E-2	7.014053464E-1
1.191867421E1	2.131856978E-1	1.908897609E-2	7.073611021E-1
1.192707723E1	2.183778882E-1	6.261184346E-3	7.056813240E-1
1.193548026E1	2.255553454E-1	4.886778072E-3	7.114843726E-1
1.194388328E1	2.368560284E-1	1.374406274E-3	7.243121266E-1
1.195228630E1	2.464768738E-1	2.748812549E-3	7.334748507E-1
1.196068932E1	2.609844804E-1	-1.221694518E-3	7.420266867E-1
1.196909234E1	2.736595869E-1	2.901524538E-3	7.508839965E-1
1.197749536E1	2.884726226E-1	2.168507688E-2	7.631009221E-1
1.198589838E1	3.032856584E-1	4.413371533E-2	7.782194018E-1
1.199430140E1	3.187095523E-1	6.291726977E-2	7.904363275E-1
1.200270442E1	3.353551328E-1	7.482878864E-2	7.973083854E-1
1.201110744E1	3.536805511E-1	7.192726433E-2	8.079982400E-1
1.201951046E1	3.747547865E-1	6.917845458E-2	8.186880350E-1
1.202791348E1	4.031592011E-1	5.146388337E-2	8.348754644E-1
1.203631650E1	4.431696832E-1	1.725643501E-2	8.448017836E-1
1.204471953E1	4.842491746E-1	-2.107422985E-2	8.389987350E-1
1.205312255E1	5.219689608E-1	-9.498675168E-2	8.359444737E-1
1.206152557E1	5.575508475E-1	-2.295258641E-1	8.448017836E-1
1.206992859E1	5.859552622E-1	-3.877353072E-1	8.541171551E-1
1.207833161E1	5.888567567E-1	-5.317425132E-1	8.472451568E-1
1.208673463E1	5.685460567E-1	-6.520794630E-1	8.535063267E-1
1.209513765E1	5.274665952E-1	-7.760814428E-1	9.032903910E-1
1.210354067E1	4.793623984E-1	-8.724426031E-1	9.724688530E-1
1.211194369E1	4.231644273E-1	-8.283088803E-1	1.027750492E0
1.212034671E1	3.353551328E-1	-6.711684465E-1	1.066233873E0
1.212874973E1	2.562504113E-1	-5.111264586E-1	1.128234863E0
1.213715276E1	1.931804419E-1	-3.399364948E-1	1.192221165E0
1.214555578E1	1.265980899E-1	-1.174353883E-1	1.235591292E0
1.215395880E1	7.528692484E-2	1.084253863E-1	1.256971002E0
1.216236182E1	2.565558441E-2	3.246653080E-1	1.253000498E0
1.217076484E1	-2.153236605E-2	5.581616759E-1	1.217723966E0
1.217916786E1	-5.619794875E-2	7.646280527E-1	1.162136912E0
1.218757088E1	-8.307522535E-2	8.926005363E-1	1.098150611E0
1.219597390E1	-9.849911928E-2	9.222266674E-1	1.043632507E0
1.220437692E1	-9.697200358E-2	8.519791961E-1	1.009119630E0
1.221277994E1	-8.429691941E-2	7.137750387E-1	9.926267862E-1
1.222118296E1	-8.444963396E-2	5.465555787E-1	9.666658044E-1
1.222958598E1	-9.055810422E-2	3.906368315E-1	8.933641315E-1
1.223798901E1	-5.772506446E-2	2.648022771E-1	7.763868570E-1
1.224639203E1	1.634016447E-2	1.044548824E-1	6.878139973E-1
1.225479505E1	7.375980914E-2	-6.627693027E-2	6.455128193E-1
1.226319807E1	7.543963939E-2	-8.994726092E-2	5.781669021E-1
1.227160109E1	5.054761097E-2	5.879404768E-2	4.291202128E-1
1.228000411E1	6.001574174E-2	2.780882120E-1	2.567085624E-1
1.228840713E1	7.666133344E-2	4.007157981E-1	1.435490996E-1
1.229681015E1	7.223268598E-2	4.315635860E-1	3.283303976E-2
1.230521317E1	5.283828825E-2	4.804313779E-1	-1.510319859E-1
1.231361619E1	4.993676394E-2	4.842491746E-1	-2.988570333E-1
1.232201921E1	5.314370990E-2	4.170559645E-1	-3.610107303E-1
1.233042223E1	1.099525020E-2	4.257605374E-1	-4.559974670E-1
1.233882526E1	-6.261184067E-2	5.639647245E-1	-6.493306160E-1
1.234722828E1	-1.282779276E-1	7.553126216E-1	-9.152019024E-1
1.235563130E1	-1.534753740E-1	9.147437811E-1	-1.162747741E0
1.236403432E1	-1.385096163E-1	9.665130973E-1	-1.337602735E0
1.237243734E1	-9.009996802E-2	9.167290330E-1	-1.448929667E0
1.238084036E1	-5.008947477E-2	7.565343380E-1	-1.524063945E0
1.238924338E1	1.267508045E-2	5.306735635E-1	-1.590035439E0
1.239764640E1	7.574506104E-2	1.966928244E-1	-1.645775199E0
1.240604942E1	1.269035190E-1	-1.482831687E-1	-1.718771458E0
1.241445244E1	1.554606259E-1	-3.680354655E-1	-1.832236409E0
1.242285546E1	1.708845198E-1	-4.850127101E-1	-1.921114683E0
1.243125848E1	1.922641695E-1	-5.467082858E-1	-1.961277843E0
1.243966150E1	2.086043358E-1	-5.746545792E-1	-1.990140319E0
1.244806453E1	1.944021434E-1	-5.502206683E-1	-2.060235023E0
1.245646755E1	1.627907902E-1	-4.955498278E-1	-2.160413980E0
1.246487057E1	1.310267299E-1	-4.443913698E-1	-2.249750376E0
1.247327359E1	1.097997949E-1	-3.909422457E-1	-2.289150000E0
1.248167661E1	1.017060652E-1	-3.672719002E-1	-2.290524483E0
1.249007963E1	1.029277667E-1	-3.961344361E-1	-2.283041716E0
1.249848265E1	1.101052165E-1	-4.624113739E-1	-2.279376507E0
1.250688567E1	1.125486046E-1	-5.453338623E-1	-2.269603014E0
1.251528869E1	1.200314835E-1	-6.065713167E-1	-2.232341290E0
1.252369171E1	1.004843712E-1	-6.537593007E-1	-2.157207012E0
1.253209473E1	7.696675509E-2	-6.332958937E-1	-2.099329233E0
1.254049776E1	7.040014863E-2	-5.725166202E-1	-2.095511436E0
1.254890078E1	7.360709459E-2	-5.245651007E-1	-2.090624809E0
1.255730380E1	6.474980712E-2	-4.734066129E-1	-2.068023443E0
1.256570682E1	3.451287001E-2	-3.593308926E-1	-2.049392462E0
1.257410984E1	-2.901524538E-3	-2.396048307E-1	-2.024042368E0
1.258251286E1	-2.199050039E-2	-1.588202864E-1	-1.984490037E0
1.259091588E1	-1.618745178E-2	-1.337755471E-1	-1.924779654E0
1.259931890E1	1.832541777E-3	-1.244601309E-1	-1.858960867E0
1.260772192E1	3.374931216E-2	-1.056765765E-1	-1.783063173E0
1.261612494E1	4.337015375E-2	-1.178935245E-1	-1.682426095E0
1.262452796E1	2.702999115E-2	-7.024743408E-2	-1.656923175E0
1.263293098E1	1.847812906E-2	4.871506989E-2	-1.679982662E0
1.264133401E1	2.565558441E-2	1.366770715E-1	-1.644095421E0
1.264973703E1	5.146388337E-2	1.502684206E-1	-1.547734261E0
1.265814005E1	9.269607067E-2	1.586675793E-1	-1.474585295E0
1.266654307E1	1.128540337E-1	1.644706279E-1	-1.449845910E0
1.267494609E1	1.081199646E-1	1.583621502E-1	-1.443737507E0
1.268334911E1	9.651386738E-2	1.708845198E-1	-1.429229856E0
1.269175213E1	1.029277667E-1	2.073826492E-1	-1.402352571E0
1.270015515E1	1.259872466E-1	2.510582209E-1	-1.370283127E0
1.270855817E1	1.401894391E-1	2.692309320E-1	-1.323400617E0
1.271696119E1	1.163664013E-1	2.594573796E-1	-1.294690728E0
1.272536421E1	6.459710002E-2	2.968717813E-1	-1.310878277E0
1.273376723E1	4.428642802E-3	3.498627543E-1	-1.334548593E0
1.274217026E1	-3.817795217E-2	3.460449576E-1	-1.320651770E0
1.275057328E1	-6.734590977E-2	3.179459870E-1	-1.283542752E0
1.275897630E1	-8.750387281E-2	2.964136302E-1	-1.242310643E0
1.276737932E1	-9.636115283E-2	2.469350100E-1	-1.205965161E0
1.277578234E1	-9.743013978E-2	1.490467340E-1	-1.152821541E0
1.278418536E1	-7.330167294E-2	2.886253223E-2	-1.071884274E0
1.279258838E1	-3.283303976E-2	-1.038440317E-1	-9.454388618E-1
1.280099140E1	-1.298050396E-2	-3.126010895E-1	-7.707365155E-1
1.280939442E1	-8.246437646E-3	-5.612159371E-1	-5.836645365E-1
1.281779744E1	-2.061609551E-2	-7.134696245E-1	-4.488200247E-1
1.282620046E1	-2.626643144E-2	-7.744016051E-1	-3.585673273E-1
1.283460348E1	-3.008422814E-2	-7.696675658E-1	-2.693836391E-1
1.284300650E1	-4.260659590E-2	-7.362236381E-1	-1.287360638E-1
1.285140953E1	-6.948387623E-2	-7.731798887E-1	8.108997345E-2
1.285981255E1	-1.010952219E-1	-8.800781965E-1	3.403946459E-1
1.286821557E1	-8.811471611E-2	-1.014464617E0	6.681141853E-1
1.287661859E1	-9.513945878E-2	-1.118003249E0	9.918632507E-1
1.288502161E1	-2.962609231E-1	-7.650861740E-1	9.642223716E-1
1.289342463E1	-6.319214702E-1	3.762819171E-1	4.381301999E-1
1.290182765E1	-8.965710402E-1	1.510472536E0	-1.284306347E-1
1.291023067E1	-9.521581531E-1	2.177975893E0	-3.999522328E-1
1.291863369E1	-7.707365155E-1	2.309766293E0	-1.821851879E-1
1.292703671E1	-4.257605374E-1	1.606222868E0	5.998520255E-1
1.293543973E1	-3.878879920E-2	1.716480851E-1	1.397313118E0
1.294384276E1	2.415900975E-1	-1.300493836E0	1.752826214E0
1.295224578E1	3.246653080E-1	-2.081003904E0	1.658297539E0
1.296064880E1	2.574721277E-1	-2.013199806E0	1.397465825E0
1.296905182E1	1.207950488E-1	-1.403727055E0	1.159693480E0
1.297745484E1	-3.665083647E-2	-5.984776020E-1	1.016755223E0
1.298585786E1	-1.890572309E-1	1.930277348E-1	8.970292211E-1
1.299426088E1	-3.490992188E-1	8.532009125E-1	7.084301114E-1
1.300266390E1	-4.579827189E-1	1.171452284E0	5.405998230E-1
1.301106692E1	-4.689779878E-1	1.123348117E0	4.718795121E-1
1.301946994E1	-4.440859556E-1	8.985562921E-1	4.874561131E-1
1.302787296E1	-4.370612204E-1	6.494833231E-1	5.236487985E-1
1.303627598E1	-4.169032574E-1	4.390464723E-1	5.622848868E-1
1.304467900E1	-3.717005551E-1	2.832804024E-1	6.109999418E-1
1.305308203E1	-3.490992188E-1	1.863084137E-1	6.478035450E-1
1.306148505E1	-3.509317636E-1	1.563768983E-1	6.639909744E-1
1.306988807E1	-3.440597057E-1	1.398840249E-1	6.759024858E-1
1.307829109E1	-3.381039500E-1	7.666133344E-2	6.774296165E-1
1.308669411E1	-3.356605768E-1	2.855710872E-2	6.653653979E-1
1.309509713E1	-3.422271907E-1	3.054236248E-2	6.430694461E-1
1.310350015E1	-3.431434333E-1	7.207997888E-2	6.169557571E-1
1.311190317E1	-3.455868363E-1	1.023169160E-1	5.943543911E-1
1.312030619E1	-3.481829464E-1	1.345391124E-1	5.770979524E-1
1.312870921E1	-3.480302393E-1	1.956238300E-1	5.639647245E-1
1.313711223E1	-3.319954872E-1	2.388412803E-1	5.555655956E-1
1.314551526E1	-3.031329513E-1	2.176143378E-1	5.604523420E-1
1.315391828E1	-2.713688910E-1	1.556133330E-1	5.680879354E-1
1.316232130E1	-2.466295809E-1	8.658760041E-2	5.731274486E-1
1.317072432E1	-2.209739983E-1	3.802524135E-2	5.639647245E-1
1.317912734E1	-2.031067163E-1	2.229592577E-2	5.464028716E-1
1.318753036E1	-1.950129867E-1	3.390202299E-2	5.268557668E-1
1.319593338E1	-1.876828223E-1	4.566083103E-2	5.018110275E-1
1.320433640E1	-1.772984117E-1	5.558710173E-2	4.642439187E-1
1.321273942E1	-1.656923145E-1	7.314895838E-2	4.373666346E-1
1.322114244E1	-1.569877416E-1	7.437065244E-2	4.277457893E-1
1.322954546E1	-1.441599578E-1	3.680354729E-2	4.179722369E-1
1.323794848E1	-1.269035190E-1	-1.832541823E-2	3.915531039E-1
1.324635151E1	-1.197260618E-1	-3.939964995E-2	3.605526090E-1
1.325475453E1	-1.220167428E-1	-2.229592577E-2	3.387148082E-1
1.326315755E1	-1.262926757E-1	-1.374406274E-3	3.255815804E-1
1.327156057E1	-1.243074164E-1	-2.290677279E-3	3.051182032E-1
1.327996359E1	-1.142284349E-1	-2.550287358E-2	2.860292196E-1
1.328836661E1	-1.033858955E-1	-4.978405312E-2	2.774773538E-1
1.329676963E1	-9.575030953E-2	-6.826218218E-2	2.764083743E-1
1.330517265E1	-8.933641016E-2	-8.139539510E-2	2.666348219E-1
1.331357567E1	-8.353336155E-2	-7.543963939E-2	2.519744933E-1
1.332197869E1	-8.231166750E-2	-4.902049154E-2	2.426590770E-1
1.333038171E1	-7.605048269E-2	-1.725643501E-2	2.394521236E-1
1.333878473E1	-7.146912813E-2	-1.267508045E-2	2.302894145E-1
1.334718776E1	-6.490252167E-2	-3.145863488E-2	2.208212912E-1
1.335559078E1	-5.482354015E-2	-4.886778072E-2	2.221956849E-1
1.336399380E1	-4.963133857E-2	-6.139015034E-2	2.312056869E-1
1.337239682E1	-4.672981426E-2	-7.467607409E-2	2.446443290E-1
1.338079984E1	-4.718795046E-2	-8.185353130E-2	2.492256761E-1
1.338920286E1	-4.749337584E-2	-5.818320066E-2	2.501419485E-1
1.339760588E1	-4.031591862E-2	-3.069507517E-2	2.589992285E-1
1.340600890E1	-2.977880463E-2	-2.321219631E-2	2.644968629E-1
1.341441192E1	-1.557660475E-2	-4.795150831E-2	2.707580328E-1
1.342281494E1	1.221694518E-3	-9.743013978E-2	2.812951505E-1
1.343121796E1	1.496575773E-2	-1.418692768E-1	2.936648130E-1
1.343962098E1	2.367033064E-2	-1.624853760E-1	3.055763543E-1
1.344802400E1	3.054236248E-2	-1.630962193E-1	3.106158376E-1
1.345642703E1	4.016320780E-2	-1.597365588E-1	3.116848171E-1
1.346483005E1	4.856235534E-2	-1.649287641E-1	3.119902313E-1
1.347323307E1	5.222744122E-2	-1.663031727E-1	3.075616062E-1
1.348163609E1	5.436540768E-2	-1.620272398E-1	3.086305857E-1
1.349003911E1	5.879404768E-2	-1.577513069E-1	3.161134422E-1
1.349844213E1	6.291726977E-2	-1.568350345E-1	3.193204105E-1
1.350684515E1	6.200099736E-2	-1.362189353E-1	3.213056624E-1
1.351524817E1	6.398624927E-2	-9.025268257E-2	3.246653080E-1
1.352365119E1	6.459710002E-2	-3.130592033E-2	3.223746419E-1
1.353205421E1	7.070557028E-2	-1.832541777E-3	3.153499067E-1
1.354045723E1	7.055285573E-2	4.886778072E-3	3.084778786E-1
1.354886026E1	6.948387623E-2	6.566607859E-3	3.142809272E-1
1.355726328E1	7.146912813E-2	-5.039489828E-3	3.310792148E-1
1.356566630E1	7.314895838E-2	-2.153236605E-2	3.439069986E-1
1.357406932E1	8.475505561E-2	-5.390727147E-2	3.533751369E-1
1.358247234E1	9.681928903E-2	-9.284878522E-2	3.619270027E-1
1.359087536E1	1.030804738E-1	-1.189625040E-1	3.807105422E-1
1.359927838E1	1.090362370E-1	-1.385096163E-1	3.988832533E-1
1.360768140E1	1.136175916E-1	-1.513374150E-1	4.075878263E-1
1.361608442E1	1.198787764E-1	-1.488940120E-1	4.097257853E-1
1.362448744E1	1.229330078E-1	-1.302631795E-1	4.184303582E-1
1.363289046E1	1.288887709E-1	-1.033858955E-1	4.242334068E-1
1.364129348E1	1.342336833E-1	-8.582404256E-2	4.288147688E-1
1.364969651E1	1.372879148E-1	-8.139539510E-2	4.416425824E-1
1.365809953E1	1.398840249E-1	-8.857285231E-2	4.559974670E-1
1.366650255E1	1.456870735E-1	-1.081199646E-1	4.692834020E-1
1.367490557E1	1.531699449E-1	-1.198787764E-1	4.831801951E-1
1.368330859E1	1.609582454E-1	-1.241547018E-1	5.028799772E-1
1.369171161E1	1.727170646E-1	-1.319430023E-1	5.196782947E-1
1.370011463E1	1.814216375E-1	-1.175880954E-1	5.311316848E-1
1.370851765E1	1.885990947E-1	-1.079672500E-1	5.470137000E-1
1.371692067E1	1.973036677E-1	-1.058292910E-1	5.641174316E-1
1.372532369E1	1.977618039E-1	-8.215895295E-2	5.732801557E-1
1.373372671E1	2.008160353E-1	-4.749337584E-2	5.822901726E-1
1.374212973E1	2.141019702E-1	-3.817795217E-2	5.948125124E-1
1.375053276E1	2.270824611E-1	-4.810422286E-2	5.978667736E-1
1.375893578E1	2.425063550E-1	-6.581879407E-2	6.048914790E-1
1.376733880E1	2.571666837E-1	-7.803573459E-2	6.197045445E-1
1.377574182E1	2.718270421E-1	-8.170082420E-2	6.342121959E-1
1.378414484E1	2.803788781E-1	-8.612946421E-2	6.452074051E-1
1.379254786E1	2.875563502E-1	-8.643488586E-2	6.533011198E-1
1.380095088E1	2.916795611E-1	-7.040014863E-2	6.626165509E-1
1.380935390E1	2.933593988E-1	-4.413371533E-2	6.769714952E-1
1.381775692E1	2.948864996E-1	-3.161134571E-2	6.962131858E-1
1.382615994E1	2.982461751E-1	-4.352286831E-2	7.195780873E-1
1.383456296E1	3.130592108E-1	-6.581879407E-2	7.446228266E-1
1.384296598E1	3.345915973E-1	-8.750387281E-2	7.727217674E-1
1.385136900E1	3.616215885E-1	-9.284878522E-2	8.066238165E-1
1.385977203E1	3.814741075E-1	-1.133121699E-1	8.406785131E-1
1.386817505E1	4.059080184E-1	-1.690519750E-1	8.557969928E-1
1.387657807E1	4.289674759E-1	-2.217375487E-1	8.568660021E-1
1.388498109E1	4.503471553E-1	-2.341072112E-1	8.666395545E-1
1.389338411E1	4.691306949E-1	-2.286095917E-1	8.814526200E-1
1.390178713E1	4.796678126E-1	-2.518217862E-1	8.724426031E-1
1.391019015E1	4.853181541E-1	-2.899997234E-1	8.402203918E-1
1.391859317E1	4.807367921E-1	-3.425326049E-1	8.211314082E-1
1.392699619E1	4.799732268E-1	-4.173613787E-1	8.305995464E-1
1.393539921E1	4.676035643E-1	-4.816530645E-1	8.203678727E-1
1.394380223E1	4.234698713E-1	-5.419742465E-1	8.357917666E-1
1.395220526E1	3.753656447E-1	-6.339067221E-1	9.633061290E-1
1.396060828E1	3.081724346E-1	-5.544965863E-1	1.086239100E0
1.396901130E1	2.250972092E-1	-3.739912212E-1	1.176949978E0
1.397741432E1	1.426328421E-1	-2.579302490E-1	1.236965656E0
1.398581734E1	7.757759839E-2	-1.090362370E-1	1.242616057E0
1.399422036E1	1.374406368E-2	9.834641218E-2	1.220778227E0
1.400262338E1	-4.550812021E-2	2.903051674E-1	1.200314879E0
1.401102640E1	-8.811471611E-2	4.253024161E-1	1.177255392E0
1.401942942E1	-1.154501289E-1	5.106683373E-1	1.140146375E0
1.402783244E1	-1.278197914E-1	5.418215394E-1	1.092500329E0
1.403623546E1	-1.223221645E-1	5.063923597E-1	1.036607742E0
1.404463848E1	-9.972081333E-2	4.028537571E-1	9.721634388E-1
1.405304151E1	-7.773031294E-2	2.576248348E-1	9.032903910E-1
1.406144453E1	-5.848862603E-2	8.139539510E-2	8.296833038E-1
1.406984755E1	-1.404948719E-2	-1.183516532E-1	7.543963790E-1
1.407825057E1	2.977880463E-2	-2.832804024E-1	6.623111367E-1
1.408665359E1	5.848862603E-2	-3.567348123E-1	5.583143830E-1
1.409505661E1	6.413896382E-2	-3.729222417E-1	4.677563012E-1
1.410345963E1	6.841489673E-2	-3.132119179E-1	3.929274976E-1
1.411186265E1	7.330167294E-2	-2.101314515E-1	3.121429384E-1
1.412026567E1	3.710897267E-2	-8.536590636E-2	1.881409585E-1
1.412866869E1	1.863084175E-2	1.091889441E-1	-9.009997360E-3
1.413707171E1	4.169032723E-2	2.822114229E-1	-2.035648525E-1
1.414547473E1	5.741964281E-2	3.790307343E-1	-3.405473530E-1
1.415387776E1	3.878879920E-2	4.822639227E-1	-4.616478086E-1
1.416228078E1	2.412846684E-2	5.931326747E-1	-5.792359114E-1
1.417068380E1	3.939964995E-2	6.293253899E-1	-6.723901033E-1
1.417908682E1	6.994201243E-2	6.213843822E-1	-7.660024762E-1
1.418748984E1	9.834641218E-2	6.080984473E-1	-8.696937561E-1
1.419589286E1	1.186570823E-1	5.621321797E-1	-9.643751383E-1
1.420429588E1	1.369825006E-1	4.986040890E-1	-1.049435616E0
1.421269890E1	1.582094431E-1	4.236225784E-1	-1.128998399E0
1.422110192E1	1.818797737E-1	3.164188862E-1	-1.201536536E0
1.422950494E1	2.015796006E-1	1.661504507E-1	-1.256207347E0
1.423790796E1	2.073826492E-1	5.955760833E-3	-1.301868200E0
1.424631098E1	2.052446753E-1	-1.174353883E-1	-1.355470061E0
1.425471400E1	1.936385781E-1	-1.969982386E-1	-1.403727055E0
1.426311703E1	1.661504507E-1	-2.069245130E-1	-1.464811683E0
1.427152005E1	1.354553849E-1	-1.502684206E-1	-1.538113356E0
1.427992307E1	1.059819981E-1	-8.719844371E-2	-1.610804200E0
1.428832609E1	7.360709459E-2	3.054236295E-4	-1.685938478E0
1.429672911E1	4.947862774E-2	8.628217876E-2	-1.747786760E0
1.430513213E1	3.405473381E-2	1.400367320E-1	-1.783521295E0
1.431353515E1	2.901524492E-2	1.530172378E-1	-1.798487067E0
1.432193817E1	3.802524135E-2	1.363716573E-1	-1.806733489E0
1.433034119E1	4.963133857E-2	1.023169160E-1	-1.811162114E0
1.433874421E1	6.032116711E-2	6.139015034E-2	-1.811009407E0
1.434714723E1	6.597150117E-2	2.916795574E-2	-1.808260560E0
1.435555026E1	6.780404598E-2	7.788302377E-3	-1.806580782E0
1.436395328E1	6.352811307E-2	-8.246437646E-3	-1.810551286E0
1.437235630E1	5.344913527E-2	-1.481304597E-2	-1.825211644E0
1.438075932E1	3.710897267E-2	-1.435491070E-2	-1.841704488E0
1.438916234E1	1.588202827E-2	-1.542389300E-2	-1.852394342E0
1.439756536E1	-3.512371797E-3	-2.565558441E-2	-1.857433796E0
1.440596838E1	-1.298050396E-2	-6.368082762E-2	-1.854684949E0
1.441437140E1	-1.939439960E-2	-1.151447073E-1	-1.850103617E0
1.442277442E1	-1.817270555E-2	-1.695101112E-1	-1.838802934E0
1.443117744E1	-1.664558798E-2	-2.484621257E-1	-1.811620235E0
1.443958046E1	-2.336490713E-2	-3.300102353E-1	-1.785506487E0
1.444798348E1	-3.100049868E-2	-3.808632791E-1	-1.776343822E0
1.445638651E1	-3.161134571E-2	-4.179722369E-1	-1.764279604E0
1.446478953E1	-3.634541109E-2	-4.436278343E-1	-1.732362866E0
1.447319255E1	-5.131116882E-2	-4.063661397E-1	-1.700598717E0
1.448159557E1	-6.597150117E-2	-2.915268540E-1	-1.685022116E0
1.448999859E1	-7.146912813E-2	-1.313321590E-1	-1.691436052E0
1.449840161E1	-6.948387623E-2	3.023693897E-2	-1.724269152E0
1.450680463E1	-6.658235192E-2	1.681357026E-1	-1.774664044E0
1.451520765E1	-6.642963737E-2	2.589992285E-1	-1.825975180E0
1.452361067E1	-5.344913527E-2	3.182514310E-1	-1.855754018E0
1.453201369E1	-4.184303805E-2	3.684936166E-1	-1.863236904E0
1.454041671E1	-6.368082762E-2	3.825430870E-1	-1.841551781E0
1.454881973E1	-3.634541109E-2	3.103103936E-1	-1.764737725E0
1.455722276E1	2.764083818E-2	2.067717910E-1	-1.663795233E0
1.456562578E1	3.420744836E-2	2.296785712E-1	-1.629893184E0
1.457402880E1	-3.512371797E-3	3.605526090E-1	-1.627907991E0
1.458243182E1	-4.749337584E-2	4.178195298E-1	-1.571099162E0
1.459083484E1	-8.704573661E-2	4.311054647E-1	-1.498866439E0
1.459923786E1	-1.010952219E-1	4.561502039E-1	-1.428466320E0
1.460764088E1	-1.027750522E-1	4.275930822E-1	-1.354859233E0
1.461604390E1	-1.252236813E-1	3.332171738E-1	-1.294079900E0
1.462444692E1	-1.713426560E-1	2.490729690E-1	-1.257887244E0
1.463284994E1	-2.147128135E-1	2.101314515E-1	-1.218945742E0
1.464125296E1	-2.377723008E-1	1.055238619E-1	-1.109604001E0
1.464965598E1	-2.061609477E-1	-1.285833418E-1	-9.211576581E-1
1.465805900E1	-1.033858955E-1	-3.906368315E-1	-7.012526393E-1
1.466646203E1	3.970507067E-3	-7.166765332E-1	-4.735593498E-1
1.467486505E1	1.863084175E-2	-9.507837296E-1	-2.997733057E-1
1.468326807E1	-1.252236869E-2	-1.018435121E0	-1.692046970E-1
1.469167109E1	-6.887302548E-2	-1.023169160E0	-3.985778242E-2
1.470007411E1	-9.483403713E-2	-1.039967418E0	1.137702987E-1
1.470847713E1	-6.581879407E-2	-1.061194420E0	3.184041381E-1
1.471688015E1	-5.940489471E-2	-1.145644069E0	5.537330508E-1
1.472528317E1	-9.071081877E-2	-1.090820551E0	7.488987446E-1
1.473368619E1	-6.948387623E-2	-1.109298587E0	1.059209108E0
1.474208921E1	-1.688992679E-1	-1.175575495E0	1.253153205E0
1.475049223E1	-5.005893111E-1	-5.143333673E-1	9.100096822E-1
1.475889526E1	-8.495358229E-1	7.733326554E-1	2.348707765E-1
1.476729828E1	-9.930849075E-1	1.669598222E0	-9.895725548E-2
1.477570130E1	-8.878664970E-1	1.743816257E0	1.918060333E-1
1.478410432E1	-5.841227174E-1	1.162136912E0	8.751913905E-1
1.479250734E1	-2.246390730E-1	1.362189353E-1	1.421746969E0
1.480091036E1	9.590301663E-2	-8.646543026E-1	1.578276634E0
1.480931338E1	2.615953386E-1	-1.451220393E0	1.474738002E0
1.481771640E1	1.867665499E-1	-1.334548593E0	1.271936655E0
1.482611942E1	1.191152167E-2	-8.812998533E-1	1.169925213E0
1.483452846E1	-6.994201243E-2	-4.497362971E-1	1.177102685E0
1.484293148E1	-4.474456236E-2	-1.111742035E-1	1.178629756E0
1.485133450E1	-6.627693027E-2	1.696628332E-1	1.079519868E0
1.485973752E1	-2.060082406E-1	4.618005157E-1	9.266552925E-1
1.486814054E1	-3.266505599E-1	6.629219651E-1	8.460234404E-1
1.487654356E1	-3.518480062E-1	7.000309825E-1	8.674030900E-1
1.488494658E1	-3.477247953E-1	6.493306160E-1	8.842014074E-1
1.489334960E1	-3.694098890E-1	5.937435627E-1	8.192988634E-1
1.490175262E1	-3.813214004E-1	5.485408306E-1	7.198835015E-1
1.491015565E1	-3.628432751E-1	5.005893111E-1	6.697940230E-1
1.491855867E1	-3.513898849E-1	4.686725736E-1	6.881194115E-1
1.492696169E1	-3.368822634E-1	4.233171642E-1	7.295043468E-1
1.493536471E1	-2.916795611E-1	3.106158376E-1	7.624900937E-1
1.494376773E1	-2.403683960E-1	1.097997949E-1	7.798992395E-1
1.495217075E1	-2.093679011E-1	-8.490777016E-2	7.861604095E-1
1.496057377E1	-1.931804419E-1	-1.962346882E-1	7.884510756E-1
1.496897679E1	-1.890572309E-1	-2.125748396E-1	7.762341499E-1
1.497737981E1	-1.992889196E-1	-1.146865711E-1	7.302678823E-1
1.498578283E1	-2.095206082E-1	2.672456764E-2	6.737645268E-1
1.499418585E1	-2.194468826E-1	1.685938388E-1	6.203153729E-1
1.500258888E1	-2.188360244E-1	2.776300907E-1	5.734328628E-1
1.501099190E1	-2.130329758E-1	3.005368412E-1	5.526640415E-1
1.501939492E1	-2.029540092E-1	2.447970361E-1	5.509842038E-1
1.502779794E1	-1.811162084E-1	1.293469071E-1	5.558710098E-1
1.503620096E1	-1.525591016E-1	2.901524538E-3	5.502206683E-1
1.504460398E1	-1.334701329E-1	-7.742489129E-2	5.373928547E-1
1.505300700E1	-1.270562261E-1	-9.208522737E-2	5.256340504E-1
1.506141002E1	-1.291942000E-1	-6.444438547E-2	5.001311898E-1
1.506981304E1	-1.334701329E-1	-3.924693540E-2	4.674508572E-1
1.507821606E1	-1.360662282E-1	-9.162709117E-3	4.271349311E-1
1.508661908E1	-1.365243644E-1	2.611372061E-2	4.004103839E-1
1.509502210E1	-1.302631795E-1	4.001049697E-2	3.888042867E-1
1.510342513E1	-1.238492802E-1	4.550812021E-2	3.755183518E-1
1.511182815E1	-1.224748790E-1	3.939964995E-2	3.600944579E-1
1.512023117E1	-1.229330078E-1	2.809897438E-2	3.429907262E-1
1.512863419E1	-1.211004704E-1	2.382304333E-2	3.283303976E-1
1.513703721E1	-1.256818175E-1	2.061609551E-2	3.274141252E-1
1.514544023E1	-1.287360638E-1	9.620844387E-3	3.306210935E-1
1.515384325E1	-1.243074164E-1	-1.863084175E-2	3.327590525E-1
1.516224627E1	-1.154501289E-1	-4.413371533E-2	3.298575282E-1
1.517064929E1	-1.014006436E-1	-6.597150117E-2	3.362714052E-1
1.517905231E1	-9.009996802E-2	-8.170082420E-2	3.431434333E-1
1.518745533E1	-8.399149776E-2	-8.857285231E-2	3.403946459E-1
1.519585835E1	-7.177454978E-2	-9.819369763E-2	3.324536085E-1
1.520426138E1	-6.368082762E-2	-1.073564067E-1	3.304683566E-1
1.521266440E1	-6.276455522E-2	-1.171299592E-1	3.402419090E-1
1.522106742E1	-6.169557199E-2	-1.421747059E-1	3.486410677E-1
1.522947044E1	-5.543438718E-2	-1.739387512E-1	3.564293683E-1
1.523787346E1	-3.970507160E-2	-1.940967143E-1	3.662029207E-1
1.524627648E1	-2.672456764E-2	-2.067717910E-1	3.851391971E-1
1.525467950E1	-1.542389300E-2	-2.189887464E-1	4.039227366E-1
1.526308252E1	-2.290677279E-3	-2.351761907E-1	4.184303582E-1
1.527148554E1	6.872031838E-3	-2.431172132E-1	4.353813827E-1
1.527988856E1	9.773556143E-3	-2.399102598E-1	4.474456310E-1
1.528829158E1	8.399149403E-3	-2.341072112E-1	4.526378214E-1
1.529669460E1	2.351761982E-2	-2.304421216E-1	4.569137394E-1
1.530509762E1	3.100049868E-2	-2.263189107E-1	4.590517282E-1
1.531350065E1	3.634541109E-2	-2.194468826E-1	4.723376334E-1
1.532190367E1	4.566083103E-2	-2.182251811E-1	4.886777997E-1
1.533030669E1	5.390727147E-2	-2.144073844E-1	4.990622103E-1
1.533870971E1	5.741964281E-2	-1.959292591E-1	5.027272701E-1
1.534711273E1	5.894676223E-2	-1.611109674E-1	5.018110275E-1
1.535551575E1	6.841489673E-2	-1.076618284E-1	4.949389994E-1
1.536391877E1	7.650861889E-2	-6.047387794E-2	4.877615273E-1
1.537232179E1	8.292251825E-2	-3.420744836E-2	4.824166298E-1
1.538072481E1	8.979454637E-2	-2.321219631E-2	4.782933891E-1
1.538912783E1	9.666658193E-2	-2.855710872E-2	4.781406820E-1
1.539753085E1	1.073564067E-1	-5.207473040E-2	4.833329022E-1
1.540593388E1	1.123958975E-1	-6.459710002E-2	4.915793240E-1
1.541433690E1	1.177408099E-1	-4.779879749E-2	4.986040890E-1
1.542273992E1	1.217113137E-1	-3.527642787E-2	5.027272701E-1
1.543114294E1	1.264453828E-1	-3.985778242E-2	4.999784827E-1
1.543954596E1	1.305686086E-1	-4.474456236E-2	5.015056133E-1
1.544794898E1	1.378987730E-1	-5.421269313E-2	5.178457499E-1
1.545635200E1	1.400367320E-1	-6.795676053E-2	5.401417017E-1
1.546475502E1	1.420219839E-1	-7.650861889E-2	5.564818382E-1
1.547315804E1	1.417165697E-1	-8.521319181E-2	5.683933496E-1
1.548156106E1	1.461452097E-1	-9.941539168E-2	5.858024955E-1
1.548996408E1	1.443126649E-1	-9.116895497E-2	6.006155610E-1
1.549836710E1	1.491994411E-1	-7.742489129E-2	6.178719997E-1
1.550677013E1	1.499630064E-1	-7.131642103E-2	6.320741773E-1
1.551517315E1	1.456870735E-1	-6.612421572E-2	6.415423155E-1
1.552357617E1	1.449235082E-1	-5.787777901E-2	6.609367132E-1
1.553197919E1	1.424801201E-1	-6.184828654E-2	6.891884208E-1
1.554038221E1	1.475196183E-1	-8.704573661E-2	7.174401283E-1
1.554878523E1	1.528645307E-1	-1.067455560E-1	7.475243211E-1
1.555718825E1	1.556133330E-1	-1.204896197E-1	7.782194018E-1
1.556559127E1	1.684411317E-1	-1.409530044E-1	8.020424247E-1
1.557399429E1	1.785201132E-1	-1.476723254E-1	8.223531246E-1
1.558239731E1	1.881409585E-1	-1.394258887E-1	8.472451568E-1
1.559080033E1	1.995943487E-1	-1.322484314E-1	8.747332692E-1
1.559920335E1	2.102841735E-1	-1.371352077E-1	9.008470178E-1
1.560760638E1	2.189887464E-1	-1.530172378E-1	9.219212532E-1
1.561600940E1	2.261662036E-1	-1.450762302E-1	9.498674870E-1
1.562441242E1	2.298312783E-1	-1.188097894E-1	9.869764447E-1
1.563281544E1	2.389939874E-1	-1.151447073E-1	1.027750492E0
1.564121846E1	2.560977042E-1	-1.452289373E-1	1.057834744E0
1.564962148E1	2.751866877E-1	-1.678302884E-1	1.072800517E0
1.565802450E1	2.947337925E-1	-1.672194302E-1	1.094027400E0
1.566642752E1	3.219164908E-1	-1.731752008E-1	1.124875188E0
1.567483054E1	3.490992188E-1	-2.173089087E-1	1.137092113E0
1.568323356E1	3.761292100E-1	-2.788517773E-1	1.127318621E0
1.569163658E1	4.054498672E-1	-3.150444627E-1	1.105175376E0
1.570003960E1	4.320217371E-1	-3.286358118E-1	1.087308168E0
1.570844263E1	4.500417113E-1	-3.710896969E-1	1.079214454E0
1.571684565E1	4.665345848E-1	-4.367557764E-1	1.067913771E0
1.572524867E1	4.755446017E-1	-5.060869455E-1	1.056307673E0
1.573365169E1	4.845545888E-1	-5.861079693E-1	1.057071209E0
1.574205471E1	4.883723855E-1	-6.710157394E-1	1.065470338E0
1.575045773E1	4.836383164E-1	-7.485933304E-1	1.072953224E0
1.575886075E1	4.653128982E-1	-8.177717924E-1	1.078298092E0
1.576726377E1	4.419479966E-1	-8.576295376E-1	1.062721491E0
1.577566679E1	4.150707126E-1	-8.493831158E-1	1.023474574E0
1.578406981E1	3.802524209E-1	-8.081509471E-1	9.969027042E-1
1.579247283E1	3.529170156E-1	-7.437065244E-1	1.036607742E0
1.580087585E1	3.159607351E-1	-5.774033666E-1	1.101357579E0
1.580927888E1	2.745758295E-1	-3.226800561E-1	1.141062737E0
1.581768190E1	2.330382317E-1	-1.542389300E-2	1.119835734E0
1.582608492E1	1.855448484E-1	3.158080280E-1	1.041647315E0
1.583448794E1	1.409530044E-1	6.157340407E-1	9.602518678E-1
1.584289096E1	1.055238619E-1	8.542698622E-1	9.080244303E-1
1.585129398E1	5.039490014E-2	1.039967418E0	8.774821162E-1
1.585969700E1	-4.581354442E-4	1.184890985E0	8.315158486E-1
1.586810002E1	-1.878355257E-2	1.234369636E0	7.696675658E-1
1.587650304E1	-4.886778072E-3	1.172215939E0	7.078192830E-1
1.588490606E1	1.603474095E-2	1.032942772E0	6.833853722E-1
1.589330908E1	2.718270384E-2	8.576295376E-1	6.931589246E-1
1.590171210E1	4.260659590E-2	6.507050395E-1	7.157602906E-1
1.591011512E1	1.012479365E-1	4.193466306E-1	7.114843726E-1
1.591851815E1	2.367033064E-1	2.596100867E-1	7.010999322E-1
1.592692117E1	3.081724346E-1	1.319430023E-1	7.226322889E-1
1.593532419E1	2.102841735E-1	6.154286116E-2	6.400152445E-1
1.594372721E1	6.291726977E-2	2.113531530E-1	3.738385141E-1
1.595213023E1	2.092151903E-2	3.750602305E-1	1.010952219E-1
1.596053325E1	9.116895497E-2	4.553866386E-1	-7.834116369E-2
1.596893627E1	1.769929975E-1	4.830274582E-1	-1.954711229E-1
1.597733929E1	2.101314515E-1	4.558447599E-1	-2.838912606E-1
1.598574231E1	2.021904439E-1	3.490992188E-1	-3.472666740E-1
1.599414533E1	1.815743446E-1	1.831014603E-1	-3.976615667E-1
1.600254835E1	1.751604527E-1	8.017370105E-2	-5.019637346E-1
1.601095138E1	1.762294322E-1	9.284878522E-2	-6.742226481E-1
1.601935440E1	1.664558798E-1	1.699682474E-1	-8.646543026E-1
1.602775742E1	1.475196183E-1	2.102841735E-1	-1.026986957E0
1.603616044E1	1.244601309E-1	2.426590770E-1	-1.185196400E0
1.604456346E1	1.024696305E-1	2.929012477E-1	-1.348445296E0
1.605296648E1	9.009996802E-2	2.956500649E-1	-1.482220888E0
1.606136950E1	8.139539510E-2	2.386885732E-1	-1.588660955E0
1.606977252E1	6.169557199E-2	1.954711229E-1	-1.700598717E0
1.607817554E1	4.016320780E-2	1.653869003E-1	-1.817117929E0
1.608657856E1	2.168507688E-2	1.317902952E-1	-1.920198321E0
1.609498158E1	1.068982668E-2	9.758284688E-2	-2.004953384E0
1.610338460E1	4.123218823E-3	6.520794332E-2	-2.084210873E0
1.611178762E1	-4.428642802E-3	4.092676565E-2	-2.173089027E0
1.612019065E1	-1.038440317E-2	-3.359660041E-3	-2.263799906E0
1.612859367E1	-7.330167107E-3	-5.833591148E-2	-2.358023167E0
1.613699669E1	1.527118147E-3	-1.036913246E-1	-2.438349485E0
1.614539971E1	-4.734066315E-3	-1.475196183E-1	-2.487980843E0
1.615380273E1	-1.985253533E-3	-2.107423097E-1	-2.517148733E0
1.616220575E1	1.481304597E-2	-2.954973578E-1	-2.539902925E0
1.617060877E1	3.756710514E-2	-4.178195298E-1	-2.542346239E0
1.617901179E1	4.413371533E-2	-5.519005060E-1	-2.536085129E0
1.618741481E1	4.489727318E-2	-5.769452453E-1	-2.544484138E0
1.619581783E1	4.596625641E-2	-5.566345453E-1	-2.498365402E0
1.620422085E1	2.076880634E-2	-5.972558856E-1	-2.383067846E0
1.621262388E1	-4.947862774E-2	-4.813476503E-1	-2.357259512E0
1.622102690E1	-9.926267713E-2	-1.437018216E-1	-2.485995531E0
1.622942992E1	-9.727742523E-2	1.478250325E-1	-2.598238707E0
1.623783294E1	-8.093725890E-2	1.269035190E-1	-2.533030987E0
1.624623596E1	-9.651386738E-2	4.688252881E-2	-2.397728205E0
1.625463898E1	-9.956810623E-2	1.068982761E-3	-2.266396046E0
1.626304200E1	-5.833591148E-2	-1.073564067E-1	-2.171867371E0
1.627144502E1	-3.603998944E-2	-1.621799469E-1	-2.163926363E0
1.627984804E1	1.954711229E-2	-1.165191159E-1	-2.122999668E0
1.628825106E1	7.360709459E-2	-2.067717910E-1	-1.950435281E0
1.629665408E1	5.864133686E-2	-3.188622594E-1	-1.816201568E0
1.630505710E1	2.122694254E-2	-2.941229641E-1	-1.749161124E0
1.631346013E1	1.939439960E-2	-3.468085229E-1	-1.604237556E0
1.632186315E1	3.756710514E-2	-4.489727318E-1	-1.423579574E0
1.633026617E1	1.695101149E-2	-4.333961308E-1	-1.288887739E0
1.633866919E1	-2.794626169E-2	-2.457133085E-1	-1.223832488E0
1.634707221E1	-6.978929788E-2	-7.605048269E-2	-1.179698825E0
1.635547523E1	-1.097997949E-1	1.695101149E-2	-1.126555085E0
1.636387825E1	-1.178935245E-1	1.149920002E-1	-1.073411345E0
1.637228127E1	-1.206423342E-1	1.805053651E-1	-1.013701081E0
1.638068429E1	-1.305686086E-1	1.991362125E-1	-9.645278454E-1
1.638908731E1	-1.444653720E-1	1.852394342E-1	-9.413156509E-1
1.639749033E1	-1.522536725E-1	1.614163816E-1	-9.332218766E-1
1.640589335E1	-1.533226669E-1	1.021642014E-1	-9.052756429E-1
1.641429638E1	-1.293469071E-1	5.497625098E-3	-8.431219459E-1
1.642269940E1	-6.978929788E-2	-7.375980914E-2	-7.666133046E-1
1.643110242E1	-1.007897966E-2	-1.768402755E-1	-6.589514613E-1
1.643950544E1	2.428117767E-2	-3.202366829E-1	-5.175403357E-1
1.644790846E1	-1.068982668E-2	-3.956763148E-1	-4.057552814E-1
1.645631148E1	-9.269607067E-2	-3.116848171E-1	-3.687990308E-1
1.646471450E1	-1.644706279E-1	-1.991362125E-1	-3.200839758E-1
1.647311752E1	-2.002051920E-1	-1.852394342E-1	-1.800472289E-1
1.648152054E1	-1.806580722E-1	-2.938175201E-1	8.353336155E-2
1.648992356E1	-2.021904439E-1	-4.004103839E-1	4.039227366E-1
1.649832658E1	-2.773246467E-1	-5.587725043E-1	8.400676847E-1
1.650672960E1	-2.385358512E-1	-9.588775039E-1	1.490009189E0
1.651513262E1	-2.238755226E-1	-1.087766290E0	1.823073626E0
1.652353565E1	-3.823903799E-1	2.641914412E-2	1.262163162E0
1.653193867E1	-5.271611810E-1	1.621494055E0	2.959555089E-1
1.654034169E1	-5.899257660E-1	2.344889879E0	-2.279987335E-1
1.654874471E1	-5.781669021E-1	2.339239597E0	-1.327065676E-1
1.655714773E1	-4.408790171E-1	1.826127887E0	4.686725736E-1
1.656555075E1	-2.211267054E-1	5.189147592E-1	1.293621778E0
1.657395377E1	-4.825693369E-2	-9.950701594E-1	1.662726283E0
1.658235679E1	8.887827396E-2	-1.834985137E0	1.550330400E0
1.659075981E1	1.557660550E-1	-1.887823462E0	1.298355818E0
1.659916283E1	8.200624585E-2	-1.363563776E0	1.105480790E0
1.660756585E1	-1.064401343E-1	-4.885250926E-1	9.229902029E-1
1.661596888E1	-2.980934680E-1	4.304946065E-1	6.778877378E-1
1.662437190E1	-4.228590131E-1	9.904888272E-1	4.288147688E-1
1.663277492E1	-4.796678126E-1	1.052031636E0	2.959555089E-1
1.664117794E1	-4.706578255E-1	9.022213817E-1	3.020639718E-1
1.664958096E1	-4.300364852E-1	6.720846891E-1	3.888042867E-1
1.665798398E1	-3.903313875E-1	3.811686933E-1	4.869979918E-1
1.666638700E1	-3.480302393E-1	1.001789495E-1	5.436540842E-1
1.667479002E1	-3.135173619E-1	-6.413896382E-2	5.604523420E-1
1.668319304E1	-3.132119179E-1	-7.711946964E-2	5.679352283E-1
1.669159606E1	-3.335226178E-1	3.665083647E-2	5.825955868E-1
1.669999908E1	-3.431434333E-1	1.772984117E-1	5.706840754E-1
1.670840210E1	-3.396310806E-1	2.339545041E-1	5.370874405E-1
1.671680512E1	-3.135173619E-1	2.276933193E-1	5.105155706E-1
1.672520815E1	-2.945810854E-1	2.278460264E-1	5.163186193E-1
1.673361117E1	-2.745758295E-1	2.096733153E-1	5.347967744E-1
1.674201419E1	-2.446443290E-1	1.771457046E-1	5.460974574E-1
1.675041721E1	-2.194468826E-1	1.670667231E-1	5.590779781E-1
1.675882023E1	-1.933331639E-1	1.525591016E-1	5.778614879E-1
1.676722325E1	-1.692046970E-1	1.374406368E-1	5.899257660E-1
1.677562627E1	-1.453816444E-1	1.382041872E-1	5.931326747E-1
1.678402929E1	-1.261399537E-1	1.426328421E-1	5.974085927E-1
