"Time (s)"	"Acceleration x (m/s^2)"	"Acceleration y (m/s^2)"	"Acceleration z (m/s^2)"
3.396303900E-2	-1.496710539E0	9.661619186E0	-4.606183618E-2
4.236606000E-2	-1.427916884E0	9.690333366E0	-3.110669367E-2
5.076908100E-2	-1.429711580E0	9.698110580E0	-5.802594870E-2
5.917210200E-2	-1.468594909E0	9.681958199E0	-6.340979785E-2
6.757512200E-2	-1.518245935E0	9.663414001E0	-8.614161611E-2
7.597814300E-2	-1.523629785E0	9.650852203E0	-8.853443712E-2
8.438116400E-2	-1.499701619E0	9.664012909E0	-7.178468257E-2
9.278418500E-2	-1.470987678E0	9.671789169E0	-4.845465720E-2
1.011872060E-1	-1.467398524E0	9.673583984E0	-2.452643216E-2
1.095902270E-1	-1.463211060E0	9.665208817E0	-3.948157281E-2
1.179932470E-1	-1.459621787E0	9.669994354E0	-7.597211748E-2
1.263962680E-1	-1.486541033E0	9.671191216E0	-8.793623000E-2
1.347992890E-1	-1.522433400E0	9.678967476E0	-1.070788130E-1
1.432023100E-1	-1.532004714E0	9.688538551E0	-6.340979785E-2
1.516053310E-1	-1.519442320E0	9.643673897E0	-7.657032460E-2
1.600083520E-1	-1.467996716E0	9.636494637E0	-9.032905847E-2
1.684113720E-1	-1.420140266E0	9.694520950E0	-5.623133108E-2
1.768143930E-1	-1.434497118E0	9.708877563E0	-2.931207791E-2
1.852174140E-1	-1.458425403E0	9.686145782E0	-9.032905847E-2
1.936204350E-1	-1.460219979E0	9.655637741E0	-1.256231815E-1
2.020234560E-1	-1.438086390E0	9.669396400E0	-1.381855011E-1
2.104264770E-1	-1.429711580E0	9.682557106E0	-1.256231815E-1
2.188294970E-1	-1.440479279E0	9.677771568E0	-1.010967568E-1
2.272325180E-1	-1.441675663E0	9.661021233E0	-8.195417374E-2
2.356355390E-1	-1.473380566E0	9.667601585E0	-5.563312769E-2
2.440385600E-1	-1.508076429E0	9.664610863E0	-4.307080805E-2
2.524415810E-1	-1.518844128E0	9.649057388E0	-5.084748194E-2
2.608446020E-1	-1.514656782E0	9.635896683E0	-7.178468257E-2
2.692476220E-1	-1.508674622E0	9.659825325E0	-8.793623000E-2
2.776506430E-1	-1.487139225E0	9.706484795E0	-8.015955985E-2
2.860536640E-1	-1.499103427E0	9.702896118E0	-6.400800496E-2
2.944566850E-1	-1.483550072E0	9.655039787E0	-5.563312769E-2
3.028597060E-1	-1.462612867E0	9.637093544E0	-4.905286431E-2
3.112627270E-1	-1.470389485E0	9.647262573E0	-6.221338734E-2
3.196657470E-1	-1.499103427E0	9.671191216E0	-1.034895778E-1
3.280687680E-1	-1.476969719E0	9.675976753E0	-1.016949639E-1
3.364717890E-1	-1.450648785E0	9.688538551E0	-1.082752272E-1
3.448748100E-1	-1.423131227E0	9.698110580E0	-4.785645381E-2
3.532778310E-1	-1.368096352E0	9.655637741E0	9.571290575E-3
3.616808520E-1	-1.412363529E0	9.643074989E0	-2.093719877E-2
3.700838720E-1	-1.500299811E0	9.665806770E0	-5.024927482E-2
3.784868930E-1	-1.576870084E0	9.673583984E0	-1.004985496E-1
3.868899140E-1	-1.596012712E0	9.646066666E0	-8.913264424E-2
3.952929350E-1	-1.556531072E0	9.638289452E0	-7.716853172E-2
4.036959560E-1	-1.455434322E0	9.680762291E0	-1.232303679E-1
4.120989770E-1	-1.301097274E0	9.714859962E0	-3.290131316E-2
4.205019970E-1	-1.298106313E0	9.675976753E0	3.649054468E-2
4.289050180E-1	-1.476371527E0	9.664012909E0	4.366901144E-2
4.373080390E-1	-1.637887120E0	9.662816048E0	-4.725824669E-2
4.457110600E-1	-1.704287887E0	9.641280174E0	-1.124626622E-1
4.541140810E-1	-1.682154298E0	9.626325607E0	-9.272187948E-2
4.625171020E-1	-1.584048629E0	9.631111145E0	-7.597211748E-2
4.709201220E-1	-1.474576950E0	9.652647018E0	-3.349951655E-2
4.793231430E-1	-1.430907965E0	9.677172661E0	-3.649054468E-2
4.877261640E-1	-1.476969719E0	9.684949875E0	-3.469592705E-2
4.961291850E-1	-1.533201098E0	9.664012909E0	-1.615155302E-2
5.045322060E-1	-1.588834286E0	9.667003632E0	-4.127619043E-2
5.129352270E-1	-1.573879123E0	9.677771568E0	-6.939185411E-2
5.213382470E-1	-1.488335729E0	9.678369522E0	-5.922235921E-2
5.297412680E-1	-1.410568953E0	9.671191216E0	-3.349951655E-2
5.381442890E-1	-1.396810174E0	9.669396400E0	-3.828516230E-2
5.465473100E-1	-1.421336651E0	9.675378799E0	-7.537391037E-2
5.549503310E-1	-1.457229018E0	9.669994354E0	-1.363908947E-1
5.633533520E-1	-1.504487276E0	9.668798447E0	-1.830509305E-1
5.717563720E-1	-1.484148264E0	9.698110580E0	-2.219343036E-1
5.801593930E-1	-1.450648785E0	9.705288887E0	-1.232303679E-1
5.885624140E-1	-1.424925923E0	9.626923561E0	-5.084748194E-2
5.969654350E-1	-1.411765337E0	9.628120422E0	-2.931207791E-2
6.053684560E-1	-1.438684583E0	9.681360245E0	-5.383851007E-3
6.137714770E-1	-1.493121386E0	9.701699257E0	-5.742774159E-2
6.221744970E-1	-1.526022673E0	9.684351921E0	-1.046859920E-1
6.305775180E-1	-1.527219057E0	9.641879082E0	-1.268195957E-1
6.389805390E-1	-1.511665702E0	9.627521515E0	-1.393819153E-1
6.473835600E-1	-1.466202021E0	9.659226418E0	-1.543370634E-1
6.557865810E-1	-1.455434322E0	9.678369522E0	-1.639083475E-1
6.641896020E-1	-1.470987678E0	9.684351921E0	-1.890329868E-1
6.725926220E-1	-1.485344648E0	9.689137459E0	-1.806581169E-1
6.809956430E-1	-1.478166223E0	9.676574707E0	-1.232303679E-1
6.893986640E-1	-1.468594909E0	9.628718376E0	-9.990034252E-2
6.978016850E-1	-1.481755376E0	9.667601585E0	-8.973085135E-2
7.062047060E-1	-1.480558991E0	9.702896118E0	-6.879365444E-2
7.146077270E-1	-1.447657704E0	9.705886841E0	-9.152546525E-2
7.230107470E-1	-1.449452281E0	9.694520950E0	-5.623133108E-2
7.314137680E-1	-1.474576950E0	9.647860527E0	-8.793623000E-2
7.398167890E-1	-1.490130305E0	9.644869804E0	-1.202393398E-1
7.482198100E-1	-1.463211060E0	9.681958199E0	-1.621137410E-1
7.566228310E-1	-1.456032634E0	9.690333366E0	-1.459621787E-1
7.650258520E-1	-1.452443361E0	9.641280174E0	-1.609173268E-1
7.734288720E-1	-1.482353687E0	9.631709099E0	-2.087737769E-1
7.818318930E-1	-1.496112347E0	9.658030510E0	-1.830509305E-1
7.902349140E-1	-1.501496196E0	9.641280174E0	-1.914258152E-1
7.986379350E-1	-1.484148264E0	9.635896683E0	-2.159522474E-1
8.070409560E-1	-1.481157184E0	9.684351921E0	-1.704886109E-1
8.154439770E-1	-1.472184181E0	9.666405678E0	-1.268195957E-1
8.238469970E-1	-1.460818172E0	9.624530792E0	-1.274178028E-1
8.322500180E-1	-1.488335729E0	9.603593826E0	-1.483550072E-1
8.406530390E-1	-1.574477315E0	9.604789734E0	-1.812563092E-1
8.490560600E-1	-1.603191137E0	9.608977318E0	-2.512463629E-1
8.574590810E-1	-1.540977836E0	9.635298729E0	-2.464607358E-1
8.658621020E-1	-1.448255897E0	9.674181938E0	-1.974078715E-1
8.742651220E-1	-1.381855130E0	9.676574707E0	-1.686939895E-1
8.826681430E-1	-1.312463164E0	9.633503914E0	-1.483550072E-1
8.910711640E-1	-1.296311617E0	9.580264091E0	-1.028913707E-1
8.994741850E-1	-1.388435364E0	9.602995872E0	-1.411765367E-1
9.078772060E-1	-1.475773335E0	9.661619186E0	-2.003988922E-1
9.162802270E-1	-1.478166223E0	9.694520950E0	-1.878365725E-1
9.246832470E-1	-1.427318692E0	9.720842361E0	-1.782652885E-1
9.330862680E-1	-1.380060434E0	9.738189697E0	-1.579262912E-1
9.414892890E-1	-1.305882931E0	9.753145218E0	-6.699903309E-2
9.498923100E-1	-1.329213023E0	9.725028992E0	1.645065546E-1
9.582953310E-1	-1.399203062E0	9.683753014E0	1.609173268E-1
9.666983520E-1	-1.471585870E0	9.698708534E0	1.196411327E-1
9.751013720E-1	-1.495514154E0	9.702896118E0	1.076770201E-2
9.835043930E-1	-1.487737536E0	9.706484795E0	8.374879137E-3
9.919074140E-1	-1.478764415E0	9.680762291E0	2.991028316E-2
1.000310435E0	-1.496710539E0	9.665208817E0	1.435693540E-2
1.008713456E0	-1.528415442E0	9.673583984E0	-2.033899166E-2
1.017116477E0	-1.585245013E0	9.720243454E0	-8.015955985E-2
1.025519497E0	-1.629512191E0	9.790832520E0	-8.554340899E-2
1.033922518E0	-1.679761529E0	9.837491989E0	-2.392822644E-3
1.042325539E0	-1.771885157E0	9.848259926E0	1.483550072E-1
1.050728560E0	-1.898106575E0	9.840482712E0	2.865405083E-1
1.059131581E0	-2.017747641E0	9.835697174E0	3.990031779E-1
1.067534602E0	-2.168495417E0	9.791430473E0	5.647061467E-1
1.075937622E0	-2.368296146E0	9.605388641E0	5.312066078E-1
1.084340643E0	-2.553740025E0	9.433105469E0	3.032902777E-1
1.092743664E0	-2.596810818E0	9.443274498E0	-6.759724021E-2
1.101146685E0	-2.529213428E0	9.676574707E0	-3.511467278E-1
1.109549706E0	-2.334198475E0	9.860821724E0	-6.143572330E-1
1.117952727E0	-2.021935225E0	9.987641335E0	-8.261220455E-1
1.126355747E0	-1.728216171E0	1.006002426E1	-9.158528447E-1
1.134758768E0	-1.634297848E0	1.014377308E1	-8.512466550E-1
1.143161789E0	-1.747956991E0	1.018684387E1	-7.806583643E-1
1.151564810E0	-1.881356835E0	1.007557774E1	-8.285148144E-1
1.159967831E0	-1.907677889E0	9.887143135E0	-1.042672515E0
1.168370852E0	-1.872981906E0	9.752547264E0	-1.282552958E0
1.176773872E0	-1.697109461E0	9.720842361E0	-1.420738459E0
1.185176893E0	-1.364507079E0	9.721440315E0	-1.331605792E0
1.193579914E0	-9.505487680E-1	9.658030510E0	-1.187438250E0
1.201982935E0	-6.681957245E-1	9.563513756E0	-8.775677085E-1
1.210385956E0	-6.586244106E-1	9.346963882E0	-6.634100676E-1
1.218788977E0	-9.451649189E-1	9.199805260E0	-4.654040039E-1
1.227191997E0	-1.238285661E0	8.888139725E0	-4.516452849E-1
1.235595018E0	-1.200000525E0	8.711071014E0	-8.243274093E-1
1.243998039E0	-8.488538265E-1	8.798408508E0	-1.214955688E0
1.252401060E0	-4.677968323E-1	8.880363464E0	-1.213161111E0
1.260804081E0	-1.268195957E-1	8.808578491E0	-1.213759303E0
1.269207102E0	1.501496136E-1	8.772686005E0	-1.506880045E0
1.277610122E0	3.517449200E-1	9.052646637E0	-1.772483349E0
1.286013143E0	3.834498227E-1	9.409176826E0	-1.567897081E0
1.294416164E0	8.195417374E-2	9.452845573E0	-9.876375198E-1
1.302819185E0	-5.353940725E-1	9.220742226E0	-6.424728632E-1
1.311222206E0	-1.174277663E0	9.025727272E0	-6.993024349E-1
1.319625227E0	-1.522433400E0	9.113663673E0	-8.560323119E-1
1.328028247E0	-1.536790371E0	9.363713264E0	-7.908278704E-1
1.336431268E0	-1.386042476E0	9.618548393E0	-4.929214716E-1
1.344834289E0	-1.305882931E0	9.884750366E0	-2.973082066E-1
1.353237310E0	-1.476371527E0	1.014796066E1	-2.739782035E-1
1.361640331E0	-1.685743570E0	1.028973579E1	-5.682953820E-2
1.370043352E0	-1.791027784E0	1.016889763E1	-8.793623000E-2
1.378446372E0	-1.711466432E0	1.003071213E1	-2.997010350E-1
1.386849393E0	-1.617548108E0	1.004267693E1	-5.670989752E-1
1.395252414E0	-1.446461320E0	1.007139015E1	-6.801598072E-1
1.403655435E0	-1.204786181E0	1.001216793E1	-5.617151260E-1
1.412058456E0	-9.942178130E-1	9.875777245E0	-4.235295951E-1
1.420461477E0	-8.297112584E-1	9.842875481E0	-4.737788737E-1
1.428864497E0	-7.292127013E-1	9.963713646E0	-5.581258535E-1
1.437267518E0	-7.339983582E-1	1.004267693E1	-4.199403822E-1
1.445670539E0	-6.329016089E-1	9.960722923E0	-5.186443329E-1
1.454073560E0	-4.049852192E-1	9.806385040E0	-5.820540786E-1
1.462476581E0	-1.914258152E-1	9.695717812E0	-6.275177598E-1
1.470879602E0	5.084748194E-2	9.690333366E0	-7.112665176E-1
1.479282622E0	3.194418252E-1	9.768099785E0	-6.496513486E-1
1.487685643E0	5.096712112E-1	9.784252167E0	-7.627122402E-1
1.496088664E0	5.324030519E-1	9.729216576E0	-8.997012973E-1
1.504491685E0	4.366901219E-1	9.738788605E0	-9.020941257E-1
1.512894706E0	3.146561682E-1	9.875179291E0	-6.179464459E-1
1.521297727E0	1.698904037E-1	1.000738239E1	-3.918247223E-1
1.529700747E0	6.580262631E-2	1.003310490E1	-3.254238665E-1
1.538103768E0	-4.067798331E-2	9.979865074E0	-2.273181528E-1
1.546506789E0	-1.058823988E-1	9.923035622E0	-1.208375469E-1
1.554909810E0	-1.154536903E-1	9.918250084E0	-5.084748194E-2
1.563312831E0	-2.273181453E-2	9.966704369E0	-5.324030295E-2
1.571715852E0	4.426721856E-2	1.001755238E1	-5.324030295E-2
1.580118872E0	-1.435693540E-2	9.978070259E0	2.991028363E-3
1.588521893E0	-2.075773627E-1	9.917651176E0	4.187439568E-3
1.596924914E0	-4.133601189E-1	9.944570541E0	-6.460621208E-2
1.605327935E0	-5.497509837E-1	1.002473068E1	-1.818545163E-1
1.613730956E0	-6.370890141E-1	1.001336479E1	-1.100698411E-1
1.622133977E0	-6.502495408E-1	9.937392235E0	3.649054468E-2
1.630536997E0	-6.801598072E-1	9.859027863E0	6.939185411E-2
1.638940018E0	-7.094719410E-1	9.780662537E0	5.383851007E-3
1.647343039E0	-7.064808607E-1	9.704689980E0	-3.708875179E-2
1.655746060E0	-7.262216806E-1	9.681360245E0	-7.537391037E-2
1.664149081E0	-7.531409264E-1	9.686145782E0	-2.207378894E-1
1.672552102E0	-7.794619799E-1	9.647262573E0	-3.266202807E-1
1.680955122E0	-8.273184299E-1	9.603593826E0	-2.033899277E-1
1.689358143E0	-8.321040869E-1	9.540184021E0	-2.129612118E-1
1.697761164E0	-7.202396393E-1	9.569496155E0	-3.272185028E-1
1.706164185E0	-6.011967063E-1	9.632905960E0	-3.182454109E-1
1.714567206E0	-5.617151260E-1	9.644271851E0	-2.560320199E-1
1.722970227E0	-5.635097623E-1	9.576076508E0	-3.254238665E-1
1.731373247E0	-5.641079545E-1	9.600004196E0	-4.301098585E-1
1.739776268E0	-5.796613097E-1	9.702896118E0	-4.408775866E-1
1.748179289E0	-6.299105883E-1	9.707681656E0	-4.217349887E-1
1.756582310E0	-6.669993401E-1	9.617950439E0	-3.290131092E-1
1.764985331E0	-7.076773047E-1	9.522835732E0	-2.799602449E-1
1.773388352E0	-7.866404653E-1	9.544371605E0	-3.397808075E-1
1.781791372E0	-8.057830334E-1	9.682557106E0	-2.907279432E-1
1.790194393E0	-7.680960894E-1	9.753743172E0	-2.518445849E-1
1.798597414E0	-7.387840152E-1	9.647860527E0	-3.152543902E-1
1.807000435E0	-6.472585201E-1	9.610772133E0	-3.589234054E-1
1.815403456E0	-5.455635786E-1	9.694520950E0	-3.487538993E-1
1.823806477E0	-5.234299302E-1	9.788438797E0	-3.571287692E-1
1.832209497E0	-5.682953596E-1	9.762716293E0	-4.199403822E-1
1.840612518E0	-6.137589812E-1	9.671789169E0	-4.737788737E-1
1.849015539E0	-5.934200287E-1	9.647860527E0	-5.413761139E-1
1.857418560E0	-5.252245665E-1	9.754940033E0	-5.210371017E-1
1.865821581E0	-4.211367965E-1	9.753743172E0	-5.168496966E-1
1.874224602E0	-3.792623878E-1	9.597611427E0	-5.611169338E-1
1.882627622E0	-3.337987661E-1	9.560523033E0	-6.041877270E-1
1.891030643E0	-3.487538993E-1	9.711869240E0	-6.095715761E-1
1.899433664E0	-4.097708762E-1	9.761520386E0	-7.034898400E-1
1.907836685E0	-4.630111754E-1	9.698110580E0	-8.338986635E-1
1.916239706E0	-3.810569942E-1	9.657432556E0	-8.697910309E-1
1.924642727E0	-2.757728100E-1	9.703494072E0	-8.572286963E-1
1.933045747E0	-1.866401732E-1	9.771091461E0	-8.392825127E-1
1.941448768E0	-1.339980662E-1	9.811769485E0	-7.166503668E-1
1.949851789E0	-1.884347796E-1	9.806983948E0	-7.968099117E-1
1.958254810E0	-2.638086975E-1	9.900303841E0	-9.092726111E-1
1.966657831E0	-3.122633696E-1	1.005284595E1	-8.518448472E-1
1.975060852E0	-3.080759048E-1	1.022812080E1	-5.982056856E-1
1.983463872E0	-2.955136001E-1	1.035553837E1	-3.068794906E-1
1.991866893E0	-4.181457460E-1	1.035254669E1	-1.764706671E-1
2.000269914E0	-5.892325640E-1	1.034118080E1	-2.907279432E-1
2.008672935E0	-7.387840152E-1	1.037827015E1	-6.598208547E-1
2.017075956E0	-7.968099117E-1	1.029272652E1	-1.088734269E0
2.025478977E0	-6.203392744E-1	1.016411209E1	-1.376471281E0
2.033881997E0	-2.297109663E-1	1.030229759E1	-1.576271892E0
2.042285018E0	2.093719877E-2	1.062353420E1	-1.740778446E0
2.050688039E0	4.666004330E-2	1.075155067E1	-1.951945066E0
2.059091060E0	6.041877344E-2	1.066600704E1	-2.096710920E0
2.067494081E0	1.722832322E-1	1.033639526E1	-2.018944025E0
2.075897102E0	3.696911037E-1	1.027298546E1	-1.943570137E0
2.084300122E0	4.749752879E-1	1.049133110E1	-1.761715651E0
2.092703143E0	3.415754437E-1	1.078265667E1	-1.504487276E0
2.101106164E0	-2.512463741E-2	1.081555843E1	-7.824530005E-1
2.109509185E0	-5.455635786E-1	1.057507992E1	-2.309073806E-1
2.117912206E0	-1.100698471E0	1.019103146E1	-1.615155339E-1
2.126315227E0	-1.363310695E0	9.771091461E0	-7.429714203E-1
2.134718247E0	-1.007976532E0	9.809974670E0	-1.107278705E0
2.143121268E0	-6.388836503E-1	1.007378292E1	-7.040880919E-1
2.151524289E0	-3.457628787E-1	1.017368412E1	-5.324030519E-1
2.159927310E0	-2.021935135E-1	1.027657509E1	-5.234299302E-1
2.168330331E0	-2.614158690E-1	1.019162941E1	-6.005984545E-1
2.176733352E0	-4.085744619E-1	1.000319481E1	-8.225327730E-1
2.185136372E0	-5.635097623E-1	9.825528145E0	-1.005583763E0
2.193539393E0	-5.294120312E-1	9.799804688E0	-1.114457130E0
2.201942414E0	-2.201396823E-1	9.896116257E0	-1.033101201E0
2.210345435E0	2.219343036E-1	9.962516785E0	-1.043270707E0
2.218748456E0	5.880361795E-1	9.985248566E0	-1.044467092E0
2.227151477E0	7.639086246E-1	9.934999466E0	-9.409775138E-1
2.235554497E0	7.208378315E-1	9.882357597E0	-6.999006271E-1
2.243957518E0	5.473581553E-1	9.708877563E0	-5.006981492E-1
2.252360539E0	3.577269912E-1	9.521040916E0	-6.035895348E-1
2.260763560E0	1.256231871E-2	9.439086914E0	-7.256234884E-1
2.269166581E0	-4.821537733E-1	9.399007797E0	-8.937192559E-1
2.277569602E0	-9.415757060E-1	9.413962364E0	-1.029511929E0
2.285972622E0	-1.215553880E0	9.502496719E0	-1.228714466E0
2.294375643E0	-1.350748420E0	9.607781410E0	-1.323829174E0
2.302778664E0	-1.384846091E0	9.646066666E0	-1.388435364E0
2.311181685E0	-1.333400369E0	9.580264091E0	-1.456032634E0
2.319584706E0	-1.346560955E0	9.436096191E0	-1.535593987E0
2.327987727E0	-1.406979680E0	9.242277145E0	-1.500898004E0
2.336390747E0	-1.308275819E0	9.072386742E0	-1.380658627E0
2.344793768E0	-1.000798106E0	9.056833267E0	-1.297508121E0
2.353196789E0	-7.106683254E-1	9.165108681E0	-1.205384374E0
2.361599810E0	-5.682953596E-1	9.318249702E0	-1.144367456E0
2.370002831E0	-6.400800347E-1	9.311071396E0	-1.085743308E0
2.378405852E0	-7.549355626E-1	9.187242508E0	-1.111466169E0
2.386808872E0	-7.806583643E-1	9.150154114E0	-1.122832060E0
2.395211893E0	-8.141579032E-1	9.228518486E0	-1.016351461E0
2.403614914E0	-8.745766878E-1	9.327820778E0	-9.996016622E-1
2.412017935E0	-9.690931439E-1	9.451649666E0	-1.027119160E0
2.420420956E0	-1.092921734E0	9.555138588E0	-1.022931695E0
2.428823977E0	-1.178465128E0	9.539586067E0	-1.077368379E0
2.437226997E0	-1.202393413E0	9.469595909E0	-1.182652593E0
2.445630018E0	-1.173081279E0	9.462417603E0	-1.231107235E0
2.454033039E0	-1.118644595E0	9.519845009E0	-1.222134113E0
2.462436060E0	-9.936196208E-1	9.618548393E0	-1.262812138E0
2.470839081E0	-8.799605370E-1	9.685547829E0	-1.329213023E0
2.479242102E0	-7.363911867E-1	9.723235130E0	-1.433898926E0
2.487645122E0	-5.545366406E-1	9.737591743E0	-1.493719578E0
2.496048143E0	-3.355933726E-1	9.750154495E0	-1.585843205E0
2.504451164E0	-1.621137410E-1	9.751350403E0	-1.704886079E0
2.512854185E0	-1.166501045E-1	9.748359680E0	-1.766501307E0
2.521257206E0	-1.238285750E-1	9.708877563E0	-1.812563181E0
2.529660227E0	-8.973085135E-2	9.649655342E0	-1.856830359E0
2.538063247E0	1.316052489E-2	9.604191780E0	-1.928016901E0
2.546466268E0	1.794617027E-1	9.586245537E0	-1.956730723E0
2.554869289E0	4.115654826E-1	9.585049629E0	-2.015354872E0
2.563272310E0	5.443671346E-1	9.605388641E0	-2.013560295E0
2.571675331E0	5.335994363E-1	9.501898766E0	-2.097309113E0
2.580078352E0	7.052844763E-1	9.434301376E0	-2.367099762E0
2.588481372E0	1.047458172E0	9.608379364E0	-2.512463808E0
2.596884393E0	1.110867858E0	9.697511673E0	-2.145763636E0
2.605287414E0	8.536394835E-1	9.530014038E0	-2.077568293E0
2.613690435E0	4.540380836E-1	9.416953087E0	-2.105684042E0
2.622093456E0	1.136590764E-1	9.306285858E0	-1.907677889E0
2.630496477E0	-8.973085135E-2	9.133403778E0	-1.875972986E0
2.638899497E0	-6.999006122E-2	9.076574326E0	-2.130808592E0
2.647302518E0	-1.830509305E-1	9.134002686E0	-2.200200319E0
2.655705539E0	-4.480560422E-1	9.025128365E0	-2.163709879E0
2.664108560E0	-4.869394004E-1	8.900702477E0	-2.412563324E0
2.672511581E0	-4.007977843E-1	8.908478737E0	-2.305484533E0
2.680914602E0	-8.195417374E-2	8.782855988E0	-2.132004976E0
2.689317622E0	5.778666735E-1	8.817551613E0	-2.368296146E0
2.697720643E0	9.367900491E-1	9.109476089E0	-2.023729801E0
2.706123664E0	7.160521746E-1	9.016754150E0	-1.559522152E0
2.714526685E0	5.222335458E-1	8.492127419E0	-1.522433400E0
2.722929706E0	1.005583763E0	8.030911446E0	-1.954936147E0
2.731332727E0	1.530808330E0	7.969893932E0	-1.509272933E0
2.739735747E0	1.432104349E0	7.626523972E0	-1.499103427E0
2.748138768E0	1.307677627E0	7.342376232E0	-3.492922783E0
2.756541789E0	1.521237016E0	7.618747234E0	-5.539384365E0
2.764944810E0	2.396411896E0	8.435895920E0	-6.508477688E0
2.773347831E0	4.458426952E0	1.017248726E1	-5.701498032E0
2.781750852E0	8.603992462E0	1.330768299E1	-3.888336718E-1
2.790153872E0	1.474876022E1	1.745683670E1	7.023532867E0
2.798556893E0	1.536012650E1	2.066920280E1	1.247737408E1
2.806959914E0	6.424728870E0	1.885424614E1	1.311805153E1
2.815362935E0	-4.899304390E0	1.298704529E1	6.680760860E0
2.823765956E0	-1.070429230E1	8.258827209E0	-1.274776220E0
2.832168977E0	-8.820542336E0	7.128817081E0	-8.368298531E0
2.840571997E0	-6.332605362E0	9.010771751E0	-1.116311550E1
2.848975018E0	-5.164907455E0	1.033400249E1	-5.674578667E0
2.857378039E0	-3.672384501E0	9.013164520E0	-1.667797327E0
2.865781060E0	-1.304088384E-1	8.770293236E0	-2.141576260E-1
2.874184081E0	4.735395908E0	1.034656525E1	1.762313843E0
2.882587102E0	8.105088234E0	1.162433243E1	3.418745279E0
2.890990122E0	7.821538925E0	1.121456146E1	1.892124534E0
2.899393143E0	3.985844374E0	1.037348461E1	-7.238288224E-2
2.907796164E0	-6.041877270E-1	9.567701340E0	-8.733802438E-1
2.916199185E0	-2.805584431E0	9.062815666E0	-9.672985673E-1
2.924602206E0	-2.295913219E0	9.347561836E0	-5.982056856E-1
2.933005227E0	-1.163509965E0	9.948160172E0	-2.494517565E-1
2.941408247E0	-7.956135273E-1	1.009113121E1	4.301098585E-1
2.949811268E0	-4.013960063E-1	9.923633575E0	2.823530734E-1
2.958214289E0	1.615155339E-1	1.008873844E1	-2.494517565E-1
2.966617310E0	2.536391914E-1	1.055892849E1	-5.407779217E-1
2.975020331E0	-2.195414752E-1	1.056790161E1	-2.614158690E-1
2.983423352E0	-6.143572330E-1	1.008814049E1	2.751746178E-1
2.991826372E0	-6.059823632E-1	9.611968994E0	4.091726840E-1
3.000229393E0	-3.332005441E-1	9.537193298E0	3.176472187E-1
3.008632414E0	-1.896311939E-1	9.704092026E0	4.181457460E-1
3.017035435E0	-1.573280841E-1	9.811170578E0	5.318048596E-1
3.025438456E0	-6.819544733E-2	9.827322960E0	5.473581553E-1
3.033841477E0	1.130608693E-1	9.820143700E0	2.075773627E-1
3.042244497E0	1.728814393E-1	9.879964828E0	1.399801224E-1
3.050647518E0	4.247260094E-2	9.963713646E0	1.477568001E-1
3.059050539E0	-1.651047617E-1	9.967901230E0	2.213360928E-2
3.067453560E0	-2.835494876E-1	9.841679573E0	-9.690931439E-2
3.075856581E0	-3.637090325E-1	9.667601585E0	-3.290131316E-2
3.084259602E0	-3.912265003E-1	9.617352486E0	1.435693651E-1
3.092662622E0	-3.266202807E-1	9.693922997E0	2.979064286E-1
3.101065643E0	-2.560320199E-1	9.677172661E0	4.570291340E-1
3.109468664E0	-3.738785386E-1	9.585647583E0	7.435696125E-1
3.117871685E0	-6.317051649E-1	9.565906525E0	8.368897438E-1
3.126274706E0	-7.531409264E-1	9.685547829E0	7.920243144E-1
3.134677727E0	-7.537391186E-1	9.699904442E0	6.215356588E-1
3.143080747E0	-7.244270444E-1	9.641280174E0	5.186443329E-1
3.151483768E0	-6.460621357E-1	9.617950439E0	5.694918036E-1
3.159886789E0	-6.640082598E-1	9.605388641E0	6.239284873E-1
3.168289810E0	-6.233302951E-1	9.622138023E0	5.359922647E-1
3.176692831E0	-4.935196638E-1	9.698708534E0	5.318048596E-1
3.185095852E0	-3.918247223E-1	9.770493507E0	5.108676553E-1
3.193498872E0	-3.906283081E-1	9.786644936E0	5.072783828E-1
3.201901893E0	-4.666004181E-1	9.774082184E0	4.211367965E-1
3.210304914E0	-4.809573591E-1	9.736394882E0	3.834498227E-1
3.218707935E0	-2.542374134E-1	9.700503349E0	2.907279432E-1
3.227110956E0	7.357929647E-2	9.770493507E0	4.271188378E-1
3.235513977E0	3.140579760E-1	9.841679573E0	5.760720372E-1
3.243916997E0	4.073780477E-1	9.809974670E0	5.347958803E-1
3.252320018E0	4.073780477E-1	9.745966911E0	3.738785386E-1
3.260723039E0	3.361915946E-1	9.768099785E0	2.440679073E-1
3.269126060E0	2.338984162E-1	9.785448074E0	5.742774159E-2
3.277529081E0	2.656033039E-1	9.763913155E0	-7.776673883E-2
3.285932102E0	3.804588020E-1	9.741181374E0	-1.567298770E-1
3.294335122E0	3.822534084E-1	9.718449593E0	-2.500499785E-1
3.302738143E0	2.895315289E-1	9.617352486E0	-3.164508045E-1
3.311141164E0	3.242274821E-1	9.401400566E0	-6.358926296E-1
3.319544185E0	4.570291340E-1	9.299705505E0	-4.336991012E-1
3.327947206E0	6.412764788E-1	9.406186104E0	-9.032905847E-2
3.336350227E0	6.179464459E-1	9.731011391E0	3.607180119E-1
3.344753247E0	2.667997181E-1	9.845867157E0	4.654040039E-1
3.353156268E0	-1.543370634E-1	9.739984512E0	2.829512656E-1
3.361559289E0	-2.865405083E-1	9.632308006E0	1.657029688E-1
3.369962310E0	-1.130608693E-1	9.669994354E0	1.686939895E-1
3.378365331E0	2.338984162E-1	9.751948357E0	1.244267747E-1
3.386768352E0	6.508477330E-1	9.858428955E0	2.871387079E-2
3.395171372E0	8.937192559E-1	9.934401512E0	-1.471585929E-1
3.403574393E0	9.984052777E-1	1.013479996E1	-3.302095234E-1
3.411977414E0	1.056431174E0	1.045842934E1	-3.475574851E-1
3.420380435E0	9.756734371E-1	1.086221886E1	-4.630111754E-1
3.428783456E0	6.299105883E-1	1.130608654E1	-1.716850251E-1
3.437186477E0	3.684946895E-1	1.150828075E1	-5.353940725E-1
3.445589497E0	-1.878365725E-1	1.204905796E1	-2.530409992E-1
3.453992518E0	-7.471588850E-1	1.211725426E1	-2.679961324E-1
3.462395539E0	-1.101894855E0	1.163749313E1	-6.406782866E-1
3.470798560E0	-8.650053740E-1	1.100160027E1	-9.038887620E-1
3.479201581E0	-3.601198196E-1	1.030409241E1	-1.010369420E0
3.487604602E0	3.409772217E-1	9.758528709E0	-1.088734269E0
3.496007622E0	1.033699393E0	9.533603668E0	-1.005583763E0
3.504410643E0	1.625324726E0	9.683753014E0	-9.062815905E-1
3.512813664E0	2.059622049E0	1.001276588E1	-7.597211599E-1
3.521216685E0	2.327618122E0	1.015573788E1	-7.698906660E-1
3.529619706E0	2.449054003E0	1.006540871E1	-7.112665176E-1
3.538022727E0	2.440679073E0	9.769894600E0	-7.519445419E-1
3.546425747E0	2.361117840E0	9.522237778E0	-6.646065116E-1
3.554828768E0	2.180459738E0	9.518050194E0	-5.994020700E-1
3.563231789E0	1.931606054E0	9.672387123E0	-5.252245665E-1
3.571634810E0	1.741376638E0	9.939785004E0	-2.159522474E-1
3.580037831E0	1.652244091E0	1.008574772E1	1.555334684E-2
3.588440852E0	1.518245935E0	1.009771156E1	2.117647976E-1
3.596843872E0	1.261017561E0	9.963115692E0	5.904290080E-1
3.605246893E0	9.475577474E-1	9.669994354E0	8.219345808E-1
3.613649914E0	4.145565331E-1	9.342776299E0	1.010967612E0
3.622052935E0	-1.094716340E-1	9.130413055E0	1.031904817E0
3.630455956E0	-9.002995491E-1	9.434301376E0	9.493523836E-1
3.638858977E0	-2.979064226E0	9.123832703E0	1.709073544E0
3.647261997E0	-5.009374142E0	8.127222061E0	1.244267821E0
3.655665018E0	-5.540580750E0	7.879564762E0	7.956135273E-2
3.664068039E0	-4.677968502E0	8.765507698E0	5.144568533E-2
3.672471060E0	-3.921238184E0	9.391828537E0	2.237289101E-1
3.680874081E0	-3.587439299E0	9.790233612E0	2.488535494E-1
3.689277102E0	-3.594617844E0	9.991230965E0	3.714857101E-1
3.697680122E0	-3.661616802E0	9.927821159E0	5.682953820E-2
3.706083143E0	-3.355335474E0	1.002652550E1	-2.727817893E-1
3.714486164E0	-2.751745939E0	1.047996521E1	-5.826523304E-1
3.722889185E0	-2.478964329E0	1.088016415E1	-5.383850932E-1
3.731292206E0	-2.398206472E0	1.095793152E1	-6.550351977E-1
3.739695227E0	-2.319243431E0	1.089811039E1	-6.514459848E-1
3.748098247E0	-2.251047850E0	1.079162979E1	-5.946164131E-1
3.756501268E0	-2.076371908E0	1.074018478E1	-5.114658475E-1
3.764904289E0	-1.621735573E0	1.098784161E1	-5.341976285E-1
3.773307310E0	-1.593619823E0	1.107996559E1	-4.564309120E-1
3.781710331E0	-1.605584025E0	1.084845924E1	-6.466603279E-1
3.790113352E0	-1.452443361E0	1.072762203E1	-7.746763229E-1
3.798516372E0	-1.100698471E0	1.076889801E1	-8.069794178E-1
3.806919393E0	-6.071787477E-1	1.095972633E1	-8.207381964E-1
3.815322414E0	-2.566302419E-1	1.085324574E1	-1.157527924E0
3.823725435E0	5.300102234E-1	1.090768242E1	-1.165902853E0
3.832128456E0	1.385444283E0	1.105842972E1	-1.684547186E0
3.840531477E0	1.447657704E0	1.078086281E1	-1.606182218E0
3.848934497E0	9.038887620E-1	1.008694363E1	-1.695913076E0
3.857337518E0	7.328019142E-1	9.681360245E0	-1.759322882E0
3.865740539E0	6.777670383E-1	9.343374252E0	-1.633699656E0
3.874143560E0	1.158724308E0	9.287142754E0	-1.839482427E0
3.882546581E0	1.720439434E0	9.377471924E0	-2.196611166E0
3.890949602E0	2.297708035E0	9.654440880E0	-2.228914261E0
3.899352622E0	2.559721947E0	9.702896118E0	-1.729412556E0
3.907755643E0	3.077169895E0	9.556335449E0	-1.650449395E0
3.916158664E0	4.255036831E0	9.759127617E0	-1.532602906E0
3.924561685E0	5.521438122E0	1.016231823E1	-1.192223907E0
3.932964706E0	6.218945980E0	1.032861900E1	-4.911268353E-1
3.941367727E0	6.347560406E0	9.759725571E0	-4.522434771E-1
3.949770747E0	5.766702652E0	8.947361946E0	-6.723831892E-1
3.958173768E0	4.545764923E0	8.380861282E0	-9.397810698E-1
3.966576789E0	3.375674486E0	8.087740898E0	-1.223330617E0
3.974979810E0	2.506481647E0	8.181060791E0	-1.356132269E0
3.983382831E0	2.294118643E0	8.353941917E0	-1.393221021E0
3.991785852E0	2.639881611E0	8.472386360E0	-1.942971945E0
4.000188872E0	3.724428415E0	8.991629601E0	-2.005783558E0
4.008591893E0	5.666802406E0	9.533005714E0	-1.371087432E0
4.016994914E0	9.269794464E0	9.863813400E0	2.768495798E0
4.025397935E0	1.711765480E1	9.127422333E0	3.378067255E0
4.033800956E0	2.378106689E1	1.060140038E1	-3.177070379E0
4.042203977E0	1.892722702E1	1.558265972E1	1.590628862E0
4.050606997E0	6.997211456E0	1.745923042E1	1.220399380E1
4.059010018E0	-1.147478104E1	1.200598717E1	1.144965649E1
4.067413039E0	-1.988196373E1	7.694121361E0	-2.653042078E0
4.075816060E0	-1.106082249E1	9.406186104E0	-1.340160179E1
4.084219081E0	-4.717449665E0	1.362233925E1	-9.262616158E0
4.092622102E0	-2.489133835E0	1.249831104E1	-2.584248543E0
4.101025122E0	3.050848842E-2	8.177471161E0	-2.704487801E0
4.109428143E0	3.875774384E0	7.186244488E0	-2.895315289E-1
4.117831164E0	7.789236069E0	9.927821159E0	2.542972326E0
4.126234185E0	8.285746574E0	1.215314579E1	9.972088337E-1
4.134637206E0	3.997808456E0	1.190668583E1	1.088734269E-1
4.143040227E0	-1.471585870E0	9.899106979E0	-7.160521746E-1
4.151443247E0	-3.556332588E0	8.529814720E0	-7.465606928E-1
4.159846268E0	-2.573480844E0	8.948558807E0	-7.513462901E-1
4.168249289E0	-1.150947690E0	9.929615974E0	2.979064286E-1
4.176652310E0	-1.375873089E-1	1.014616585E1	1.375872970E0
4.185055331E0	1.104287624E0	1.022931671E1	1.995614052E0
4.193458352E0	2.009970903E0	1.041715336E1	1.782054663E0
4.201861372E0	1.877169371E0	1.033938694E1	1.261615753E0
4.210264393E0	1.022931695E0	1.008873844E1	4.211367965E-1
4.218667414E0	1.298106313E-1	1.005643559E1	-1.333998591E-1
4.227070435E0	-3.900300860E-1	1.014736271E1	-5.473581553E-1
4.235473456E0	-4.510470629E-1	1.025743294E1	-4.743770957E-1
4.243876477E0	-3.146561682E-1	1.030050373E1	-1.950150430E-1
4.252279497E0	-1.244267747E-1	1.027298546E1	2.392822690E-2
4.260682518E0	2.225325108E-1	1.030469036E1	1.728814393E-1
4.269085539E0	5.096712112E-1	1.011027431E1	2.733799815E-1
4.277488560E0	4.522434771E-1	9.689735413E0	4.486542568E-2
4.285891581E0	3.517449200E-1	9.394221306E0	3.230310604E-2
4.294294602E0	3.972085714E-1	9.399007797E0	1.543370634E-1
4.302697622E0	5.084748268E-1	9.342177391E0	3.858426511E-1
4.311100643E0	6.137589812E-1	9.214161873E0	5.240281820E-1
4.319503664E0	6.675975323E-1	9.139386177E0	6.885347366E-1
4.327906685E0	6.915257573E-1	9.068798065E0	3.960121572E-1
4.336309706E0	7.381857634E-1	9.075976372E0	3.373879790E-1
4.344712727E0	7.639086246E-1	9.156734467E0	1.992024779E-1
4.353115747E0	7.190431952E-1	9.336195946E0	1.854437590E-1
4.361518768E0	6.364908218E-1	9.381659508E0	2.231307179E-1
4.369921789E0	6.209374666E-1	9.308079720E0	2.267199457E-1
4.378324810E0	6.897311211E-1	9.220144272E0	6.640082598E-2
4.386727831E0	8.261220455E-1	9.200403214E0	-4.785645287E-3
4.395130852E0	1.014556766E0	9.251250267E0	-1.076770201E-1
4.403533872E0	1.156331539E0	9.387641907E0	-6.340979785E-2
4.411936893E0	1.213161111E0	9.396614075E0	-2.506481707E-1
4.420339914E0	1.287936807E0	9.324232101E0	-4.534398913E-1
4.428742935E0	1.534397483E0	9.441479683E0	-5.778666735E-1
4.437145956E0	1.748555183E0	9.684949875E0	-5.694918036E-1
4.445548977E0	1.774876237E0	9.826724052E0	-3.296113312E-1
4.453951997E0	1.714457393E0	9.747760773E0	-1.040877849E-1
4.462355018E0	1.642672777E0	9.689735413E0	9.750752151E-2
4.470758039E0	1.523629785E0	9.787242889E0	3.230310604E-2
4.479161060E0	1.424925923E0	1.000379372E1	9.391828626E-2
4.487564081E0	1.438086390E0	1.017607689E1	-1.872383654E-1
4.495967102E0	1.700698733E0	1.040578747E1	-2.590230405E-1
4.504370122E0	2.004587173E0	1.065523911E1	-3.726821244E-1
4.512773143E0	2.045265198E0	1.095015430E1	-3.649054468E-1
4.521176164E0	1.839482427E0	1.114277649E1	-4.743770957E-1
4.529579185E0	1.479960799E0	1.130489063E1	-5.790630579E-1
4.537982206E0	1.115653515E0	1.127737331E1	-7.477570772E-1
4.546385227E0	9.415757060E-1	1.097886848E1	-8.536394835E-1
4.554788247E0	9.248259664E-1	1.056849957E1	-8.225327730E-1
4.563191268E0	9.349954724E-1	1.024487019E1	-6.484549642E-1
4.571594289E0	8.578268886E-1	1.013240719E1	-4.636093974E-1
4.579997310E0	6.263213158E-1	1.036989498E1	-1.980060786E-1
4.588400331E0	3.146561682E-1	1.065882874E1	1.136590727E-2
4.596803352E0	6.580262631E-2	1.081196880E1	1.328016520E-1
4.605206372E0	-4.845465720E-2	1.068335533E1	1.495514158E-2
4.613609393E0	-1.070788130E-1	1.043330479E1	-1.435693651E-1
4.622012414E0	-1.734796464E-1	1.021496010E1	-1.477568001E-1
4.630415435E0	-2.033899277E-1	1.024008465E1	-2.518445849E-1
4.638818456E0	-6.999006122E-2	1.049432182E1	-2.596212626E-1
4.647221477E0	1.238285750E-1	1.080419254E1	-2.697907388E-1
4.655624497E0	3.200400174E-1	1.092203903E1	-2.781656384E-1
4.664027518E0	4.707878530E-1	1.076710415E1	-3.248256743E-1
4.672430539E0	4.857429862E-1	1.058524895E1	-1.292124242E-1
4.680833560E0	4.360919297E-1	1.048116112E1	2.189432681E-1
4.689236581E0	6.065805554E-1	1.060319519E1	2.506481707E-1
4.697639602E0	8.721838593E-1	1.096152020E1	5.413761139E-1
4.706042622E0	7.148557901E-1	1.101834965E1	8.057830334E-1
4.714445643E0	4.366901144E-2	1.043868923E1	1.392024517E0
4.722848664E0	-3.708875179E-1	9.614361763E0	1.572682738E0
4.731251685E0	-4.965106845E-1	9.092725754E0	9.906286001E-1
4.739654706E0	-9.290133715E-1	9.144171715E0	4.420739710E-1
4.748057727E0	-2.572284460E0	8.952746391E0	1.908276081E-1
4.756460747E0	-4.286741734E0	8.139784813E0	-5.575276613E-1
4.764863768E0	-4.734199524E0	7.758129120E0	-1.070189953E0
4.773266789E0	-3.704089403E0	8.063812256E0	-7.740781307E-1
4.781669810E0	-2.511267424E0	8.574680328E0	3.409772366E-2
4.790072831E0	-1.819741607E0	9.071788788E0	-3.708875179E-2
4.798475852E0	-1.570888042E0	9.724431038E0	-6.161518395E-2
4.806878872E0	-1.481755376E0	9.913464546E0	-5.682953820E-2
4.815281893E0	-1.366899967E0	9.682557106E0	-2.279163599E-1
4.823684914E0	-1.130010486E0	9.590433121E0	-4.121637046E-1
4.832087935E0	-9.110672474E-1	9.629914284E0	-5.461617708E-1
4.840490956E0	-4.462614357E-1	9.894321442E0	-7.369893789E-1
4.848893977E0	1.136590764E-1	1.028076267E1	-7.280163169E-1
4.857296997E0	3.445664644E-1	1.046680450E1	-7.016952634E-1
4.865700018E0	4.582255483E-1	1.046022415E1	-6.412764788E-1
4.874103039E0	4.773681164E-1	1.029153061E1	-9.182456732E-1
4.882506060E0	3.571287692E-1	1.022871876E1	-4.396811724E-1
4.890909081E0	6.825526357E-1	1.057627583E1	-6.197410822E-1
4.899312102E0	7.070791125E-1	1.083350468E1	-7.621139884E-1
4.907715122E0	1.645065546E-1	1.070369434E1	-4.558327198E-1
4.916118143E0	3.708875179E-1	1.050329494E1	-7.399803996E-1
4.924521164E0	5.084748268E-1	1.079222870E1	-1.271187067E0
4.932924185E0	-1.196411345E-2	1.043868923E1	-4.887340367E-1
4.941327206E0	4.331009090E-1	1.045902824E1	-7.603194118E-1
4.949730227E0	9.080761671E-1	1.064387321E1	-8.793623447E-1
4.958133247E0	9.212366939E-1	1.076471043E1	-1.068395257E0
4.966536268E0	4.354937077E-1	1.056371403E1	-1.074975610E0
4.974939289E0	2.392822653E-1	1.063609695E1	-1.212562919E0
4.983342310E0	3.936193287E-1	1.072463131E1	-1.428515077E0
4.991745331E0	8.189435601E-1	1.099621677E1	-1.613958836E0
5.000148352E0	1.133599758E0	1.092024422E1	-1.560718536E0
5.008551372E0	1.437488198E0	1.047697353E1	-1.474576950E0
5.016954393E0	2.230110645E0	9.936196327E0	-1.566102386E0
5.025357414E0	2.687737942E0	9.869196892E0	-1.379462242E0
5.033760435E0	2.980260611E0	9.715457916E0	-1.224527001E0
5.042163456E0	3.237488985E0	9.533603668E0	-1.481755376E0
5.050566477E0	3.537788391E0	9.547362328E0	-1.685743570E0
5.058969497E0	3.726821184E0	9.634700775E0	-1.315454245E0
5.067372518E0	3.787838221E0	9.488140106E0	-1.396211982E0
5.075775539E0	4.079762459E0	9.148359299E0	-1.411765337E0
5.084178560E0	4.959722996E0	8.661419868E0	-1.484746456E0
5.092581581E0	6.103492260E0	8.612366676E0	-1.261615753E0
5.100984602E0	6.694519520E0	8.800203323E0	-8.189435601E-1
5.109387622E0	6.790830612E0	8.763712883E0	-1.490728498E0
5.117790643E0	6.635297298E0	8.537590981E0	-2.084746838E0
5.126193664E0	6.610770702E0	8.371888161E0	-2.898904562E0
5.134596685E0	6.769893646E0	8.499904633E0	-3.491726398E0
5.142999706E0	7.850253105E0	9.454042435E0	-2.778067112E0
5.151402727E0	9.376275063E0	1.153520012E1	8.949156404E-1
5.159805747E0	9.404989243E0	1.314198017E1	8.907880783E0
5.168208768E0	6.355337143E0	1.439821243E1	1.353679562E1
5.176611789E0	-1.405185103E0	1.474158192E1	1.346501160E1
5.185014810E0	-9.538987160E0	1.372523022E1	6.122634888E0
5.193417831E0	-1.146221828E1	1.275374508E1	-3.379263878E0
5.201820852E0	-7.373483181E0	1.219262791E1	-8.647661209E0
5.210223872E0	-2.261815548E0	1.104407310E1	-9.516854286E0
5.218626893E0	1.051645517E0	9.252447128E0	-5.831906796E0
5.227029914E0	3.151347399E0	8.060821533E0	-2.769093990E0
5.235432935E0	4.959125042E0	9.311669350E0	-9.828519225E-1
5.243835956E0	5.584847927E0	1.129412270E1	1.567298889E0
5.252238977E0	4.374079704E0	1.190130138E1	2.848655462E0
5.260641997E0	2.050050735E0	1.066002464E1	9.882357717E-1
5.269045018E0	-4.648058116E-1	9.324232101E0	-9.553344250E-1
5.277448039E0	-2.224726915E0	8.596813202E0	-1.479960799E0
5.285851060E0	-2.273779631E0	8.668598175E0	-2.410768867E-1
5.294254081E0	-8.691928387E-1	9.293125153E0	1.353739381E0
5.302657102E0	4.683950245E-1	9.932008743E0	2.060818434E0
5.311060122E0	1.136590719E0	9.998409271E0	2.009970903E0
5.319463143E0	1.179661512E0	9.783653259E0	1.149153113E0
5.327866164E0	7.040880919E-1	9.814162254E0	1.028913707E-1
5.336269185E0	-5.024927482E-2	9.995418549E0	-6.801598072E-1
5.344672206E0	-7.405785918E-1	1.003430176E1	-6.089733839E-1
5.353075227E0	-9.912267923E-1	9.778269768E0	-2.153540403E-1
5.361478247E0	-9.122636318E-1	9.615557671E0	1.393819153E-1
5.369881268E0	-6.909275651E-1	9.567701340E0	4.157529473E-1
5.378284289E0	-3.409772217E-1	9.525827408E0	4.462614357E-1
5.386687310E0	1.112662554E-1	9.665208817E0	4.630111754E-1
5.395090331E0	3.272185028E-1	9.836296082E0	3.068794906E-1
5.403493352E0	2.344966233E-1	9.987043381E0	2.063809484E-1
5.411896372E0	6.281159073E-2	1.001994514E1	1.848455518E-1
5.420299393E0	2.596212626E-1	1.006480980E1	1.094716340E-1
5.428702414E0	5.389832854E-1	9.958329201E0	2.033899277E-1
5.437105435E0	7.166503668E-1	9.802198410E0	3.577269912E-1
5.445508456E0	7.226324677E-1	9.818947792E0	3.337987661E-1
5.453911477E0	6.472585201E-1	9.901499748E0	8.195417374E-2
5.462314497E0	5.485545993E-1	1.001336479E1	-1.351944804E-1
5.470717518E0	4.600201547E-1	1.009830952E1	-1.136590764E-1
5.479120539E0	6.149554253E-1	1.004088211E1	3.050848842E-2
5.487523560E0	9.690931439E-1	9.938589096E0	3.583251834E-1
5.495926581E0	1.275972724E0	9.857233047E0	6.305087805E-1
5.504329602E0	1.335195065E0	9.825528145E0	5.216353536E-1
5.512732622E0	1.146760225E0	9.769296646E0	4.576273263E-1
5.521135643E0	9.152546525E-1	9.708279610E0	3.140579760E-1
5.529538664E0	7.573283911E-1	9.668798447E0	2.757728100E-1
5.537941685E0	7.680960894E-1	9.687940598E0	1.633101404E-1
5.546344706E0	7.932206988E-1	9.769296646E0	1.746760458E-1
5.554747727E0	8.105686903E-1	9.823733330E0	2.775674164E-1
5.563150747E0	7.555337548E-1	9.790832520E0	4.701896608E-1
5.571553768E0	6.059823632E-1	9.711270332E0	5.958128572E-1
5.579956789E0	4.767699242E-1	9.698708534E0	6.717849374E-1
5.588359810E0	4.773681164E-1	9.680762291E0	6.957131624E-1
5.596762831E0	5.587241054E-1	9.691530228E0	6.263213158E-1
5.605165852E0	5.958128572E-1	9.678967476E0	6.340979934E-1
5.613568872E0	5.814558864E-1	9.605986595E0	6.257231236E-1
5.621971893E0	4.809573591E-1	9.527023315E0	6.400800347E-1
5.630374914E0	2.667997181E-1	9.473783493E0	5.593222976E-1
5.638777935E0	1.453639716E-1	9.501300812E0	2.536391914E-1
5.647180956E0	2.757728100E-1	9.594620705E0	-2.153540403E-2
5.655583977E0	5.886343718E-1	9.597013474E0	-2.213360965E-1
5.663986997E0	8.751748800E-1	9.476774216E0	-2.392822653E-1
5.672390018E0	1.092323542E0	9.285946846E0	-4.193421602E-1
5.680793039E0	1.210170031E0	9.229715347E0	-3.224328458E-1
5.689196060E0	1.147956610E0	9.244669914E0	-1.345962733E-1
5.697599081E0	8.093722463E-1	9.298508644E0	1.567298770E-1
5.706002102E0	3.326023519E-1	9.345169067E0	4.127618968E-1
5.714405122E0	-8.255238086E-2	9.322437286E0	4.289134443E-1
5.722808143E0	-1.872383654E-1	9.301499367E0	2.715853751E-1
5.731211164E0	1.130608693E-1	9.311669350E0	3.326023519E-1
5.739614185E0	4.522434771E-1	9.355338097E0	4.959124923E-1
5.748017206E0	8.141579032E-1	9.392427444E0	1.770688742E-1
5.756420227E0	1.283151150E0	9.582057953E0	-6.041877344E-2
5.764823247E0	1.609173179E0	1.000738239E1	-2.255235314E-1
5.773226268E0	1.582253933E0	1.063250732E1	1.010967568E-1
5.781629289E0	1.507478237E0	1.123669529E1	3.445664644E-1
5.790032310E0	1.670190215E0	1.142393398E1	3.852444589E-1
5.798435331E0	2.012962103E0	1.081615639E1	3.290131316E-2
5.806838352E0	2.338385820E0	9.878767967E0	-2.195414752E-1
5.815241372E0	2.675175667E0	9.361918449E0	-5.240281820E-1
5.823644393E0	2.903092146E0	9.433105469E0	-5.485545993E-1
5.832047414E0	3.013161898E0	9.643673897E0	-2.919243574E-1
5.840450435E0	3.056232691E0	9.637691498E0	-1.680957973E-1
5.848853456E0	3.089732170E0	9.650253296E0	-1.878365725E-1
5.857256477E0	2.996412039E0	9.719645500E0	-8.733802289E-2
5.865659497E0	2.720639229E0	9.927821159E0	-1.770688742E-1
5.874062518E0	2.273181438E0	1.010907745E1	-2.673979402E-1
5.882465539E0	1.741376638E0	1.010907745E1	-4.648058116E-1
5.890868560E0	1.305882931E0	9.954142570E0	-5.533402562E-1
5.899271581E0	1.001994491E0	9.903892517E0	-4.821537733E-1
5.907674602E0	8.201399446E-1	9.981659889E0	-3.684946895E-1
5.916077622E0	7.094719410E-1	1.010668468E1	-5.688936114E-1
5.924480643E0	6.717849374E-1	1.034836006E1	-5.545366406E-1
5.932883664E0	7.573283911E-1	1.058465099E1	-5.144568682E-1
5.941286685E0	9.320043921E-1	1.076052380E1	-4.253242314E-1
5.949689706E0	1.122832060E0	1.082333469E1	-2.374876440E-1
5.958092727E0	1.264008522E0	1.077368355E1	-2.632104978E-2
5.966495747E0	1.292124271E0	1.058465099E1	6.340979785E-2
5.974898768E0	1.234696507E0	1.047039413E1	3.170489892E-2
5.983301789E0	1.143171072E0	1.039561844E1	-1.513460279E-1
5.991704810E0	1.087537885E0	1.036331463E1	-3.182454109E-1
6.000107831E0	1.141376376E0	1.034596729E1	-4.295116663E-1
6.008510852E0	1.365703583E0	1.035434151E1	-5.054838061E-1
6.016913872E0	1.685743570E0	1.032682419E1	-5.180460811E-1
6.025316893E0	1.989632010E0	1.024666500E1	-5.371887088E-1
6.033719914E0	2.215155602E0	1.019521904E1	-5.018945336E-1
6.042122935E0	2.188834429E0	1.010369396E1	-4.091726840E-1
6.050525956E0	1.930409670E0	9.952347755E0	-4.504488707E-1
6.058928977E0	1.630708575E0	9.882357597E0	-4.989035130E-1
6.067331997E0	1.339980721E0	9.986445427E0	-3.391826153E-1
6.075735018E0	7.806583643E-1	9.988240242E0	-1.483550072E-1
6.084138039E0	-6.340979785E-2	9.803992271E0	-1.010967568E-1
6.092541060E0	-8.297112584E-1	9.608977318E0	-2.063809484E-1
6.100944081E0	-1.272981644E0	9.558728218E0	-4.013960063E-1
6.109347102E0	-1.631905079E0	9.508479118E0	-7.004988194E-1
6.117750122E0	-1.797608018E0	9.532406807E0	-1.075573802E0
6.126153143E0	-1.724626899E0	9.756135941E0	-1.183250785E0
6.134556164E0	-1.563111424E0	9.896116257E0	-1.044467092E0
6.142959185E0	-1.384247899E0	9.866206169E0	-9.026923180E-1
6.151362206E0	-1.179063320E0	9.812965393E0	-9.828519225E-1
6.159765227E0	-1.150349498E0	9.758528709E0	-1.109073281E0
6.168168247E0	-1.297508121E0	9.717850685E0	-1.135992527E0
6.176571268E0	-1.528415442E0	9.707681656E0	-1.051645517E0
6.184974289E0	-1.671984792E0	9.677172661E0	-9.535398483E-1
6.193377310E0	-1.394417405E0	9.840482712E0	-9.457631707E-1
6.201780331E0	-1.160519004E0	9.924830437E0	-8.775677085E-1
6.210183352E0	-1.115653515E0	9.790832520E0	-8.805587292E-1
6.218586372E0	-1.174875975E0	9.628718376E0	-1.007976532E0
6.226989393E0	-1.309472203E0	9.616754532E0	-1.062413216E0
6.235392414E0	-1.476371527E0	9.577272415E0	-1.152144074E0
6.243795435E0	-1.307079315E0	9.719645500E0	-1.215553880E0
6.252198456E0	-9.439685345E-1	9.939187050E0	-1.186241865E0
6.260601477E0	-6.239284873E-1	1.008514881E1	-1.032503009E0
6.269004497E0	-4.618147612E-1	1.008814049E1	-1.039681435E0
6.277407518E0	-3.547359705E-1	1.008873844E1	-1.018146038E0
6.285810539E0	-2.506481707E-1	1.014676476E1	-9.415757060E-1
6.294213560E0	-7.357929647E-2	1.024845982E1	-1.004985452E0
6.302616581E0	8.973085135E-2	1.033938694E1	-9.882357717E-1
6.311019602E0	4.067798555E-1	1.048833942E1	-9.439685345E-1
6.319422622E0	6.448656917E-1	1.068514919E1	-9.870393276E-1
6.327825643E0	7.040880919E-1	1.084367371E1	-1.100100160E0
6.336228664E0	9.762716293E-1	1.069113159E1	-1.117448211E0
6.344631685E0	9.445667267E-1	1.054756260E1	-1.223928809E0
6.353034706E0	1.487139225E0	1.059840965E1	-1.212562919E0
6.361437727E0	1.921436548E0	1.074975586E1	-1.089930773E0
6.369840747E0	2.285743713E0	1.077428246E1	-1.253240824E0
6.378243768E0	2.843271494E0	1.073240757E1	-1.730010748E0
6.386646789E0	3.525225878E0	1.071625614E1	-2.263610125E0
6.395049810E0	4.451248169E0	1.067677498E1	-2.258226395E0
6.403452831E0	5.122435093E0	1.019521904E1	-1.385444283E0
6.411855852E0	5.809773445E0	9.361320496E0	-8.392825127E-1
6.420258872E0	6.977470875E0	8.745168686E0	-7.489534616E-1
6.428661893E0	8.718249321E0	8.747561455E0	-1.109671474E0
6.437064914E0	1.023529911E1	9.297312737E0	-7.088736892E-1
6.445467935E0	1.113440228E1	9.683753014E0	-5.647061467E-1
6.453870956E0	1.271845055E1	9.981659889E0	-6.281159073E-2
6.462273977E0	1.654995728E1	9.996614456E0	2.278565407E0
6.470676997E0	2.234238243E1	1.054756260E1	2.669791937E0
6.479080018E0	2.126740837E1	1.200299644E1	2.971287489E0
6.487483039E0	1.046979523E1	1.305045509E1	8.523832321E0
6.495886060E0	-6.731009960E0	1.066122150E1	1.350748348E1
6.504289081E0	-2.253321075E1	7.606184959E0	3.965505362E0
6.512692102E0	-2.023370743E1	9.708279610E0	-9.258428574E0
6.521095122E0	-1.037587738E1	1.512323761E1	-1.774337769E1
6.529498143E0	-4.283152580E0	1.651944923E1	-9.902696609E0
6.537901164E0	6.041877344E-2	1.095493984E1	-2.361117840E0
6.546304185E0	4.529015064E0	6.546164513E0	-4.019941986E-1
6.554707206E0	8.347361565E0	7.778468132E0	1.281954765E0
6.563110227E0	1.024367332E1	1.132283688E1	2.592025042E0
6.571513247E0	8.711071014E0	1.296012592E1	1.441077471E0
6.579916268E0	4.088735580E0	1.205982590E1	-2.859423161E-1
6.588319289E0	-1.109671474E0	1.030409241E1	-1.200000525E0
6.596722310E0	-4.181457520E0	8.883354187E0	-1.562513232E0
6.605125331E0	-4.255635262E0	8.526823044E0	-1.057627559E0
6.613528352E0	-2.745764017E0	8.971290588E0	-1.226321608E-1
6.621931372E0	-1.134796143E0	9.617950439E0	1.031306505E0
6.630334393E0	5.934200287E-1	1.007557774E1	1.499701619E0
6.638737414E0	2.066800594E0	1.026341438E1	1.351346612E0
6.647140435E0	2.287538528E0	1.012821960E1	1.131805062E0
6.655543456E0	1.304686546E0	9.873384476E0	7.304090858E-1
6.663946477E0	-1.202393398E-1	9.796216011E0	3.373879790E-1
6.672349497E0	-1.447059512E0	9.862616539E0	1.010967568E-1
6.680752518E0	-2.167897224E0	9.858428955E0	1.196411345E-2
6.689155539E0	-2.318047047E0	9.683753014E0	2.189432681E-1
6.697558560E0	-1.750349760E0	9.510273933E0	3.122633696E-1
6.705961581E0	-6.221339107E-1	9.516255379E0	4.671986103E-1
6.714364602E0	2.596212626E-1	9.668798447E0	6.843472719E-1
6.722767622E0	5.108676553E-1	9.740582466E0	7.926225066E-1
6.731170643E0	1.764706671E-1	9.701101303E0	7.794619799E-1
6.739573664E0	-4.073780477E-1	9.620343208E0	5.994020700E-1
6.747976685E0	-8.650053740E-1	9.578469276E0	3.541377485E-1
6.756379706E0	-9.565308690E-1	9.567103386E0	2.141576260E-1
6.764782727E0	-6.436693072E-1	9.608379364E0	2.973082066E-1
6.773185747E0	-2.608176768E-1	9.659825325E0	4.630111754E-1
6.781588768E0	8.374879137E-3	9.681958199E0	5.575276613E-1
6.789991789E0	9.930214286E-2	9.690333366E0	7.597211599E-1
6.798394810E0	6.101697683E-2	9.679565430E0	8.177471161E-1
6.806797831E0	1.316052489E-2	9.695118904E0	5.258227587E-1
6.815200852E0	-1.106680483E-1	9.669396400E0	3.086741269E-1
6.823603872E0	-2.045863420E-1	9.554540634E0	2.087737769E-1
6.832006893E0	-1.148554832E-1	9.583852768E0	2.422732860E-1
6.840409914E0	-2.991028363E-3	9.738788605E0	3.529413342E-1
6.848812935E0	7.357929647E-2	9.850652695E0	2.955136001E-1
6.857215956E0	1.322034448E-1	9.868598938E0	1.627119333E-1
6.865618977E0	1.351944804E-1	9.815957069E0	7.477571070E-2
6.874021997E0	1.872383654E-1	9.788438797E0	5.324030295E-2
6.882425018E0	2.524427772E-1	9.846465111E0	1.621137410E-1
6.890828039E0	2.823530734E-1	9.872187614E0	2.913261652E-1
6.899231060E0	3.026920557E-1	9.856036186E0	3.577269912E-1
6.907634081E0	3.870390654E-1	9.803394318E0	3.750749528E-1
6.916037102E0	5.353940725E-1	9.804591179E0	3.523431420E-1
6.924440122E0	6.771687865E-1	9.762716293E0	3.092723191E-1
6.932843143E0	7.034898400E-1	9.660423279E0	3.870390654E-1
6.941246164E0	7.040880919E-1	9.531808853E0	4.265206456E-1
6.949649185E0	8.075776696E-1	9.561120987E0	4.366901219E-1
6.958052206E0	9.774680734E-1	9.643673897E0	4.396811724E-1
6.966455227E0	1.104287624E0	9.670592308E0	4.139583111E-1
6.974858247E0	1.139581800E0	9.540781975E0	3.505485058E-1
6.983261268E0	1.117448211E0	9.259027481E0	1.974078640E-2
6.991664289E0	1.096511006E0	8.970093727E0	-5.186443329E-1
7.000067310E0	1.165902853E0	8.925228119E0	-7.130611539E-1
7.008470331E0	1.397408366E0	9.278767586E0	-5.300102234E-1
7.016873352E0	1.512862086E0	9.873384476E0	7.178467698E-3
7.025276372E0	1.341177106E0	1.035194874E1	4.731806815E-1
7.033679393E0	9.164510965E-1	1.046022415E1	6.191428304E-1
7.042082414E0	4.151547253E-1	1.024307537E1	3.248256743E-1
7.050485435E0	1.070788130E-1	1.007378292E1	6.340979785E-2
7.058888456E0	1.722832322E-1	1.021376324E1	-1.639083475E-1
7.067291477E0	4.899304509E-1	1.072642612E1	-1.609173268E-1
7.075694497E0	7.094719410E-1	1.126600742E1	-5.563312769E-2
7.084097518E0	8.141579032E-1	1.165364456E1	-1.878365725E-1
7.092500539E0	9.463613629E-1	1.184865952E1	-3.104687333E-1
7.100903560E0	1.141376376E0	1.158485126E1	-3.284149170E-1
7.109306581E0	1.280160069E0	1.087896824E1	-3.714857101E-1
7.117709602E0	1.375274777E0	1.030768204E1	-8.668000102E-1
7.126112622E0	1.564307809E0	1.017667484E1	-9.744769931E-1
7.134515643E0	1.983051777E0	1.006181908E1	-8.458628058E-1
7.142918664E0	2.489732027E0	9.803992271E0	-8.763712645E-1
7.151321685E0	2.855833769E0	9.591629982E0	-8.147560954E-1
7.159724706E0	3.021536827E0	9.540781975E0	-5.575276613E-1
7.168127727E0	3.063411236E0	9.505488396E0	-5.497509837E-1
7.176530747E0	2.994019270E0	9.463613510E0	-4.815555513E-1
7.184933768E0	2.761915445E0	9.395418167E0	-3.469592929E-1
7.193336789E0	2.352144718E0	9.300901413E0	-3.260220885E-1
7.201739810E0	1.911267042E0	9.257232666E0	-1.507478207E-1
7.210142831E0	1.514656782E0	9.274580956E0	-6.041877344E-2
7.218545852E0	1.217348576E0	9.360123634E0	-5.563312769E-2
7.226948872E0	1.008574724E0	9.440283775E0	-1.178465188E-1
7.235351893E0	7.561319470E-1	9.509675026E0	-1.842473447E-1
7.243754914E0	5.341976285E-1	9.592825890E0	-2.482553422E-1
7.252157935E0	5.252245665E-1	9.823135376E0	-3.008974493E-1
7.260560956E0	6.532405615E-1	1.010189915E1	-6.101697683E-2
7.268963977E0	8.925228715E-1	1.027537823E1	2.811566554E-2
7.277366997E0	1.134796143E0	1.029392338E1	-2.213360928E-2
7.285770018E0	1.324427366E0	1.020419216E1	4.785645287E-3
7.294173039E0	1.470987678E0	1.014078236E1	-1.136590727E-2
7.302576060E0	1.560718536E0	1.022931671E1	-4.187439755E-2
7.310979081E0	1.638485312E0	1.038245773E1	-1.232303679E-1
7.319382102E0	1.762313843E0	1.048833942E1	-1.381855011E-1
7.327785122E0	1.911865234E0	1.054756260E1	-6.221338734E-2
7.336188143E0	2.018944025E0	1.061456108E1	2.093719840E-1
7.344591164E0	1.910668850E0	1.083230782E1	4.247260094E-1
7.352994185E0	1.116251707E0	1.089452171E1	1.049850941E0
7.361397206E0	-2.189432681E-1	1.049910736E1	1.610967875E0
7.369800227E0	-1.482353687E0	1.000259686E1	1.149153113E0
7.378203247E0	-2.495115757E0	9.911669731E0	3.505485058E-1
7.386606268E0	-3.369094372E0	9.827920914E0	-3.535395563E-1
7.395009289E0	-4.174279213E0	9.433703423E0	-6.059823632E-1
7.403412310E0	-3.905684710E0	9.125029564E0	-7.710871100E-1
7.411815331E0	-2.688934565E0	9.265607834E0	-9.242277741E-1
7.420218352E0	-1.307677627E0	9.744770050E0	-8.548358679E-1
7.428621372E0	-4.923232496E-1	1.014197922E1	-6.496513486E-1
7.437024393E0	-4.348955154E-1	1.020239735E1	-6.544370055E-1
7.445427414E0	-7.088736892E-1	1.000798035E1	-8.799605370E-1
7.453830435E0	-9.583254457E-1	9.769296646E0	-1.293320656E0
7.462233456E0	-9.517452121E-1	9.644869804E0	-1.517647743E0
7.470636477E0	-7.034898400E-1	9.754341125E0	-1.621137381E0
7.479039497E0	-4.402793646E-1	9.990633011E0	-1.585843205E0
7.487442518E0	-4.707878530E-1	1.006421185E1	-1.450648785E0
7.495845539E0	-5.192425251E-1	1.000319481E1	-1.487139225E0
7.504248560E0	-4.630111754E-1	1.003190899E1	-1.584646821E0
7.512651581E0	-4.396811724E-1	1.010130119E1	-1.772483349E0
7.521054602E0	-3.122633696E-1	1.019940662E1	-1.741376638E0
7.529457622E0	-1.076770201E-1	1.029033375E1	-1.686341763E0
7.537860643E0	3.768695518E-2	1.032981491E1	-1.714457393E0
7.546263664E0	1.268195957E-1	1.031545830E1	-1.753939033E0
7.554666685E0	1.208375469E-1	1.029093170E1	-1.724626899E0
7.563069706E0	1.411765367E-1	1.028554821E1	-1.630708575E0
7.571472727E0	3.218346536E-1	1.035673428E1	-1.529013634E0
7.579875747E0	4.558327198E-1	1.043330479E1	-1.480558991E0
7.588278768E0	5.485545993E-1	1.045005512E1	-1.400399446E0
7.596681789E0	7.100701332E-1	1.041775131E1	-1.290927768E0
7.605084810E0	1.051047325E0	1.042911720E1	-1.194018483E0
7.613487831E0	1.436890006E0	1.047099209E1	-1.115055323E0
7.621890852E0	1.729412556E0	1.040818024E1	-1.075573802E0
7.630293872E0	1.855633974E0	1.020957565E1	-1.020538807E0
7.638696893E0	1.891526341E0	1.003789139E1	-1.095314622E0
7.647099914E0	1.916650891E0	1.002233791E1	-1.198205948E0
7.655502935E0	2.074577332E0	9.939187050E0	-1.247856975E0
7.663905956E0	2.574677229E0	9.602396965E0	-1.192223907E0
7.672308977E0	3.406781197E0	9.143573761E0	-7.507480979E-1
7.680711997E0	4.158725739E0	8.733802795E0	-6.460621357E-1
7.689115018E0	4.256831646E0	8.559724808E0	-5.276173949E-1
7.697518039E0	4.086342812E0	8.520841599E0	-6.490531564E-1
7.705921060E0	4.960321426E0	8.752944946E0	-1.547558069E0
7.714324081E0	7.173084259E0	9.598209381E0	-2.852842808E0
7.722727102E0	9.616155624E0	1.084606647E1	-2.958725214E0
7.731130122E0	1.150708389E1	1.115773201E1	-2.632104874E0
7.739533143E0	1.249053383E1	1.035254669E1	-2.696711063E0
7.747936164E0	1.259821129E1	9.063413620E0	-3.009572744E0
7.756339185E0	1.269691563E1	8.185846329E0	-3.769891977E0
7.764742206E0	1.327478218E1	9.025727272E0	-4.826921463E0
7.773145227E0	1.172004509E1	1.101775169E1	-8.189435601E-1
7.781548247E0	7.350750923E0	1.212323570E1	7.430312634E0
7.789951268E0	1.232303679E-1	1.312582874E1	1.450230026E1
7.798354289E0	-1.024606609E1	1.239003563E1	1.468774319E1
7.806757310E0	-1.602473259E1	1.130728340E1	3.979264021E0
7.815160331E0	-1.173918819E1	1.286261845E1	-1.073360443E1
7.823563352E0	-4.487739086E0	1.537567997E1	-1.168834019E1
7.831966372E0	5.682953596E-1	1.293380451E1	-3.977469444E0
7.840369393E0	2.452643156E0	7.315456867E0	7.716853172E-2
7.848772414E0	3.247658491E0	4.816154003E0	8.715856671E-1
7.857175435E0	4.349553585E0	7.051050186E0	5.623133108E-2
7.865578456E0	5.127220631E0	1.041954613E1	-3.708875179E-1
7.873981477E0	5.279763222E0	1.242712402E1	3.433700502E-1
7.882384497E0	3.894318819E0	1.243191051E1	-3.792623878E-1
7.890787518E0	9.972088337E-1	1.111944675E1	-1.258026481E0
7.899190539E0	-1.801197290E0	9.676574707E0	-1.932802439E0
7.907593560E0	-3.275176048E0	8.778668404E0	-2.010569334E0
7.915996581E0	-2.745764017E0	8.761918068E0	-7.184450030E-1
7.924399602E0	-7.908278704E-1	9.717252731E0	6.047859192E-1
7.932802622E0	1.063609719E0	1.073420238E1	1.446461320E0
7.941205643E0	1.996212244E0	1.060738277E1	1.661815286E0
7.949608664E0	2.237887383E0	9.846465111E0	1.576271892E0
7.958011685E0	1.817348838E0	9.425328255E0	1.222732425E0
7.966414706E0	8.099704385E-1	9.593423843E0	5.401797295E-1
7.974817727E0	-3.978067636E-1	1.005165005E1	1.495514158E-2
7.983220747E0	-1.081555843E0	1.024427223E1	-2.392822653E-1
7.991623768E0	-7.453642488E-1	1.009113121E1	-2.171486616E-1
8.000026789E0	1.477568001E-1	9.830313683E0	1.615155302E-2
8.008429810E0	7.812566161E-1	9.611968994E0	2.602194548E-1
8.016832831E0	9.086744189E-1	9.631709099E0	2.135594189E-1
8.025235852E0	6.089733839E-1	9.939785004E0	9.631111473E-2
8.033638872E0	1.806581169E-1	1.017547798E1	-1.040877849E-1
8.042041893E0	-1.232303679E-1	1.021854877E1	-1.196411345E-2
8.050444914E0	-1.411765367E-1	1.005882835E1	2.386840582E-1
8.058847935E0	1.698904037E-1	9.835697174E0	5.970092416E-1
8.067250956E0	6.436693072E-1	9.585049629E0	8.261220455E-1
8.075653977E0	1.034895778E0	9.521639824E0	9.062815905E-1
8.084056997E0	1.174277663E0	9.662218094E0	8.189435601E-1
8.092460018E0	1.022333503E0	9.722636223E0	6.586244106E-1
8.100863039E0	8.159525394E-1	9.643673897E0	6.556333899E-1
8.109266060E0	7.142575383E-1	9.577272415E0	7.016952634E-1
8.117669081E0	7.627122402E-1	9.569496155E0	5.868397355E-1
8.126072102E0	7.860422134E-1	9.639486313E0	5.838487148E-1
8.134475122E0	7.651050687E-1	9.733404160E0	5.575276613E-1
8.142878143E0	7.094719410E-1	9.862616539E0	5.605186820E-1
8.151281164E0	5.838487148E-1	9.832706451E0	4.522434771E-1
8.159684185E0	4.295116663E-1	9.665806770E0	3.487538993E-1
8.168087206E0	3.678964674E-1	9.677771568E0	2.793620527E-1
8.176490227E0	4.187439680E-1	9.857831001E0	4.001995921E-1
8.184893247E0	5.150550604E-1	9.845269203E0	4.109672904E-1
8.193296268E0	6.562315822E-1	9.742975235E0	4.965106845E-1
8.201699289E0	7.423732281E-1	9.707681656E0	5.341976285E-1
8.210102310E0	6.957131624E-1	9.747760773E0	5.760720372E-1
8.218505331E0	5.018945336E-1	9.744770050E0	5.742774606E-1
8.226908352E0	2.673979402E-1	9.705288887E0	6.568298340E-1
8.235311372E0	1.573280841E-1	9.653842926E0	6.329016089E-1
8.243714393E0	2.380858511E-1	9.650852203E0	5.748756528E-1
8.252117414E0	3.595215976E-1	9.646664619E0	5.778666735E-1
8.260520435E0	5.066801906E-1	9.619745255E0	5.802595019E-1
8.268923456E0	5.192425251E-1	9.573084831E0	6.520441771E-1
8.277326477E0	3.284149170E-1	9.519845009E0	5.712863803E-1
8.285729497E0	1.884347796E-1	9.536594391E0	4.989035130E-1
8.294132518E0	2.207378894E-1	9.605388641E0	4.654040039E-1
8.302535539E0	3.367897868E-1	9.640084267E0	4.893322289E-1
8.310938560E0	3.110669553E-1	9.638887405E0	5.784648657E-1
8.319341581E0	2.386840582E-1	9.693922997E0	7.280163169E-1
8.327744602E0	2.614158690E-1	9.797411919E0	8.386843204E-1
8.336147622E0	2.033899277E-1	9.842875481E0	7.716853023E-1
8.344550643E0	6.460621208E-2	9.702297211E0	5.623133183E-1
8.352953664E0	-2.392822690E-2	9.525228500E0	2.596212626E-1
8.361356685E0	1.525424421E-1	9.459425926E0	2.506481707E-1
8.369759706E0	5.593222976E-1	9.566504478E0	3.565305769E-1
8.378162727E0	8.536394835E-1	9.695118904E0	4.001995921E-1
8.386565747E0	8.757730722E-1	9.723833084E0	3.529413342E-1
8.394968768E0	8.261220455E-1	9.653842926E0	1.609173268E-1
8.403371789E0	9.266205430E-1	9.519845009E0	-2.931207791E-2
8.411774810E0	1.081555843E0	9.463613510E0	4.187439568E-3
8.420177831E0	1.112064362E0	9.478569031E0	2.003988922E-1
8.428580852E0	1.146760225E0	9.571290970E0	3.678964674E-1
8.436983872E0	1.248455167E0	9.773484230E0	4.390829504E-1
8.445386893E0	1.417149186E0	9.926026344E0	3.637090325E-1
8.453789914E0	1.475175142E0	9.954142570E0	2.428714931E-1
8.462192935E0	1.352542996E0	9.884152412E0	1.136590764E-1
8.470595956E0	1.281954765E0	9.774082184E0	-4.187439755E-2
8.478998977E0	1.424925923E0	9.756135941E0	-9.451649338E-2
8.487401997E0	1.604985833E0	9.985248566E0	-6.281159073E-2
8.495805018E0	1.643869162E0	1.030588722E1	-6.460621208E-2
8.504208039E0	1.540379524E0	1.064088249E1	-1.483550072E-1
8.512611060E0	1.564906001E0	1.085563850E1	-3.696911037E-1
8.521014081E0	1.649253011E0	1.099023438E1	-5.198407173E-1
8.529417102E0	1.652842283E0	1.115234852E1	-6.047859192E-1
8.537820122E0	1.514058471E0	1.124507046E1	-7.058826685E-1
8.546223143E0	1.371685624E0	1.115533924E1	-8.763712645E-1
8.554626164E0	1.284945726E0	1.088973618E1	-9.355936646E-1
8.563029185E0	1.230509043E0	1.053559780E1	-8.805587292E-1
8.571432206E0	1.111466169E0	1.016889763E1	-6.622136831E-1
8.579835227E0	8.386843204E-1	9.910472870E0	-3.248256743E-1
8.588238247E0	7.561319470E-1	9.825528145E0	-2.237289101E-1
8.596641268E0	1.145563841E0	9.967901230E0	-5.312066078E-1
8.605044289E0	1.734796405E0	1.024487019E1	-5.946164131E-1
8.613447310E0	2.042872429E0	1.026341438E1	-5.383850932E-1
8.621850331E0	2.041077614E0	1.001515961E1	-5.294120312E-1
8.630253352E0	1.907079697E0	9.754940033E0	-5.395814776E-1
8.638656372E0	1.775474429E0	9.656833649E0	-5.682953596E-1
8.647059393E0	1.599601984E0	9.716055870E0	-6.765705943E-1
8.655462414E0	1.361516118E0	9.845269203E0	-8.117650747E-1
8.663865435E0	1.030708313E0	9.977472305E0	-8.111668825E-1
8.672268456E0	7.304090858E-1	9.984052658E0	-7.441678643E-1
8.680671477E0	5.144568682E-1	1.001216793E1	-5.940182209E-1
8.689074497E0	4.151547253E-1	1.001815033E1	-5.078766346E-1
8.697477518E0	2.566302419E-1	1.000738239E1	-2.727817893E-1
8.705880539E0	1.202393398E-1	9.971489906E0	-1.142572835E-1
8.714283560E0	2.464607358E-1	9.953543663E0	-7.657032460E-2
8.722686581E0	5.850451589E-1	1.005703354E1	1.471585929E-1
8.731089602E0	8.931210637E-1	1.016112137E1	2.997010350E-1
8.739492622E0	1.155135155E0	1.021436119E1	2.093719840E-1
8.747895643E0	1.400997639E0	1.030469036E1	2.093719840E-1
8.756298664E0	1.664208174E0	1.044526863E1	3.158525825E-1
8.764701685E0	1.914258122E0	1.051286602E1	5.168496966E-1
8.773104706E0	2.249253273E0	1.049432182E1	7.615157962E-1
8.781507727E0	2.707478762E0	1.046740246E1	9.320043921E-1
8.789910747E0	3.080759048E0	1.050508976E1	1.074377418E0
8.798313768E0	3.130410194E0	1.060678482E1	9.858429432E-1
8.806716789E0	2.630310297E0	1.098126125E1	8.440681696E-1
8.815119810E0	8.566305041E-1	1.111765194E1	1.480558991E0
8.823522831E0	-1.782054663E0	1.028136063E1	1.692323804E0
8.831925852E0	-3.888336897E0	9.259027481E0	5.377869010E-1
8.840328872E0	-4.666004181E0	9.102895737E0	-8.422735929E-1
8.848731893E0	-4.124029636E0	9.497711182E0	-1.145563841E0
8.857134914E0	-3.294916868E0	9.657432556E0	-7.633104324E-1
8.865537935E0	-2.698505640E0	9.552745819E0	-5.330012441E-1
8.873940956E0	-2.428116798E0	9.468997002E0	-3.732803464E-1
8.882343977E0	-2.228914261E0	9.341579437E0	-4.666004181E-1
8.890746997E0	-1.997408748E0	9.244071960E0	-8.727820516E-1
8.899150018E0	-1.579861164E0	9.267401695E0	-1.226919770E0
8.907553039E0	-1.197607756E0	9.337990761E0	-1.360917926E0
8.915956060E0	-9.296116233E-1	9.411569595E0	-1.447059512E0
8.924359081E0	-7.938188910E-1	9.505488396E0	-1.576870084E0
8.932762102E0	-7.854440212E-1	9.548559189E0	-1.634896040E0
8.941165122E0	-6.951149702E-1	9.498908043E0	-1.787438512E0
8.949568143E0	-4.815555513E-1	9.552745819E0	-1.983051777E0
8.957971164E0	-3.421736360E-1	9.600603104E0	-2.087139606E0
8.966374185E0	-4.295116663E-1	9.484550476E0	-2.011765718E0
8.974777206E0	-4.785645306E-1	9.320642471E0	-2.352742910E0
8.983180227E0	-3.451646566E-1	9.461220741E0	-2.568695068E0
8.991583247E0	2.991028363E-3	9.849455833E0	-2.735594511E0
8.999986268E0	1.585244983E-1	9.923035622E0	-2.553141832E0
9.008389289E0	6.759724021E-1	1.004207802E1	-2.296511650E0
9.016792310E0	1.103689432E0	1.014317513E1	-1.971685886E0
9.025195331E0	1.362712502E0	1.023350430E1	-2.033899307E0
9.033598352E0	1.637288928E0	1.029870892E1	-2.009970903E0
9.042001372E0	1.993221283E0	1.035494041E1	-1.928615093E0
9.050404393E0	2.393420935E0	1.035673428E1	-1.702493310E0
9.058807414E0	2.791227579E0	1.039920712E1	-1.533201098E0
9.067210435E0	3.160918713E0	1.056969547E1	-1.520040631E0
9.075613456E0	3.352942705E0	1.066720295E1	-1.557129383E0
9.084016477E0	3.261417150E0	1.049731255E1	-1.472782373E0
9.092419497E0	3.077768087E0	1.021077251E1	-1.320239902E0
9.100822518E0	2.890529871E0	9.976275444E0	-1.534995675E0
9.109225539E0	2.627319336E0	9.762118340E0	-1.759921074E0
9.117628560E0	3.125026464E0	9.663414001E0	-2.088335991E0
9.126031581E0	4.624728203E0	9.485747337E0	-1.941775560E0
9.134434602E0	7.348358154E0	9.299106598E0	-2.179263115E0
9.142837622E0	1.034417248E1	9.463613510E0	-1.490728498E0
9.151240643E0	1.301097298E1	9.796216011E0	-7.986045480E-1
9.159643664E0	1.518545055E1	9.846465111E0	-9.613165259E-1
9.168046685E0	1.693161392E1	9.544371605E0	-4.025924206E-1
9.176449706E0	2.005723763E1	9.308678627E0	3.248256743E-1
9.184852727E0	2.254517555E1	1.114516926E1	1.890329868E-1
9.193255747E0	1.640279961E1	1.428275871E1	3.370290756E0
9.201658768E0	3.720241070E0	1.679821396E1	1.013898754E1
9.210061789E0	-1.854078674E1	1.351884937E1	1.158784199E1
9.218464810E0	-2.811446953E1	8.155936241E0	-2.162513494E0
9.226867831E0	-1.595474339E1	8.743373871E0	-1.467936897E1
9.235270852E0	-4.591826439E0	1.292423344E1	-1.674078560E1
9.243673872E0	-7.124629617E-1	1.265623760E1	-4.125226021E0
9.252076893E0	1.715653777E0	8.538787842E0	2.510071039E0
9.260479914E0	4.375874519E0	6.485147476E0	2.548954248E0
9.268882935E0	6.949953556E0	8.937790871E0	2.152343988E0
9.277285956E0	8.639286041E0	1.228295708E1	1.589432478E0
9.285688977E0	8.358727455E0	1.342014599E1	2.297109663E-1
9.294091997E0	5.596213818E0	1.227577877E1	1.232303679E-1
9.302495018E0	1.446461320E0	1.034895802E1	4.636093974E-1
9.310898039E0	-2.021337032E0	8.833703041E0	-3.062812984E-1
9.319301060E0	-3.803989887E0	8.326424599E0	-1.113858938E0
9.327704081E0	-3.500101328E0	8.847461700E0	-1.331605792E0
9.336107102E0	-2.119442701E0	9.778867722E0	-5.407779217E-1
9.344510122E0	-5.850451589E-1	1.042373371E1	5.407779217E-1
9.352913143E0	7.190431952E-1	1.047398281E1	1.004387259E0
9.361316164E0	1.673779488E0	1.017188931E1	9.864411354E-1
9.369719185E0	1.788634896E0	9.815358162E0	8.895317912E-1
9.378122206E0	8.207381964E-1	9.521639824E0	7.345965505E-1
9.386525227E0	-6.681957245E-1	9.520442963E0	4.779663086E-1
9.394928247E0	-1.670788407E0	9.687342644E0	2.667997181E-1
9.403331268E0	-1.807777524E0	9.745966911E0	1.686939895E-1
9.411734289E0	-1.257428288E0	9.650253296E0	3.278166950E-1
9.420137310E0	-3.254238665E-1	9.522835732E0	4.055834413E-1
9.428540331E0	3.960121572E-1	9.583852768E0	4.851447940E-1
9.436943352E0	6.550351977E-1	9.745368004E0	5.694918036E-1
9.445346372E0	3.026920557E-1	9.821340561E0	5.162515044E-1
9.453749393E0	-2.596212626E-1	9.768099785E0	3.822534084E-1
9.462152414E0	-7.345965505E-1	9.677172661E0	2.859423161E-1
9.470555435E0	-9.954141974E-1	9.623932838E0	7.417750359E-2
9.478958456E0	-7.351947427E-1	9.689735413E0	-4.486542568E-2
9.487361477E0	-1.603191197E-1	9.796813965E0	1.226321608E-1
9.495764497E0	3.433700502E-1	9.751350403E0	3.212364316E-1
9.504167518E0	6.053841114E-1	9.597611427E0	4.145565331E-1
9.512570539E0	5.922235847E-1	9.533603668E0	3.840480447E-1
9.520973560E0	4.151547253E-1	9.575477600E0	2.554338276E-1
9.529376581E0	2.171486616E-1	9.653842926E0	2.608176768E-1
9.537779602E0	2.344966233E-1	9.675378799E0	2.907279432E-1
9.546182622E0	4.498506486E-1	9.695717812E0	3.254238665E-1
9.554585643E0	6.358926296E-1	9.680164337E0	2.817548811E-1
9.562988664E0	6.891329288E-1	9.651450157E0	2.691925466E-1
9.571391685E0	7.292127013E-1	9.736993790E0	2.667997181E-1
9.579794706E0	8.105686903E-1	9.846465111E0	2.045863420E-1
9.588197727E0	8.620143533E-1	9.860821724E0	6.281159073E-2
9.596600747E0	7.986045480E-1	9.823733330E0	-1.058823988E-1
9.605003768E0	6.789634228E-1	9.778867722E0	-1.010967568E-1
9.613406789E0	6.011967063E-1	9.753145218E0	1.016949583E-2
9.621809810E0	6.532405615E-1	9.760921478E0	2.177468538E-1
9.630212831E0	7.950153351E-1	9.759725571E0	2.697907388E-1
9.638615852E0	9.349954724E-1	9.757332802E0	2.380858511E-1
9.647018872E0	1.028913736E0	9.730413437E0	9.511470050E-2
9.655421893E0	1.079162955E0	9.696913719E0	1.154536903E-1
9.663824914E0	1.254437327E0	9.721440315E0	1.854437590E-1
9.672227935E0	1.451845169E0	9.798608780E0	2.925225794E-1
9.680630956E0	1.584646821E0	9.822537422E0	3.475574851E-1
9.689033977E0	1.694118381E0	9.600004196E0	1.686939895E-1
9.697436997E0	1.631306887E0	9.550353050E0	8.673982322E-2
9.705840018E0	1.580459356E0	9.576674461E0	4.725824669E-2
9.714243039E0	1.573879123E0	9.707681656E0	-6.580262445E-3
9.722646060E0	1.537986755E0	9.811769485E0	-1.124626622E-1
9.731049081E0	1.400997639E0	9.800403595E0	-2.063809484E-1
9.739452102E0	1.208973646E0	9.784252167E0	-1.100698411E-1
9.747855122E0	1.073779106E0	9.856635094E0	8.255238086E-2
9.756258143E0	1.061815023E0	9.868598938E0	1.250249892E-1
9.764661164E0	1.106680512E0	9.813564301E0	1.250249892E-1
9.773064185E0	1.144367456E0	9.713663101E0	8.374879509E-2
9.781467206E0	1.213759303E0	9.627521515E0	1.393819153E-1
9.789870227E0	1.417747378E0	9.618548393E0	1.447657645E-1
9.798273247E0	1.633699656E0	9.703494072E0	1.268195957E-1
9.806676268E0	1.726421595E0	9.789635658E0	9.810572863E-2
9.815079289E0	1.677368641E0	9.815358162E0	1.004985496E-1
9.823482310E0	1.625324726E0	9.796813965E0	7.896314561E-2
9.831885331E0	1.640279889E0	9.814760208E0	1.734796353E-2
9.840288352E0	1.657627940E0	9.897313118E0	5.443671346E-2
9.848691372E0	1.633101463E0	9.940981865E0	3.649054468E-2
9.857094393E0	1.502692580E0	9.957133293E0	1.824527234E-1
9.865497414E0	1.283151150E0	9.917651176E0	-5.742774159E-2
9.873900435E0	1.155733347E0	1.000917721E1	-2.063809484E-1
9.882303456E0	1.117448211E0	1.008395290E1	-4.480560422E-1
9.890706477E0	1.152742267E0	1.011745262E1	-6.741777658E-1
9.899109497E0	1.152144074E0	1.023470020E1	-7.094719410E-1
9.907512518E0	1.052243710E0	1.068993473E1	-6.358926296E-1
9.915915539E0	8.488538265E-1	1.179422283E1	-6.245267391E-1
9.924318560E0	5.084748268E-1	1.332861996E1	-7.710871100E-1
9.932721581E0	1.734796464E-1	1.379881001E1	-1.001994491E0
9.941124602E0	1.716850251E-1	1.311924839E1	-1.186840057E0
9.949527622E0	2.398804724E-1	1.167817116E1	-1.444666624E0
9.957930643E0	1.483550072E-1	1.069172955E1	-1.435693622E0
9.966333664E0	7.477571070E-2	1.046500969E1	-1.613360643E0
9.974736685E0	3.056831062E-1	1.060140038E1	-1.718644857E0
9.983139706E0	9.200403094E-1	1.069830990E1	-1.658824325E0
9.991542727E0	1.633699656E0	1.051047325E1	-1.430309772E0
9.999945747E0	2.240878344E0	1.020179939E1	-9.894321561E-1
1.000834877E1	2.567498684E0	9.832706451E0	-5.527420044E-1
1.001675179E1	2.505285263E0	9.395418167E0	5.204389244E-2
1.002515481E1	2.498705149E0	9.042476654E0	9.032905847E-2
1.003355783E1	2.743371248E0	8.940781593E0	2.249253243E-1
1.004196085E1	3.087937593E0	8.973683357E0	4.564309120E-1
1.005036387E1	3.330210924E0	9.000003815E0	5.832505226E-1
1.005876689E1	3.559921980E0	9.106484413E0	7.256234884E-1
1.006716991E1	3.714258909E0	9.316454887E0	1.035493970E0
1.007557294E1	3.753740549E0	9.547362328E0	1.442872047E0
1.008397596E1	3.328416348E0	9.763314247E0	1.697707653E0
1.009237898E1	2.061416626E0	9.824331284E0	1.782652855E0
1.010078200E1	1.447657645E-1	9.466604233E0	1.740180254E0
1.010918502E1	-1.759322882E0	8.807381630E0	1.183250785E0
1.011758804E1	-3.081955671E0	8.322834969E0	1.016949639E-1
1.012599106E1	-3.775275946E0	8.182256699E0	-8.512466550E-1
1.013439408E1	-3.727419376E0	8.257631302E0	-1.206580877E0
1.014279710E1	-3.067000389E0	8.395217896E0	-9.122636318E-1
1.015120012E1	-2.109273195E0	8.556135178E0	-4.510470629E-1
1.015960314E1	-1.127617717E0	8.798408508E0	-1.603191197E-1
1.016800616E1	-2.512463629E-1	9.157332420E0	-2.404786795E-1
1.017640918E1	1.872383654E-1	9.487542152E0	-2.548356056E-1
1.018481221E1	2.620140910E-1	9.610174179E0	-3.595215976E-1
1.019321523E1	1.507478207E-1	9.577870369E0	-5.150550604E-1
1.020161825E1	1.333998591E-1	9.539586067E0	-8.177471161E-1
1.021002127E1	2.685943544E-1	9.698110580E0	-1.024128079E0
1.021842429E1	4.887340367E-1	1.002054310E1	-1.161715388E0
1.022682731E1	6.544370055E-1	1.034058285E1	-1.226919770E0
1.023523033E1	7.298108935E-1	1.052542877E1	-1.288534999E0
1.024363335E1	6.376872063E-1	1.052841949E1	-1.374078393E0
1.025203637E1	4.091726840E-1	1.039143085E1	-1.400399446E0
1.026043939E1	2.374876440E-1	1.026939678E1	-1.548156261E0
1.026884241E1	1.567298770E-1	1.036092186E1	-1.667199135E0
1.027724544E1	5.144568533E-2	1.038006496E1	-1.590030670E0
1.028564846E1	1.513460279E-1	1.031486034E1	-1.568495274E0
1.029405148E1	4.127618968E-1	1.035613632E1	-1.533201098E0
1.030245450E1	6.921239495E-1	1.045125103E1	-1.514656782E0
1.031085752E1	8.793623447E-1	1.052483082E1	-1.470389485E0
1.031926054E1	1.079162955E0	1.057627583E1	-1.409372568E0
1.032766356E1	1.238883972E0	1.055593681E1	-1.266401410E0
1.033606658E1	1.332203984E0	1.048594666E1	-1.323829174E0
1.034446960E1	1.249053478E0	1.036989498E1	-1.365105271E0
1.035287262E1	1.259222865E0	1.021854877E1	-1.419542074E0
1.036127564E1	1.453041553E0	1.021017456E1	-1.428515077E0
1.036967866E1	1.649851203E0	1.024845982E1	-1.460219979E0
1.037808169E1	1.766501307E0	1.026640511E1	-1.509871125E0
1.038648471E1	1.755135417E0	1.020479012E1	-1.414158225E0
1.039488773E1	1.661217093E0	1.006181908E1	-1.374676585E0
1.040329075E1	1.557727575E0	9.856635094E0	-1.379462242E0
1.041169377E1	1.579861164E0	9.702896118E0	-1.437488198E0
1.042009679E1	1.636690736E0	9.698708534E0	-1.470987678E0
1.042849981E1	1.691725612E0	9.847063065E0	-1.571486235E0
1.043690283E1	1.649253011E0	1.002532864E1	-1.528415442E0
1.044530585E1	1.620539188E0	9.920642853E0	-1.399203062E0
1.045370887E1	1.874178290E0	9.774680138E0	-1.421336651E0
1.046211189E1	2.188236237E0	9.820143700E0	-1.316650629E0
1.047051491E1	2.131406784E0	9.772886276E0	-1.062413216E0
1.047891794E1	1.411765337E0	9.448060036E0	-9.559326172E-1
1.048732096E1	7.220342159E-1	9.186644554E0	-1.045663476E0
1.049572398E1	7.190431952E-1	9.148359299E0	-1.522433400E0
1.050412700E1	1.478166223E0	9.292527199E0	-1.749751568E0
1.051253002E1	2.397010088E0	9.349356651E0	-1.578066587E0
1.052093304E1	3.082553864E0	9.193822861E0	-1.204187989E0
1.052933606E1	3.415156126E0	8.816354752E0	-9.014959335E-1
1.053773908E1	3.690330744E0	8.372486115E0	-8.638089895E-1
1.054614210E1	4.076173306E0	8.069195747E0	-8.823533654E-1
1.055454512E1	4.597210407E0	7.976474285E0	-1.070189953E0
1.056294814E1	5.173880577E0	8.081160545E0	-1.268794179E0
1.057135116E1	5.743970871E0	8.176873207E0	-1.424925923E0
1.057975418E1	6.242276192E0	8.223533630E0	-1.658824325E0
1.058815721E1	6.895516872E0	8.347960472E0	-2.089532375E0
1.059656023E1	8.439485550E0	9.203991890E0	-2.380260229E0
1.060496325E1	1.038185883E1	1.145503998E1	-1.548156261E0
1.061336627E1	9.680164337E0	1.508016682E1	7.357929349E-1
1.062176929E1	3.113062143E0	1.847139359E1	5.889334679E0
1.063017231E1	-9.035896301E0	1.856830406E1	1.054576778E1
1.063857533E1	-2.158565331E1	1.433540058E1	5.236692429E0
1.064697835E1	-1.820459557E1	1.126600742E1	-7.344769001E0
1.065538137E1	-5.599802971E0	1.209272766E1	-1.199163055E1
1.066378439E1	1.919641972E0	1.225005531E1	-5.513063431E0
1.067218741E1	3.783650875E0	8.837292671E0	1.399801254E0
1.068059044E1	2.787638426E0	5.607579708E0	2.195414782E0
1.068899346E1	2.358126640E0	6.514459610E0	1.341177106E0
1.069739648E1	2.772084951E0	9.707681656E0	7.435696125E-1
1.070579950E1	2.941377163E0	1.181635666E1	-2.871387079E-2
1.071420252E1	2.076970100E0	1.167338562E1	-1.704886109E-1
1.072260554E1	4.079762697E-1	1.046620655E1	3.110669367E-2
1.073100856E1	-1.003789067E0	9.425328255E0	-4.630111754E-1
1.073941158E1	-1.611566067E0	8.941978455E0	-1.057627559E0
1.074781460E1	-1.565504193E0	8.945567131E0	-8.362914920E-1
1.075621762E1	-1.298106313E0	9.434899330E0	-4.809573591E-1
1.076462064E1	-1.052243710E0	1.023470020E1	-2.392822644E-3
1.077302366E1	-1.009771109E0	1.060618591E1	1.447657645E-1
1.078142669E1	-1.025922656E0	1.034417248E1	3.230310678E-1
1.078982971E1	-9.708877802E-1	9.790832520E0	7.196413875E-1
1.079823273E1	-1.019940615E0	9.410971642E0	1.000798106E0
1.080663575E1	-1.168295622E0	9.474979401E0	9.744769931E-1
1.081503877E1	-1.348953724E0	9.728020668E0	8.207381964E-1
1.082344179E1	-1.354935765E0	9.855438232E0	6.125625968E-1
1.083184481E1	-1.021137118E0	9.772886276E0	7.232306600E-1
1.084024783E1	-4.241278172E-1	9.672985077E0	7.890332937E-1
1.084865085E1	1.974078715E-1	9.684351921E0	5.838487148E-1
1.085705387E1	6.807580590E-1	9.729815483E0	1.609173268E-1
1.086545689E1	8.817551732E-1	9.837491989E0	-6.221338734E-2
1.087385991E1	8.368897438E-1	9.925428391E0	-7.716853172E-2
1.088226294E1	5.988038778E-1	9.948160172E0	-1.160518974E-1
1.089066596E1	3.559323549E-1	9.917053223E0	-1.710868180E-1
1.089906898E1	2.733799815E-1	9.902696609E0	-1.980060786E-1
1.090747200E1	3.918247223E-1	9.888339996E0	-1.148554832E-1
1.091587502E1	5.551348329E-1	9.914660454E0	7.417750359E-2
1.092427804E1	5.150550604E-1	9.938589096E0	3.936193287E-1
1.093268106E1	3.559323549E-1	9.945169449E0	5.168496966E-1
1.094108408E1	2.656033039E-1	9.945767403E0	4.588237405E-1
1.094948710E1	2.608176768E-1	9.877572060E0	3.194418252E-1
1.095789012E1	1.244267747E-1	9.766305923E0	2.033899277E-1
1.096629314E1	-6.400800496E-2	9.699904442E0	8.913264424E-2
1.097469616E1	-9.930214286E-2	9.699904442E0	-5.982056609E-4
1.098309918E1	9.571290761E-2	9.783653259E0	4.187439755E-2
1.099150221E1	2.350948304E-1	9.871589661E0	3.092723191E-1
1.099990523E1	2.297109663E-1	9.865608215E0	4.558327198E-1
1.100830825E1	1.004985496E-1	9.814760208E0	5.443671346E-1
1.101671127E1	-1.794617064E-2	9.773484230E0	5.605186820E-1
1.102511429E1	-3.290131316E-2	9.742377281E0	5.629115105E-1
1.103351731E1	5.563312769E-2	9.767501831E0	5.898307562E-1
1.104192033E1	1.094716340E-1	9.768698692E0	4.797609448E-1
1.105032335E1	1.232303679E-1	9.742377281E0	3.924229145E-1
1.105872637E1	1.752742529E-1	9.745368004E0	2.931207716E-1
1.106712939E1	2.476571500E-1	9.731011391E0	2.769692242E-1
1.107553241E1	3.613162339E-1	9.704092026E0	4.133601189E-1
1.108393544E1	4.390829504E-1	9.683155060E0	5.988038778E-1
1.109233846E1	4.019941986E-1	9.663414001E0	7.345965505E-1
1.110074148E1	2.697907388E-1	9.609575272E0	6.837490797E-1
1.110914450E1	2.309073806E-1	9.561718941E0	6.586244106E-1
1.111754752E1	2.859423161E-1	9.565906525E0	5.222335458E-1
1.112595054E1	4.013960063E-1	9.628120422E0	3.708875179E-1
1.113435356E1	4.630111754E-1	9.702896118E0	3.170489967E-1
1.114275658E1	4.588237405E-1	9.787242889E0	2.578266263E-1
1.115115960E1	4.671986103E-1	9.873982430E0	2.279163599E-1
1.115956262E1	4.259224236E-1	9.892526627E0	3.768695518E-2
1.116796564E1	3.391826153E-1	9.842277527E0	-3.589233849E-3
1.117636866E1	3.565305769E-1	9.769296646E0	6.819544733E-2
1.118477169E1	5.132604837E-1	9.774082184E0	2.811566591E-1
1.119317471E1	6.711867452E-1	9.829116821E0	3.936193287E-1
1.120157773E1	7.118647099E-1	9.832706451E0	3.439682424E-1
1.120998075E1	6.759724021E-1	9.801599503E0	2.823530734E-1
1.121838377E1	7.106683254E-1	9.741779327E0	2.009970993E-1
1.122678679E1	8.416753411E-1	9.711869240E0	1.531406492E-1
1.123518981E1	9.445667267E-1	9.681958199E0	1.190429255E-1
1.124359283E1	1.045065284E0	9.664012909E0	1.226321608E-1
1.125199585E1	1.183250785E0	9.735198975E0	2.051845491E-1
1.126039887E1	1.273579836E0	9.812367439E0	2.416750938E-1
1.126880189E1	1.296311617E0	9.866206169E0	2.524427772E-1
1.127720491E1	1.255633712E0	9.881759644E0	1.980060786E-1
1.128560794E1	1.166501045E0	9.814760208E0	1.561316848E-1
1.129401096E1	1.164706469E0	9.696913719E0	-4.247260094E-2
1.130241398E1	1.200598717E0	9.630513191E0	-2.404786795E-1
1.131081700E1	1.269392371E0	9.566504478E0	-4.755735099E-1
1.131922002E1	1.365703583E0	9.556335449E0	-6.640082598E-1
1.132762304E1	1.427916884E0	9.746564865E0	-6.652047038E-1
1.133602606E1	1.400399446E0	1.017966557E1	-5.952146053E-1
1.134442908E1	1.342373490E0	1.078684425E1	-4.426721931E-1
1.135283210E1	1.229910851E0	1.136889839E1	-3.092723191E-1
1.136123512E1	1.037886858E0	1.189531994E1	-3.427718580E-1
1.136963814E1	6.508477330E-1	1.223868942E1	-5.270192027E-1
1.137804116E1	2.769692242E-1	1.186660576E1	-3.583251834E-1
1.138644418E1	5.377869010E-1	1.158604717E1	-5.377869010E-1
1.139484721E1	8.530412912E-1	1.128395367E1	-8.362914920E-1
1.140325023E1	9.403793216E-1	1.113200951E1	-5.934200287E-1
1.141165325E1	1.009172916E0	1.087896824E1	-7.429714203E-1
1.142005627E1	1.340578914E0	1.065763187E1	-9.960124493E-1
1.142845929E1	1.956132531E0	1.052662468E1	-1.011565804E0
1.143686231E1	2.556132793E0	1.044407272E1	-8.955138922E-1
1.144526533E1	2.996412039E0	1.026341438E1	-6.125625968E-1
1.145366835E1	3.093321562E0	9.803394318E0	-4.606183469E-1
1.146207137E1	2.880360365E0	9.256035805E0	-4.396811724E-1
1.147047439E1	2.758924484E0	9.001798630E0	-4.444667995E-1
1.147887741E1	2.865405083E0	9.061619759E0	-1.854437590E-1
1.148728044E1	3.087937593E0	9.260822296E0	-1.034895778E-1
1.149568346E1	3.228515863E0	9.492327690E0	8.733802289E-2
1.150408648E1	3.088535786E0	9.686145782E0	1.980060786E-1
1.151248950E1	2.617149830E0	9.794421196E0	3.690928817E-1
1.152089252E1	1.985444546E0	9.838688850E0	4.283152521E-1
1.152929554E1	1.075573802E0	9.726225853E0	4.510470629E-1
1.153769856E1	2.871387079E-2	9.500701904E0	3.996013701E-1
1.154610158E1	-1.046261668E0	9.229715347E0	5.108676553E-1
1.155450460E1	-1.945364833E0	8.761918068E0	5.216353536E-1
1.156290762E1	-2.188236237E0	8.422736168E0	7.657032460E-2
1.157131064E1	-1.851446509E0	8.498707771E0	-4.145565331E-1
1.157971366E1	-1.407577872E0	8.798408508E0	-3.302095234E-1
1.158811669E1	-1.179661512E0	8.995218277E0	-8.913264424E-2
1.159651971E1	-1.124626637E0	9.088538170E0	-1.333998591E-1
1.160492273E1	-1.140778184E0	9.150154114E0	-2.931207716E-1
1.161332575E1	-1.201196909E0	9.208179474E0	-4.833501875E-1
1.162172877E1	-1.174875975E0	9.320044518E0	-6.101697683E-1
1.163013179E1	-1.112662554E0	9.444471359E0	-5.940182209E-1
1.163853481E1	-1.016351461E0	9.568299294E0	-5.796613097E-1
1.164693783E1	-8.333004713E-1	9.674181938E0	-6.406782866E-1
1.165534085E1	-6.783652306E-1	9.725627899E0	-5.485545993E-1
1.166374387E1	-3.768695593E-1	9.763314247E0	-6.005984545E-1
1.167214689E1	-7.836493850E-2	9.980463028E0	-6.388836503E-1
1.168054991E1	1.316052489E-2	1.007378292E1	-5.324030519E-1
1.168895294E1	6.819544733E-2	1.011864853E1	-4.695914388E-1
1.169735596E1	1.405783296E-1	1.023589706E1	-4.654040039E-1
1.170575898E1	1.441675574E-1	1.029392338E1	-4.450650215E-1
1.171416200E1	2.135594189E-1	1.027537823E1	-4.414757788E-1
1.172256502E1	4.486542344E-1	1.035314560E1	-4.821537733E-1
1.173096804E1	6.909275651E-1	1.037527943E1	-4.109672904E-1
1.173937106E1	9.696913958E-1	1.042612648E1	-5.054838061E-1
1.174777408E1	9.954141974E-1	1.044108200E1	-5.024927258E-1
1.175617710E1	8.279166222E-1	1.029272652E1	-7.022934556E-1
1.176458012E1	7.381857634E-1	1.019880867E1	-7.489534616E-1
1.177298314E1	8.033902049E-1	1.020837975E1	-8.404789567E-1
1.178138616E1	7.992027402E-1	1.027777100E1	-9.242277741E-1
1.178978918E1	8.434699774E-1	1.030708313E1	-1.006780148E0
1.179819221E1	9.026923180E-1	1.028375340E1	-9.427721500E-1
1.180659523E1	1.037288666E0	1.029811001E1	-1.039681435E0
1.181499825E1	1.148554921E0	1.040100193E1	-1.137787223E0
1.182340127E1	1.096511006E0	1.043928719E1	-1.121037364E0
1.183180429E1	1.037288666E0	1.042134094E1	-1.208973646E0
1.184020731E1	1.080957651E0	1.043390274E1	-1.316052437E0
1.184861033E1	1.124028444E0	1.040638542E1	-1.333998680E0
1.185701335E1	1.202393413E0	1.037707329E1	-1.415952802E0
1.186541637E1	1.284945726E0	1.043928719E1	-1.490130305E0
1.187381939E1	1.323829174E0	1.053679466E1	-1.631306887E0
1.188222241E1	1.272383451E0	1.051047325E1	-1.770090580E0
1.189062544E1	1.186241865E0	1.022931671E1	-1.895713687E0
1.189902846E1	1.570289850E0	9.965508461E0	-1.998006940E0
1.190743148E1	2.133201361E0	9.765109062E0	-1.628913999E0
1.191583450E1	2.603989124E0	9.526425362E0	-9.487541914E-1
1.192423752E1	3.089732170E0	9.410373688E0	-9.302098155E-1
1.193264054E1	3.524029493E0	9.358927727E0	-1.102493048E0
1.194104356E1	3.957728624E0	9.367900848E0	-1.554138303E0
1.194944658E1	3.962514400E0	9.312865257E0	-1.336989641E0
1.195784960E1	3.775874138E0	8.894720078E0	-1.717448473E0
1.196625262E1	3.786043644E0	8.629714966E0	-2.204387903E0
1.197465564E1	4.243072987E0	8.699705124E0	-2.278565407E0
1.198305866E1	5.127220631E0	8.773882866E0	-2.240878344E0
1.199146168E1	6.105885029E0	8.810971260E0	-1.893320918E0
1.199986471E1	7.024729252E0	8.809176445E0	-1.257428288E0
1.200826773E1	8.776275635E0	9.360123634E0	4.689932466E-1
1.201667075E1	1.248036480E1	1.060558796E1	4.407579422E0
1.202507377E1	1.626820374E1	1.227099228E1	6.707081795E0
1.203347679E1	1.363310719E1	1.408893967E1	7.949554920E0
1.204187981E1	3.905684710E0	1.555693626E1	9.776474953E0
1.205028283E1	-9.428917885E0	1.404108334E1	8.662017822E0
1.205868585E1	-2.010928154E1	1.039621639E1	-5.766702294E-1
1.206708887E1	-1.628734589E1	9.853643417E0	-1.141795158E1
1.207549189E1	-7.025327206E0	1.201316643E1	-1.392981720E1
1.208389491E1	-1.095912814E0	1.240199947E1	-7.356134892E0
1.209229794E1	1.847857237E0	9.851848602E0	-1.556531072E0
1.210070096E1	4.079164505E0	8.690732002E0	-2.871387303E-1
1.210910398E1	5.904888153E0	9.945169449E0	1.154536963E0
1.211750700E1	6.379863262E0	1.138445187E1	2.335993052E0
1.212591002E1	4.421338081E0	1.119900799E1	1.547558069E0
1.213431304E1	9.397810698E-1	1.016351414E1	7.872386575E-1
1.214271606E1	-2.135594130E0	9.156734467E0	3.409772366E-2
1.215111908E1	-3.242872953E0	8.491529465E0	-1.477568001E-1
1.215952210E1	-1.954936147E0	8.635098457E0	3.164508045E-1
1.216792512E1	-2.763710022E-1	9.355338097E0	9.553344250E-1
1.217632814E1	6.681957245E-1	9.856036186E0	1.452443361E0
1.218473116E1	1.024128079E0	9.952347755E0	1.612164259E0
1.219313418E1	1.115055323E0	9.915857315E0	1.234098315E0
1.220153721E1	8.440681696E-1	9.933204651E0	4.779663086E-1
1.220994023E1	2.027917206E-1	9.963115692E0	-2.811566591E-1
1.221834325E1	-7.627122402E-1	9.948160172E0	-5.192425251E-1
1.222674627E1	-1.596012712E0	9.856635094E0	-4.049852192E-1
1.223514929E1	-1.816152334E0	9.748359680E0	-1.519442350E-1
1.224355231E1	-1.301695466E0	9.642477036E0	3.469592705E-2
1.225195533E1	-3.601198196E-1	9.625128746E0	1.668993831E-1
1.226035835E1	4.432703853E-1	9.667601585E0	2.973082066E-1
1.226876137E1	8.440681696E-1	9.764511108E0	4.253242314E-1
1.227716439E1	7.567301393E-1	9.865608215E0	3.882354796E-1
1.228556741E1	3.254238665E-1	9.963713646E0	2.841476798E-1
1.229397044E1	-6.699903309E-2	9.956535339E0	2.075773627E-1
1.230237346E1	-1.896311939E-1	9.852447510E0	8.614161611E-2
1.231077648E1	5.503492057E-2	9.738788605E0	1.417747438E-1
1.231917950E1	4.498506486E-1	9.706484795E0	1.154536903E-1
1.232758252E1	7.447660565E-1	9.793823242E0	1.136590727E-2
1.233598554E1	8.817551732E-1	9.909276962E0	-9.391828626E-2
1.234438856E1	8.955138922E-1	9.969097137E0	-6.819544733E-2
1.235279158E1	8.231309652E-1	9.929615974E0	1.268195957E-1
1.236119460E1	7.184450030E-1	9.805787086E0	2.129612118E-1
1.236959762E1	6.394818425E-1	9.742975235E0	1.974078715E-1
1.237800064E1	6.113662124E-1	9.726823807E0	1.794617027E-1
1.238640366E1	6.149554253E-1	9.717850685E0	2.321037948E-1
1.239480668E1	6.861419082E-1	9.727422714E0	3.678964674E-1
1.240320971E1	7.764709592E-1	9.769894600E0	5.653043389E-1
1.241161273E1	8.374879360E-1	9.704092026E0	6.125625968E-1
1.242001575E1	8.835497499E-1	9.608977318E0	5.174478889E-1
1.242841877E1	8.763712645E-1	9.577272415E0	3.900300860E-1
1.243682179E1	8.099704385E-1	9.658628464E0	4.384847581E-1
1.244522481E1	7.280163169E-1	9.750154495E0	5.084748268E-1
1.245362783E1	6.652047038E-1	9.808179855E0	4.630111754E-1
1.246203085E1	6.227321029E-1	9.828518867E0	3.385843933E-1
1.247043387E1	5.958128572E-1	9.825528145E0	2.997010350E-1
1.247883689E1	5.593222976E-1	9.797411919E0	3.254238665E-1
1.248723991E1	5.659025311E-1	9.747760773E0	3.445664644E-1
1.249564294E1	6.729813814E-1	9.712467194E0	3.116651475E-1
1.250404596E1	7.274180651E-1	9.654440880E0	2.967100143E-1
1.251244898E1	7.160521746E-1	9.624530792E0	3.690928817E-1
1.252085200E1	7.082754970E-1	9.692726135E0	4.558327198E-1
1.252925502E1	7.531409264E-1	9.745368004E0	4.606183469E-1
1.253765804E1	8.249256015E-1	9.719645500E0	4.013960063E-1
1.254606106E1	9.254241586E-1	9.661021233E0	3.164508045E-1
1.255446408E1	9.750752449E-1	9.595816612E0	2.470589429E-1
1.256286710E1	1.021735311E0	9.560523033E0	2.279163599E-1
1.257127012E1	1.064207911E0	9.565308571E0	2.470589429E-1
1.257967314E1	1.138983607E0	9.598808289E0	1.818545163E-1
1.258807616E1	1.157527924E0	9.676574707E0	2.135594189E-1
1.259647919E1	1.135992527E0	9.705886841E0	2.991028428E-1
1.260488221E1	1.141974568E0	9.646664619E0	3.080759048E-1
1.261328523E1	1.143769264E0	9.588040352E0	3.696911037E-1
1.262168825E1	1.068993568E0	9.585049629E0	4.073780477E-1
1.263009127E1	9.457631707E-1	9.729216576E0	4.007977843E-1
1.263849429E1	8.033902049E-1	9.975079536E0	3.487538993E-1
1.264689731E1	7.070791125E-1	1.020837975E1	2.338984162E-1
1.265530033E1	6.891329288E-1	1.031904793E1	7.417750359E-2
1.266370335E1	7.543373108E-1	1.027059269E1	-4.606183618E-2
1.267210637E1	8.147560954E-1	1.017906761E1	-2.321037948E-1
1.268050939E1	8.554341197E-1	1.021914768E1	-3.182454109E-1
1.268891241E1	8.781659007E-1	1.042433167E1	-3.296113312E-1
1.269731544E1	8.739784956E-1	1.093400288E1	-1.591227055E-1
1.270571846E1	7.489534616E-1	1.164168072E1	4.307080805E-2
1.271412148E1	4.157529473E-1	1.201555920E1	1.794616925E-3
1.272252450E1	9.690931439E-2	1.172483063E1	-2.997010350E-1
1.273092752E1	2.871387079E-2	1.102253723E1	-7.609176040E-1
1.273933054E1	2.003988922E-1	1.056969547E1	-9.266205430E-1
1.274773356E1	4.450650215E-1	1.049312592E1	-9.188438654E-1
1.275613658E1	6.562315822E-1	1.039083195E1	-7.411768436E-1
1.276453960E1	1.103689432E0	1.014975548E1	-1.000798106E0
1.277294262E1	1.683350682E0	1.013180923E1	-9.074779749E-1
1.278134564E1	2.131406784E0	1.026042366E1	-8.003991842E-1
1.278974866E1	2.283350945E0	1.041356373E1	-6.496513486E-1
1.279815168E1	2.234896421E0	1.044586754E1	-6.562315822E-1
1.280655471E1	2.095514536E0	1.038485050E1	-7.896314859E-1
1.281495773E1	1.925624013E0	1.000498962E1	-7.070791125E-1
1.282336075E1	1.911267042E0	9.704689980E0	-5.790630579E-1
1.283176377E1	1.966900229E0	9.664012909E0	-5.389832854E-1
1.284016679E1	2.026720762E0	9.774680138E0	-3.846462369E-1
1.284856981E1	2.121237278E0	9.934999466E0	-7.836493850E-2
1.285697283E1	2.281556368E0	9.982855797E0	3.290131316E-2
1.286537585E1	2.456232548E0	1.001396275E1	3.050848842E-2
1.287377887E1	2.550150633E0	9.997213364E0	8.973085321E-3
1.288218189E1	2.529213428E0	9.909874916E0	-1.615155302E-2
1.289058491E1	2.231905222E0	9.668199539E0	1.758724600E-1
1.289898794E1	1.852044702E0	9.250652313E0	2.183450609E-1
1.290739096E1	1.880758643E0	9.023932457E0	2.452643216E-2
1.291579398E1	2.259422779E0	9.198608398E0	2.979064286E-1
1.292419700E1	2.498106956E0	9.322437286E0	5.982056856E-1
1.293260002E1	2.469393015E0	9.246464729E0	7.238288522E-1
1.294100304E1	2.185245275E0	9.177073479E0	9.667003751E-1
1.294940606E1	1.584048629E0	9.084949493E0	9.326026440E-1
1.295780908E1	5.868397355E-1	9.044271469E0	7.573283911E-1
1.296621210E1	-9.158528447E-1	8.682356834E0	8.739784956E-1
1.297461512E1	-2.155334949E0	8.054241180E0	2.596212626E-1
1.298301814E1	-2.522633314E0	7.954938889E0	-5.605186820E-1
1.299142116E1	-2.119442701E0	8.353941917E0	-8.865407705E-1
1.299982419E1	-1.330409408E0	8.927620888E0	-9.278169870E-1
1.300822721E1	-5.922235847E-1	9.516255379E0	-8.440681696E-1
1.301663023E1	-1.052841991E-1	9.926026344E0	-6.963114142E-1
1.302503325E1	2.404786795E-1	1.007916737E1	-5.886343718E-1
1.303343627E1	5.509474277E-1	1.009172916E1	-5.359922647E-1
1.304183929E1	8.482556343E-1	1.014317513E1	-6.011967063E-1
1.305024231E1	9.900303483E-1	1.025204849E1	-7.010970116E-1
1.305864533E1	8.440681696E-1	1.038843918E1	-8.650053740E-1
1.306704835E1	1.854437590E-1	1.020359421E1	-9.942178130E-1
1.307545137E1	-3.038884699E-1	9.784850121E0	-1.028315544E0
1.308385439E1	-2.871387079E-2	9.562317848E0	-9.798609018E-1
1.309225741E1	1.155733347E0	9.999007225E0	-9.170492887E-1
1.310066044E1	2.124228239E0	1.074975586E1	-7.728816867E-1
1.310906346E1	2.267797709E0	1.109910774E1	-1.191625714E0
1.311746648E1	1.590628862E0	1.098664474E1	-1.377069473E0
1.312586950E1	1.109073281E0	1.035194874E1	-1.520040631E0
1.313427252E1	1.450050473E0	9.937990189E0	-1.325025558E0
1.314267554E1	2.255833626E0	1.018385315E1	-1.383649707E0
1.315107856E1	2.578266382E0	1.073659515E1	-1.504487276E0
1.315948158E1	2.048854351E0	1.071864891E1	-1.443470240E0
1.316788460E1	1.356730461E0	1.018804073E1	-1.446461320E0
1.317628762E1	1.128215909E0	9.751350403E0	-1.566700578E0
1.318469064E1	1.158724308E0	9.684949875E0	-1.480558991E0
1.319309366E1	1.027717352E0	9.696913719E0	-1.417149186E0
1.320149668E1	8.763712645E-1	9.680164337E0	-1.294517040E0
1.320989971E1	8.482556343E-1	9.698110580E0	-1.382453322E0
1.321830273E1	6.478567123E-1	9.751948357E0	-1.382453322E0
1.322670575E1	4.827519655E-1	9.664610863E0	-1.426122308E0
1.323510877E1	6.095715761E-1	9.704092026E0	-1.426720500E0
1.324351179E1	6.969096065E-1	9.666405678E0	-1.471585870E0
1.325191481E1	9.320043921E-1	9.674779892E0	-1.589432478E0
1.326031783E1	1.074975610E0	9.653842926E0	-1.433300734E0
1.326872085E1	1.024128079E0	9.458230019E0	-1.335793257E0
1.327712387E1	9.828519225E-1	9.382855415E0	-1.412961721E0
1.328552689E1	9.266205430E-1	9.458230019E0	-1.501496196E0
1.329392991E1	8.267202377E-1	9.445667267E0	-1.409970760E0
1.330233294E1	8.081758618E-1	9.457033157E0	-1.151545882E0
1.331073596E1	8.333004713E-1	9.317651749E0	-1.013360381E0
1.331913898E1	9.236295223E-1	9.341579437E0	-1.074377418E0
1.332754200E1	1.004387259E0	9.541379929E0	-1.041476011E0
1.333594502E1	1.039083242E0	9.688538551E0	-1.016949654E0
1.334434804E1	1.184447169E0	9.830313683E0	-1.011565804E0
1.335275106E1	1.420140266E0	9.932008743E0	-9.672985673E-1
1.336115408E1	1.722234130E0	9.881160736E0	-8.165507317E-1
1.336955710E1	2.483151674E0	1.016710377E1	-1.088734269E0
1.337796012E1	3.197409153E0	1.073719311E1	-8.440681696E-1
1.338636314E1	3.742972851E0	1.114457130E1	-5.306084156E-1
1.339476616E1	3.501895905E0	1.064088249E1	1.734796353E-2
1.340316919E1	2.819941521E0	9.569496155E0	-6.891329288E-1
1.341157221E1	2.109273195E0	8.686544418E0	-1.510469317E0
1.341997523E1	2.276172638E0	8.528617859E0	-2.285145521E0
1.342837825E1	3.616153240E0	9.151350021E0	-2.303689957E0
1.343678127E1	5.469992638E0	9.951150894E0	-1.984248161E0
1.344518429E1	7.327421188E0	1.030588722E1	-1.628913999E0
1.345358731E1	9.033503532E0	1.000917721E1	-1.756331801E0
1.346199033E1	1.017906761E1	9.339784622E0	-1.955534339E0
1.347039335E1	1.156391335E1	8.756534576E0	-1.301097274E0
1.347879637E1	1.481217003E1	8.513663292E0	-1.387837082E-1
1.348719939E1	1.821536255E1	1.079162979E1	-1.723430514E0
1.349560241E1	1.392862034E1	1.332802200E1	1.244267821E0
1.350400544E1	4.862215519E0	1.364686584E1	5.938387394E0
1.351240846E1	-7.530810833E0	1.127557850E1	9.556335449E0
1.352081148E1	-1.681795311E1	8.127820015E0	4.992026329E0
1.352921450E1	-1.300140190E1	8.844470978E0	-3.169891834E0
1.353761752E1	-5.426921844E0	1.238824081E1	-9.999007225E0
1.354602054E1	-1.775474429E0	1.429532051E1	-5.798407555E0
1.355442356E1	0.000000000E0	1.123789120E1	-1.122832060E0
1.356282658E1	2.122433662E0	7.599006653E0	-1.258624673E0
1.357122960E1	4.887938499E0	7.395616531E0	5.066801906E-1
1.357963262E1	7.024130821E0	9.721440315E0	9.002995491E-1
1.358803564E1	6.860820770E0	1.191206932E1	-2.805584669E-1
1.359643866E1	3.807579041E0	1.205384445E1	-3.643072546E-1
1.360484168E1	-3.373879790E-1	1.014197922E1	-7.836494446E-1
1.361324471E1	-2.608774900E0	8.759525299E0	-1.738983870E0
1.362164773E1	-2.335394859E0	8.834300995E0	-1.477568030E0
1.363005075E1	-8.883354068E-1	9.605986595E0	-5.425725579E-1
1.363845377E1	3.433700502E-1	1.000738239E1	6.239284873E-1
1.364685679E1	1.380060434E0	1.022393322E1	1.328016520E0
1.365525981E1	2.163111687E0	1.024367332E1	1.478764415E0
1.366366283E1	2.296511650E0	1.000439167E1	1.052243710E0
1.367206585E1	1.560120344E0	9.831509590E0	8.099704385E-1
1.368046887E1	3.427718580E-1	9.829116821E0	5.120640397E-1
1.368887189E1	-7.704889178E-1	9.884152412E0	9.032905847E-2
1.369727491E1	-9.661021233E-1	9.989436150E0	-1.124626622E-1
1.370567794E1	-2.201396823E-1	1.012223816E1	-1.076770201E-2
1.371408096E1	6.251249313E-1	1.007617569E1	2.249253243E-1
1.372248398E1	1.206580877E0	9.856036186E0	3.810569942E-1
1.373088700E1	1.478764415E0	9.679565430E0	4.390829504E-1
1.373929002E1	1.305882931E0	9.620343208E0	4.235295951E-1
1.374769304E1	8.380861282E-1	9.628718376E0	4.139583111E-1
1.375609606E1	5.138586760E-1	9.595816612E0	9.032905847E-2
1.376449908E1	4.929214716E-1	9.522835732E0	4.247260094E-2
1.377290210E1	6.598208547E-1	9.474381447E0	1.495514214E-1
1.378130512E1	8.338986635E-1	9.536594391E0	2.721835673E-1
1.378970814E1	9.655039310E-1	9.623334885E0	2.638086975E-1
1.379811116E1	1.038485050E0	9.632308006E0	1.764706671E-1
1.380651419E1	9.140582681E-1	9.706484795E0	9.391828626E-2
1.381491721E1	5.341976285E-1	9.793225288E0	2.039881349E-1
1.382332023E1	2.117647976E-1	9.803992271E0	5.443671346E-2
1.383172325E1	1.268195957E-1	9.777072906E0	-4.307080805E-2
1.384012627E1	1.028913707E-1	9.803394318E0	-7.298108935E-2
1.384852929E1	1.076770201E-1	9.773484230E0	9.750752151E-2
1.385693231E1	1.932204217E-1	9.754940033E0	1.627119333E-1
1.386533533E1	2.464607358E-1	9.806983948E0	3.254238665E-1
1.387373835E1	9.990034252E-2	9.808179855E0	4.737788737E-1
1.388214137E1	-8.973085321E-3	9.738788605E0	3.822534084E-1
1.389054439E1	-1.196411322E-3	9.611370087E0	1.842473447E-1
1.389894741E1	1.381855011E-1	9.565308571E0	1.794617027E-1
1.390735044E1	3.768695593E-1	9.661619186E0	2.715853751E-1
1.391575346E1	5.706881881E-1	9.780662537E0	4.109672904E-1
1.392415648E1	5.048855543E-1	9.754341125E0	4.420739710E-1
1.393255950E1	1.854437590E-1	9.689735413E0	4.091726840E-1
1.394096252E1	-1.088734269E-1	9.645467758E0	1.591227055E-1
1.394936554E1	-1.974078715E-1	9.614361763E0	-2.153540403E-1
1.395776856E1	-1.298106313E-1	9.558728218E0	-3.882354796E-1
1.396617158E1	5.922235921E-2	9.494122505E0	-3.750749528E-1
1.397457460E1	3.535395563E-1	9.506086349E0	-1.375873089E-1
1.398297762E1	6.861419082E-1	9.540184021E0	5.324030295E-2
1.399138064E1	9.038887620E-1	9.573084831E0	2.171486616E-1
1.399978366E1	8.578268886E-1	9.529416084E0	3.302095234E-1
1.400818668E1	7.286145091E-1	9.466006279E0	3.457628787E-1
1.401658971E1	6.723831892E-1	9.478569031E0	2.644068897E-1
1.402499273E1	7.920243144E-1	9.590433121E0	1.549352705E-1
1.403339575E1	1.103689432E0	9.718449593E0	-5.383851007E-3
1.404179877E1	1.509871125E0	9.798608780E0	-1.597209126E-1
1.405020179E1	1.765903115E0	9.852447510E0	-2.392822653E-1
1.405860481E1	1.646860242E0	9.899705887E0	-2.703889608E-1
1.406700783E1	1.224527001E0	1.004506969E1	-3.553341627E-1
1.407541085E1	6.897311211E-1	1.041715336E1	-4.235295951E-1
1.408381387E1	2.991028428E-1	1.119541931E1	-2.871387303E-1
1.409221689E1	8.973085135E-2	1.224467182E1	-2.291127741E-1
1.410061991E1	-1.274178028E-1	1.275972652E1	-5.545366406E-1
1.410902294E1	-2.907279432E-1	1.233799171E1	-1.118644595E0
1.411742596E1	-2.895315289E-1	1.159860992E1	-1.396211982E0
1.412582898E1	-2.865405083E-1	1.116550827E1	-7.944171429E-1
1.413423200E1	-4.486542344E-1	1.049133110E1	3.188436031E-1
1.414263502E1	5.982056633E-2	9.681360245E0	-9.996016622E-1
1.415103804E1	1.143769264E0	9.973882675E0	-1.217348576E0
1.415944106E1	2.070987940E0	1.038185883E1	-8.279166222E-1
1.416784408E1	2.684148788E0	1.056311512E1	-6.059823632E-1
1.417624710E1	2.989831924E0	1.069771194E1	-4.043870270E-1
1.418465012E1	3.027518749E0	1.080299568E1	-3.074777126E-1
1.419305314E1	2.746362209E0	1.077607632E1	-2.937189937E-1
1.420145616E1	2.160120726E0	1.063430214E1	-3.726821244E-1
1.420985919E1	1.382453322E0	1.039860916E1	-4.492524564E-1
1.421826221E1	7.974081635E-1	1.008514881E1	-4.534398913E-1
1.422666523E1	8.051848412E-1	9.809376717E0	-5.898307562E-1
1.423506825E1	1.398604870E0	9.797411919E0	-2.955136001E-1
1.424347127E1	2.067398787E0	9.886545181E0	-3.768695518E-2
1.425187429E1	2.574677229E0	1.001575756E1	6.759724021E-2
1.426027731E1	2.698505640E0	1.003430176E1	1.668993831E-1
1.426868033E1	2.382653236E0	9.890133858E0	1.621137410E-1
1.427708335E1	1.622333765E0	9.768099785E0	2.847459018E-1
1.428548637E1	2.853440940E-1	9.509077072E0	4.636093974E-1
1.429388939E1	-1.271187067E0	8.900103569E0	4.163511395E-1
1.430229241E1	-2.039283037E0	8.419146538E0	-2.482553422E-1
1.431069544E1	-1.805982947E0	8.528019905E0	-8.644071817E-1
1.431909846E1	-1.091127157E0	8.916254997E0	-8.482556343E-1
1.432750148E1	-3.852444589E-1	9.074181557E0	-4.695914388E-1
1.433590450E1	2.045863420E-1	9.093324661E0	-8.195417374E-2
1.434430752E1	6.735795736E-1	9.069993973E0	5.264209956E-2
1.435271054E1	1.064806104E0	9.111868858E0	-1.519442350E-1
1.436111356E1	1.304686546E0	9.427123070E0	-5.443671346E-1
1.436951658E1	1.188036442E0	9.600603104E0	-9.242277741E-1
1.437791960E1	7.345965505E-1	9.567103386E0	-1.014556766E0
1.438632262E1	3.858426511E-1	9.433105469E0	-1.265803218E0
1.439472564E1	1.375873089E-1	9.296713829E0	-1.350748420E0
1.440312866E1	2.745763958E-1	9.345767021E0	-1.511665702E0
1.441153169E1	5.312066078E-1	9.681360245E0	-1.507478237E0
1.441993471E1	4.755735099E-1	9.885348320E0	-1.121635556E0
1.442833773E1	2.715853751E-1	9.701699257E0	-1.089930773E0
1.443674075E1	-9.690931439E-2	9.509077072E0	-1.170090318E0
1.444514377E1	-1.537388563E-1	9.390632629E0	-1.274776220E0
1.445354679E1	3.672982752E-1	9.699904442E0	-1.180858016E0
1.446194981E1	8.153542876E-1	9.906285286E0	-9.272187948E-1
1.447035283E1	1.033101201E0	9.931410789E0	-1.229910851E0
1.447875585E1	6.957131624E-1	1.005583763E1	-1.564906001E0
1.448715887E1	2.117647976E-1	9.859625816E0	-1.823330879E0
1.449556189E1	1.968096644E-1	9.573683739E0	-1.776072621E0
1.450396491E1	8.673982024E-1	9.647262573E0	-1.635494232E0
1.451236794E1	1.442872047E0	9.644869804E0	-1.270588875E0
1.452077096E1	2.382055044E0	9.828518867E0	-1.237687469E0
1.452917398E1	3.282354355E0	1.038126087E1	-1.000199914E0
1.453757700E1	3.022733212E0	1.038126087E1	-9.828519225E-1
1.454598002E1	2.405385017E0	9.760323524E0	-9.702895880E-1
1.455438304E1	2.434098721E0	9.484550476E0	-1.234098315E0
1.456278606E1	2.748754978E0	9.754341125E0	-1.220339537E0
1.457118908E1	2.810968399E0	9.952945709E0	-1.722234130E0
1.457959210E1	2.508276224E0	9.917651176E0	-1.329213023E0
1.458799512E1	2.441875458E0	9.410971642E0	-1.724028707E0
1.459639814E1	2.728415966E0	9.506086349E0	-1.889133453E0
1.460480116E1	2.525026083E0	9.396016121E0	-2.028515339E0
1.461320418E1	1.905883193E0	9.329017639E0	-1.819741607E0
1.462160721E1	1.734198213E0	8.975478172E0	-1.898704767E0
1.463001023E1	2.352742910E0	9.309874535E0	-2.026720762E0
1.463841325E1	2.888136864E0	9.515059471E0	-2.102094650E0
1.464681627E1	3.222533941E0	9.718449593E0	-2.014158487E0
1.465521929E1	3.414557934E0	9.916455269E0	-2.170888424E0
1.466362231E1	3.038286448E0	9.820143700E0	-1.437488198E0
1.467202533E1	2.608774900E0	9.482157707E0	-1.624726534E0
1.468042835E1	2.509472847E0	9.541978836E0	-1.962114573E0
1.468883137E1	2.823530674E0	9.969097137E0	-2.137388945E0
1.469723439E1	3.068794966E0	1.045244789E1	-1.624726534E0
1.470563741E1	3.211168051E0	1.077488041E1	-1.046261668E0
1.471404044E1	3.160918713E0	1.094417286E1	-5.419743061E-1
1.472244346E1	2.508874655E0	1.060080242E1	-3.774677813E-1
1.473084648E1	1.576870084E0	1.015214825E1	-5.569294691E-1
1.473924950E1	6.873382926E-1	9.846465111E0	-8.458628058E-1
1.474765252E1	4.061816335E-1	9.495318413E0	-1.170090318E0
1.475605554E1	1.728814393E-1	9.139386177E0	-1.265205026E0
1.476445856E1	3.020938635E-1	9.067601204E0	-1.124028444E0
1.477286158E1	4.372883439E-1	9.223134995E0	-9.840483069E-1
1.478126460E1	3.236292601E-1	9.182456970E0	-8.751748800E-1
1.478966762E1	9.152546525E-2	9.050253868E0	-9.266205430E-1
1.479807064E1	-2.727817893E-1	8.840881348E0	-1.070788145E0
1.480647366E1	-4.372883439E-1	8.749954224E0	-1.590628862E0
1.481487669E1	-4.540380836E-1	8.834300995E0	-1.694716692E0
1.482327971E1	-3.858426511E-1	8.883952141E0	-1.665404558E0
1.483168273E1	-2.739782035E-1	8.875576973E0	-1.504487276E0
1.484008575E1	1.704886109E-1	8.845068932E0	-1.420140266E0
1.484848877E1	1.149751306E0	8.735597610E0	-1.095912814E0
1.485689179E1	2.575275421E0	8.631509781E0	-5.240281820E-1
1.486529481E1	4.445864677E0	8.571090698E0	2.799602449E-1
1.487369783E1	7.332206726E0	8.299505234E0	1.101296663E0
1.488210085E1	1.135214901E1	8.059624672E0	1.466800332E0
1.489050387E1	1.555334759E1	8.891729355E0	2.392822644E-3
1.489890689E1	1.666002846E1	1.128395367E1	-7.896314561E-2
1.490730991E1	1.265444279E1	1.300558949E1	4.869394302E0
1.491571294E1	5.234897614E0	1.242533016E1	9.746564865E0
1.492411596E1	-5.092525005E0	1.051167011E1	8.489734650E0
1.493251898E1	-1.162134171E1	9.586843491E0	1.395613790E0
1.494092200E1	-1.012941647E1	1.095434189E1	-5.659623623E0
1.494932502E1	-7.682755470E0	1.268315601E1	-8.627322197E0
1.495772804E1	-5.720042706E0	1.205982590E1	-5.963512421E0
1.496613106E1	-2.806781054E0	9.290732384E0	-3.495315790E0
1.497453408E1	1.040877819E0	8.016553879E0	-2.011765718E0
1.498293710E1	4.855635166E0	9.448657990E0	-4.037888348E-1
1.499134012E1	6.970292568E0	1.192283726E1	1.322034448E-1
1.499974314E1	6.196812630E0	1.271426296E1	4.845465720E-1
1.500814616E1	3.095116138E0	1.138684464E1	7.334001660E-1
1.501654918E1	-1.375873089E-1	9.418149948E0	7.441678643E-1
1.502495221E1	-1.102493048E0	8.717651367E0	2.817548811E-1
1.503335523E1	-8.368897438E-1	9.056833267E0	1.854437590E-1
1.504175825E1	-4.348955154E-1	9.687342644E0	6.496513486E-1
1.505016127E1	2.500499785E-1	1.008754253E1	1.039083242E0
1.505856429E1	1.383649707E0	1.032144070E1	9.756734371E-1
1.506696731E1	2.274377823E0	1.047757244E1	1.020538807E0
1.507537033E1	2.430509567E0	1.034297562E1	1.023529887E0
1.508377335E1	1.932802439E0	1.004566765E1	6.717849374E-1
1.509217637E1	1.296909928E0	9.932606697E0	1.920240223E-1
1.510057939E1	6.400800347E-1	9.887741089E0	-1.698904037E-1
1.510898241E1	1.507478207E-1	9.844670296E0	-2.428714931E-1
1.511738544E1	3.469592705E-2	9.817750931E0	1.106680483E-1
1.512578846E1	3.134597540E-1	9.765109062E0	3.457628787E-1
1.513419148E1	7.160521746E-1	9.711869240E0	4.977070987E-1
1.514259450E1	9.242277741E-1	9.679565430E0	4.642075896E-1
1.515099752E1	9.188438654E-1	9.682557106E0	4.396811724E-1
1.515940054E1	7.812566161E-1	9.672985077E0	3.870390654E-1
1.516780356E1	5.024927258E-1	9.677172661E0	4.947160780E-1
1.517620658E1	2.967100143E-1	9.611968994E0	3.475574851E-1
1.518460960E1	2.973082066E-1	9.657432556E0	2.171486616E-1
1.519301262E1	3.134597540E-1	9.770493507E0	1.142572835E-1
1.520141564E1	2.626122832E-1	9.684351921E0	3.708875179E-2
1.520981866E1	2.811566591E-1	9.584450722E0	1.842473447E-1
1.521822169E1	3.469592929E-1	9.575477600E0	3.906283081E-1
1.522662471E1	3.332005441E-1	9.584450722E0	5.778666735E-1
1.523502773E1	2.853440940E-1	9.528220177E0	6.173482537E-1
1.524343075E1	2.476571500E-1	9.463613510E0	6.287141442E-1
1.525183377E1	2.488535494E-1	9.399007797E0	6.939185858E-1
1.526023679E1	3.511467278E-1	9.387641907E0	8.153542876E-1
1.526863981E1	6.119644046E-1	9.448060036E0	7.842476368E-1
1.527704283E1	9.547362328E-1	9.571888924E0	7.064808607E-1
1.528544585E1	1.271187067E0	9.613164902E0	5.838487148E-1
1.529384887E1	1.451845169E0	9.548559189E0	4.073780477E-1
1.530225189E1	1.592423439E0	9.440283775E0	1.399801224E-1
1.531065491E1	1.692323804E0	9.364909172E0	6.340979785E-2
1.531905794E1	1.691127419E0	9.376275063E0	3.152543902E-1
1.532746096E1	1.572682738E0	9.416355133E0	5.539384484E-1
1.533586398E1	1.433300734E0	9.524032593E0	6.029912829E-1
1.534426700E1	1.200000525E0	9.624530792E0	4.462614357E-1
1.535267002E1	8.859425783E-1	9.595816612E0	1.752742529E-1
1.536107304E1	7.657032609E-1	9.612566948E0	2.273181453E-2
1.536947606E1	7.770691514E-1	9.713663101E0	2.015953064E-1
1.537787908E1	8.416753411E-1	9.799206734E0	3.672982752E-1
1.538628210E1	9.385846853E-1	9.920044899E0	5.246263742E-1
1.539468512E1	1.004985452E0	1.003430176E1	5.641079545E-1
1.540308814E1	1.091725349E0	1.007258701E1	5.306084156E-1
1.541149116E1	1.264008522E0	1.011984539E1	4.037888348E-1
1.541989418E1	1.521835208E0	1.024546814E1	2.482553422E-1
1.542829721E1	1.813759565E0	1.042492962E1	9.571290761E-2
1.543670023E1	2.070987940E0	1.058644581E1	-4.725824669E-2
1.544510325E1	2.262413740E0	1.061157036E1	-1.130608693E-1
1.545350627E1	2.434697151E0	1.067378330E1	-2.512463741E-2
1.546190929E1	2.510669231E0	1.088195896E1	9.810572863E-2
1.547031231E1	2.426322222E0	1.116790104E1	2.422732860E-1
1.547871533E1	2.140978098E0	1.113739300E1	1.028913707E-1
1.548711835E1	1.800599098E0	1.073121166E1	-1.597209126E-1
1.549552137E1	1.613360643E0	1.021316528E1	-3.266202807E-1
1.550392439E1	1.654038668E0	9.710074425E0	-6.221339107E-1
1.551232741E1	1.966900229E0	9.441479683E0	-9.152546525E-1
1.552073044E1	2.466402054E0	9.495916367E0	-7.597211599E-1
1.552913346E1	2.941377163E0	9.728020668E0	-8.620143533E-1
1.553753648E1	3.080160856E0	9.966704369E0	-5.401797295E-1
1.554593950E1	2.869592667E0	9.971489906E0	-5.240281820E-1
1.555434252E1	2.497508526E0	9.848259926E0	-4.091726840E-1
1.556274554E1	2.026122570E0	9.604191780E0	-4.289134443E-1
1.557114856E1	1.575075507E0	9.507881165E0	-4.408775866E-1
1.557955158E1	1.189831018E0	9.522835732E0	-3.367897868E-1
1.558795460E1	1.025324464E0	9.712467194E0	-3.343969584E-1
1.559635762E1	9.517452121E-1	1.000439167E1	-3.672982752E-1
1.560476064E1	7.549355626E-1	1.028435135E1	-4.522434771E-1
1.561316366E1	4.707878530E-1	1.038843918E1	-5.784648657E-1
1.562156669E1	2.745763958E-1	1.024965572E1	-4.414757788E-1
1.562996971E1	4.552344978E-1	1.008096218E1	-3.314059377E-1
1.563837273E1	8.237292171E-1	1.001635551E1	-2.530409992E-1
1.564677575E1	1.134796143E0	1.005105114E1	-1.716850251E-1
1.565517877E1	1.256830096E0	1.008814049E1	-9.152546525E-2
1.566358179E1	1.278963685E0	1.003131104E1	-2.333002090E-1
1.567198481E1	1.325025558E0	9.963115692E0	-3.984049559E-1
1.568038783E1	1.475175142E0	9.962516785E0	-3.894318938E-1
1.568879085E1	1.813161373E0	1.005703354E1	-8.733802289E-2
1.569719387E1	2.303689957E0	9.992427826E0	3.469592705E-2
1.570559689E1	2.659622431E0	9.843474388E0	6.041877344E-2
1.571399991E1	2.793022156E0	9.741779327E0	3.176472187E-1
1.572240294E1	2.715853691E0	9.762118340E0	3.900300860E-1
1.573080596E1	2.017149448E0	9.809376717E0	6.311069727E-1
1.573920898E1	5.138586760E-1	9.480961800E0	8.787640929E-1
1.574761200E1	-9.858429432E-1	8.997013092E0	4.887340367E-1
1.575601502E1	-2.229512453E0	8.892327309E0	2.769692242E-1
1.576441804E1	-3.382853031E0	8.652446747E0	3.379862010E-1
1.577282106E1	-3.714857101E0	8.328219414E0	-2.739782035E-1
1.578122408E1	-2.963510752E0	8.698508263E0	-8.177471161E-1
1.578962710E1	-1.808973908E0	9.466006279E0	-9.978070259E-1
1.579803012E1	-8.356932998E-1	1.013001442E1	-8.003991842E-1
1.580643314E1	-3.918247223E-1	1.040040398E1	-7.519445419E-1
1.581483616E1	-5.796613097E-1	1.023111153E1	-9.278169870E-1
1.582323918E1	-9.625129104E-1	9.799206734E0	-9.481559992E-1
1.583164221E1	-8.679963946E-1	9.397212982E0	-9.014959335E-1
1.584004523E1	-2.093719877E-2	9.599406242E0	-1.110867858E0
1.584844825E1	1.052243710E0	1.037408257E1	-1.194018483E0
1.585685127E1	1.776670814E0	1.108714390E1	-1.305882931E0
1.586525429E1	1.624128342E0	1.102971554E1	-1.046261668E0
1.587365731E1	1.014556766E0	1.052841949E1	-1.143171072E0
1.588206033E1	2.458625287E-1	9.830911636E0	-1.437488198E0
1.589046335E1	-2.811566554E-2	9.422337532E0	-1.539183140E0
1.589886637E1	5.886343718E-1	9.801001549E0	-1.473978758E0
1.590726939E1	1.155135155E0	1.038724327E1	-1.247856975E0
1.591567241E1	1.150947690E0	1.054457092E1	-1.213161111E0
1.592407544E1	9.732806087E-1	1.033041382E1	-1.268195987E0
1.593247846E1	8.596215248E-1	1.004088211E1	-1.250249863E0
1.594088148E1	5.772684813E-1	9.872786522E0	-1.249651670E0
1.594928450E1	2.895315289E-1	9.800403595E0	-1.247258782E0
1.595768752E1	4.516452849E-1	1.002173901E1	-1.383649707E0
1.596609054E1	6.281159520E-1	1.026042366E1	-1.311864972E0
1.597449356E1	8.297112584E-1	1.025922680E1	-1.350150228E0
1.598289658E1	1.021137118E0	1.029392338E1	-1.277169108E0
1.599129960E1	9.026923180E-1	1.018086243E1	-1.303490162E0
1.599970262E1	9.038887620E-1	9.934999466E0	-1.361516118E0
1.600810564E1	1.438684583E0	1.017009449E1	-1.386640668E0
1.601650866E1	1.751546144E0	1.040100193E1	-1.243071318E0
1.602491168E1	2.129612207E0	1.033878803E1	-1.366301775E0
1.603331471E1	2.996412039E0	1.051765156E1	-1.735394597E0
1.604171773E1	4.049253941E0	1.093161011E1	-1.547558069E0
1.605012075E1	4.442275047E0	1.088375378E1	-1.208375454E0
1.605852377E1	4.204189301E0	1.065464115E1	-1.225125194E0
1.606692679E1	3.911068678E0	1.030469036E1	-1.294517040E0
1.607532981E1	3.843471289E0	9.889535904E0	-1.296311617E0
1.608373283E1	3.652643681E0	9.288339615E0	-1.234098315E0
1.609213585E1	3.717249870E0	8.831908226E0	-1.703689694E0
1.610053887E1	4.144368649E0	9.005986214E0	-1.977667928E0
1.610894189E1	4.593621254E0	9.229715347E0	-1.656431437E0
1.611734491E1	5.085346222E0	9.194420815E0	-9.984052777E-1
1.612574794E1	6.135197163E0	9.105886459E0	-7.387840152E-1
1.613415096E1	7.462615490E0	9.215357780E0	-7.561319470E-1
1.614255398E1	7.965108395E0	9.015557289E0	-1.956132501E-1
1.615095700E1	7.549953461E0	8.177471161E0	4.283152521E-1
1.615936002E1	7.124031067E0	7.450053215E0	2.620140910E-1
1.616776304E1	8.082356453E0	7.628916740E0	5.204389244E-2
1.617616606E1	1.033639526E1	8.303094864E0	2.757728100E-1
1.618456908E1	1.356670666E1	9.129815102E0	3.894318938E-1
1.619297210E1	1.621915054E1	9.866206169E0	3.888336942E-2
1.620137512E1	1.367378521E1	9.875179291E0	1.149153113E0
1.620977814E1	7.083353043E0	8.639883995E0	3.165704250E0
1.621818116E1	-5.587241054E-1	6.903293133E0	1.892722726E0
1.622658418E1	-6.951149940E0	7.091129780E0	-8.207381964E-1
1.623498721E1	-8.344370842E0	9.841679573E0	-2.846262455E0
1.624339023E1	-5.152345181E0	1.403031540E1	-3.324826956E0
1.625179325E1	-2.106880426E0	1.663251114E1	-2.993421078E0
1.626019627E1	-1.938784599E0	1.407398415E1	-2.112264156E0
1.626859929E1	-2.027318954E0	1.021615601E1	-1.239482164E0
1.627700231E1	-3.894318938E-1	8.756534576E0	-1.042672515E0
1.628540533E1	1.815554142E0	9.893723488E0	-1.304088354E0
1.629380835E1	2.561516523E0	1.113141060E1	-1.022333503E0
1.630221137E1	1.523629785E0	1.081017494E1	-3.702892959E-1
1.631061439E1	-1.375873089E-1	9.342776299E0	5.724828243E-1
1.631901741E1	-7.992027402E-1	8.544769287E0	8.650053740E-1
1.632742044E1	-6.161518097E-1	8.840283394E0	7.160521746E-1
1.633582346E1	-1.830509305E-1	9.463613510E0	8.075776696E-1
1.634422648E1	3.403790295E-1	9.685547829E0	8.566305041E-1
1.635262950E1	9.810572863E-1	9.625128746E0	1.004387259E0
1.636103252E1	1.318445325E0	9.647262573E0	1.133001566E0
1.636943554E1	1.100698471E0	9.693922997E0	8.973084688E-1
1.637783856E1	5.778666735E-1	9.811170578E0	2.482553422E-1
1.638624158E1	9.092725813E-2	1.009651470E1	-3.655036688E-1
1.639464460E1	-2.165504545E-1	1.035194874E1	-7.495517135E-1
1.640304762E1	-2.177468538E-1	1.037587738E1	-6.747759581E-1
1.641145064E1	9.631111473E-2	1.025324535E1	-2.392822653E-1
1.641985366E1	4.420739710E-1	1.003968525E1	1.160518974E-1
1.642825668E1	7.525427341E-1	9.854840279E0	1.250249892E-1
1.643665971E1	9.481559992E-1	9.834501266E0	1.686939895E-1
1.644506273E1	9.864411354E-1	9.821340561E0	1.824527234E-1
1.645346575E1	1.031306505E0	9.695118904E0	2.482553422E-1
1.646186877E1	1.258026481E0	9.667003632E0	1.621137410E-1
1.647027179E1	1.462014675E0	9.801001549E0	1.483550072E-1
1.647867481E1	1.433898926E0	9.822537422E0	7.298108935E-2
1.648707783E1	1.299302697E0	9.739984512E0	-2.991028363E-3
1.649548085E1	1.287936807E0	9.776474953E0	-1.513460279E-1
1.650388387E1	1.200000525E0	9.817152977E0	-3.254238665E-1
1.651228689E1	9.918249846E-1	9.799804688E0	-4.606183469E-1
1.652068991E1	7.752745152E-1	9.774082184E0	-4.265206456E-1
1.652909294E1	7.028916478E-1	9.799804688E0	-1.932204217E-1
1.653749596E1	6.227321029E-1	9.789037704E0	3.290131316E-2
1.654589898E1	5.120640397E-1	9.722636223E0	1.938186288E-1
1.655430200E1	4.468596280E-1	9.735796928E0	2.865405083E-1
1.656270502E1	4.630111754E-1	9.808777809E0	3.583251834E-1
1.657110804E1	5.563312769E-1	9.866206169E0	2.853440940E-1
1.657951106E1	6.239284873E-1	9.863214493E0	2.781656384E-1
1.658791408E1	5.982056856E-1	9.783055305E0	2.554338276E-1
1.659631710E1	6.251249313E-1	9.717850685E0	1.555334777E-1
1.660472012E1	7.292127013E-1	9.732208252E0	7.956135273E-2
1.661312314E1	8.231309652E-1	9.736394882E0	-1.004985496E-1
1.662152616E1	8.775677085E-1	9.667003632E0	-1.351944804E-1
1.662992918E1	9.876375198E-1	9.575477600E0	-2.356930375E-1
1.663833221E1	1.155135155E0	9.492925644E0	-2.249253243E-1
1.664673523E1	1.371685624E0	9.364909172E0	-3.098705411E-1
1.665513825E1	1.546959877E0	9.241679192E0	-2.883351147E-1
1.666354127E1	1.640878081E0	9.117850304E0	-2.775674164E-1
1.667194429E1	1.612762451E0	9.052047729E0	-1.860419661E-1
1.668034731E1	1.387238979E0	8.993423462E0	-1.866401732E-1
1.668875033E1	1.197607756E0	9.000602722E0	-1.980060786E-1
1.669715335E1	1.115055323E0	9.067003250E0	-4.546363056E-1
1.670555637E1	1.147358418E0	9.187242508E0	-5.186443329E-1
1.671395939E1	1.077966571E0	9.314062119E0	-5.455635786E-1
1.672236241E1	1.071984529E0	9.510273933E0	-6.945167780E-1
1.673076544E1	1.320239902E0	9.933204651E0	-5.210371017E-1
1.673916846E1	1.691725612E0	1.047936630E1	-4.570291340E-1
1.674757148E1	1.808973908E0	1.102732277E1	-1.788634956E-1
1.675597450E1	1.763510346E0	1.157827091E1	2.093719840E-1
1.676437752E1	1.793420553E0	1.198325539E1	3.678964674E-1
1.677278054E1	1.962114573E0	1.178764248E1	9.990034252E-2
1.678118356E1	2.166102648E0	1.110509014E1	-1.615155339E-1
1.678958658E1	2.317448616E0	1.027358437E1	-4.833501875E-1
1.679798960E1	2.415554523E0	9.756733894E0	-7.034898400E-1
1.680639262E1	2.616551638E0	9.628120422E0	-7.962117195E-1
1.681479564E1	3.059223652E0	9.764511108E0	-9.451649189E-1
1.682319866E1	3.607778311E0	1.002592659E1	-1.005583763E0
1.683160169E1	3.982254982E0	1.019342422E1	-9.056833982E-1
1.684000471E1	3.939782381E0	1.018146038E1	-7.615157962E-1
1.684840773E1	3.528815269E0	1.001396275E1	-6.592226624E-1
1.685681075E1	3.106482029E0	9.857233047E0	-5.700899959E-1
1.686521377E1	2.877369165E0	9.801001549E0	-5.246263742E-1
1.687361679E1	2.743371248E0	9.809376717E0	-5.258227587E-1
1.688201981E1	2.677568436E0	9.757930756E0	-4.061816335E-1
1.689042283E1	2.797209740E0	9.705886841E0	-4.671986103E-1
1.689882585E1	2.944368362E0	9.708279610E0	-4.630111754E-1
1.690722887E1	3.035893679E0	9.777072906E0	-4.289134443E-1
1.691563189E1	3.088535786E0	9.868598938E0	-4.743770957E-1
1.692403491E1	3.024527788E0	9.962516785E0	-5.264210105E-1
1.693243794E1	2.778067112E0	9.930811882E0	-4.522434771E-1
1.694084096E1	2.316850424E0	9.818947792E0	-3.529413342E-1
1.694924398E1	1.402194023E0	9.911071777E0	-2.662015259E-1
1.695764700E1	-3.559323549E-1	9.548559189E0	2.147558331E-1
1.696605002E1	-2.035693884E0	8.684749603E0	2.015953064E-1
1.697445304E1	-2.629113913E0	8.183453560E0	-3.320041299E-1
1.698285606E1	-2.088335991E0	8.547760963E0	-7.788637877E-1
1.699125908E1	-1.282552958E0	9.046664238E0	-8.045865893E-1
1.699966210E1	-6.005984545E-1	9.397212982E0	-7.058826685E-1
1.700806512E1	-3.128615618E-1	9.620942116E0	-6.484549642E-1
1.701646814E1	-2.715853751E-1	9.534799576E0	-7.423732281E-1
1.702487116E1	-1.513460279E-1	9.488140106E0	-1.115653515E0
1.703327418E1	-1.040877849E-1	9.566504478E0	-1.478166223E0
1.704167721E1	2.991028363E-3	9.763314247E0	-1.732403636E0
1.705008023E1	1.561316848E-1	1.000678444E1	-1.553540111E0
1.705848325E1	3.595215976E-1	9.982257843E0	-1.502094388E0
1.706688627E1	5.623133183E-1	9.818947792E0	-1.186241865E0
1.707528929E1	9.696913958E-1	9.922437668E0	-1.305284739E0
1.708369231E1	6.849454641E-1	9.980463028E0	-1.508674622E0
1.709209533E1	1.591227055E-1	9.782457352E0	-1.870589137E0
1.710049835E1	8.093722463E-1	9.970891953E0	-2.088335991E0
1.710890137E1	2.090130568E0	1.037647533E1	-1.628315806E0
1.711730439E1	3.003590584E0	1.074018478E1	-1.507478237E0
1.712570741E1	2.489133835E0	1.072762203E1	-1.393221021E0
1.713411044E1	1.097109199E0	9.969097137E0	-1.381855130E0
1.714251346E1	1.136590764E-1	9.170493126E0	-1.289133191E0
1.715091648E1	3.936193287E-1	9.029914856E0	-1.441675663E0
1.715931950E1	1.275374413E0	9.982855797E0	-1.289133191E0
1.716772252E1	1.212562919E0	1.036151981E1	-1.049252748E0
1.717612554E1	8.303094506E-1	1.006959629E1	-9.696913958E-1
1.718452856E1	5.066801906E-1	9.766903877E0	-1.189831018E0
1.719293158E1	2.213360928E-2	9.436096191E0	-1.171884894E0
1.720133460E1	-3.224328458E-1	9.288937569E0	-1.128814101E0
1.720973762E1	-2.745763958E-1	9.497113228E0	-1.000798106E0
1.721814064E1	1.417747438E-1	9.883553505E0	-7.190431952E-1
1.722654366E1	3.966103494E-1	1.017129040E1	-6.658028960E-1
1.723494668E1	3.882354796E-1	1.021077251E1	-7.130611539E-1
1.724334971E1	2.512463629E-1	1.013479996E1	-7.495517135E-1
1.725175273E1	8.793623000E-2	1.001456070E1	-8.602197170E-1
1.726015575E1	8.015955985E-2	1.003789139E1	-1.051645517E0
1.726855877E1	2.440679073E-1	1.022154045E1	-1.194616675E0
1.727696179E1	5.455635786E-1	1.046201897E1	-1.194616675E0
1.728536481E1	9.655039310E-1	1.077547836E1	-1.234696507E0
1.729376783E1	1.085743308E0	1.077727318E1	-9.355936646E-1
1.730217085E1	1.094716311E0	1.053141022E1	-7.244270444E-1
1.731057387E1	1.025922656E0	1.032921696E1	-8.602197170E-1
1.731897689E1	1.011565804E0	1.028554821E1	-1.135992527E0
1.732737991E1	1.226919770E0	1.025743294E1	-1.396810174E0
1.733578294E1	1.696511269E0	1.037767220E1	-1.770688772E0
1.734418596E1	2.253440619E0	1.058225822E1	-2.081157446E0
