"Time (s)"	"Gyroscope x (rad/s)"	"Gyroscope y (rad/s)"	"Gyroscope z (rad/s)"
2.556001800E-2	5.650337320E-3	-9.651386738E-2	-1.114796288E-2
3.396303900E-2	5.650337320E-3	-9.651386738E-2	-1.114796288E-2
4.236606000E-2	5.650337320E-3	-9.651386738E-2	-1.114796288E-2
5.076908100E-2	5.650337320E-3	-9.651386738E-2	-1.114796288E-2
5.917210200E-2	5.650337320E-3	-9.651386738E-2	-1.114796288E-2
6.757512200E-2	5.650337320E-3	-9.651386738E-2	-1.114796288E-2
7.597814300E-2	5.650337320E-3	-9.651386738E-2	-1.114796288E-2
8.438116400E-2	5.650337320E-3	-9.651386738E-2	-1.114796288E-2
9.278418500E-2	5.650337320E-3	-9.651386738E-2	-1.114796288E-2
1.011872060E-1	5.039489828E-3	-2.947338112E-2	-1.679830020E-3
1.095902270E-1	6.108472589E-3	-1.557660475E-2	1.527118147E-3
1.179932470E-1	4.734066315E-3	-6.108472589E-3	1.679830020E-3
1.263962680E-1	4.123218823E-3	-4.275931045E-3	1.985253533E-3
1.347992890E-1	3.359660041E-3	-3.512371797E-3	4.123218823E-3
1.432023100E-1	3.512371797E-3	-1.374406274E-3	3.970507067E-3
1.516053310E-1	3.512371797E-3	-2.901524538E-3	5.803049076E-3
1.600083520E-1	3.054236295E-3	-6.566607859E-3	6.566607859E-3
1.684113720E-1	1.221694518E-3	-7.482878864E-3	5.955760833E-3
1.768143930E-1	4.275931045E-3	-1.053711493E-2	3.970507067E-3
1.852174140E-1	7.941014133E-3	-1.099525020E-2	1.374406274E-3
1.936204350E-1	6.719320081E-3	-1.527118124E-2	1.527118147E-4
2.020234560E-1	2.596100792E-3	-2.076880634E-2	-1.221694518E-3
2.104264770E-1	1.679830020E-3	-2.122694254E-2	-2.443389036E-3
2.188294970E-1	6.108472589E-4	-1.786728203E-2	-4.886778072E-3
2.272325180E-1	0.000000000E0	-1.832541823E-2	-6.261184346E-3
2.356355390E-1	1.527118147E-4	-1.939439960E-2	-8.399149403E-3
2.440385600E-1	1.374406274E-3	-2.137965336E-2	-7.330167107E-3
2.524415810E-1	3.054236295E-3	-2.321219631E-2	-7.330167107E-3
2.608446020E-1	2.596100792E-3	-2.321219631E-2	-7.177455351E-3
2.692476220E-1	6.108472589E-4	-2.199050039E-2	-2.748812549E-3
2.776506430E-1	1.221694518E-3	-2.031067200E-2	-1.068982761E-3
2.860536640E-1	2.443389036E-3	-1.908897609E-2	-3.359660041E-3
2.944566850E-1	3.054236295E-4	-1.496575773E-2	-2.443389036E-3
3.028597060E-1	4.581354442E-4	-1.114796288E-2	-4.581354442E-4
3.112627270E-1	3.054236295E-4	-6.566607859E-3	0.000000000E0
3.196657470E-1	-1.527118147E-4	-5.192201585E-3	1.221694518E-3
3.280687680E-1	9.162708884E-4	-9.315420873E-3	0.000000000E0
3.364717890E-1	3.054236295E-3	-1.282779220E-2	-3.665083554E-3
3.448748100E-1	-3.054236295E-4	-1.206423342E-2	-3.970507067E-3
3.532778310E-1	-1.374406274E-3	-3.054236295E-4	-7.177455351E-3
3.616808520E-1	7.635590737E-4	9.468132630E-3	-9.315420873E-3
3.700838720E-1	2.290677279E-3	1.160609815E-2	-7.635590620E-3
3.784868930E-1	3.359660041E-3	5.344913341E-3	-5.803049076E-3
3.868899140E-1	1.374406274E-3	-2.137965523E-3	-3.817795310E-3
3.952929350E-1	3.054236295E-3	-1.068982761E-3	-1.679830020E-3
4.036959560E-1	1.221694518E-3	4.123218823E-3	0.000000000E0
4.120989770E-1	-3.054236295E-4	1.954711229E-2	-2.443389036E-3
4.205019970E-1	-1.679830020E-3	4.245388508E-2	-1.114796288E-2
4.289050180E-1	1.832541777E-3	5.909947306E-2	-9.773556143E-3
4.373080390E-1	3.665083554E-3	5.650337040E-2	-5.497625098E-3
4.457110600E-1	9.009997360E-3	2.901524492E-2	-1.221694518E-3
4.541140810E-1	9.926267900E-3	-3.054236295E-4	9.162708884E-4
4.625171020E-1	1.313321572E-2	-1.863084175E-2	4.734066315E-3
4.709201220E-1	1.236965694E-2	-1.924168877E-2	8.551862091E-3
4.793231430E-1	1.435491070E-2	-1.191152167E-2	6.413896102E-3
4.877261640E-1	1.450762246E-2	-3.512371797E-3	7.635590620E-3
4.961291850E-1	1.588202827E-2	4.428642802E-3	8.857285604E-3
5.045322060E-1	2.031067200E-2	-7.635590737E-4	1.114796288E-2
5.129352270E-1	2.229592577E-2	-6.566607859E-3	1.328592747E-2
5.213382470E-1	2.229592577E-2	-1.191152167E-2	1.252236869E-2
5.297412680E-1	2.565558441E-2	-1.160609815E-2	1.267508045E-2
5.381442890E-1	2.458660305E-2	-3.206948051E-3	1.175880991E-2
5.465473100E-1	2.733541466E-2	7.177455351E-3	9.620844387E-3
5.549503310E-1	2.687728032E-2	1.099525020E-2	9.009997360E-3
5.633533520E-1	2.657185495E-2	7.635590620E-3	9.009997360E-3
5.717563720E-1	2.626643144E-2	7.635590737E-4	7.788302377E-3
5.801593930E-1	2.137965336E-2	-6.413896102E-3	4.886778072E-3
5.885624140E-1	2.229592577E-2	-4.581354558E-3	7.635590737E-4
5.969654350E-1	2.428117767E-2	-2.443389036E-3	3.970507067E-3
6.053684560E-1	2.367033064E-2	6.872031838E-3	2.137965523E-3
6.137714770E-1	2.855710872E-2	1.145338640E-2	1.679830020E-3
6.221744970E-1	2.916795574E-2	5.192201585E-3	2.901524538E-3
6.305775180E-1	2.947338112E-2	-3.206948051E-3	1.679830020E-3
6.389805390E-1	2.916795574E-2	-8.704573847E-3	2.901524538E-3
6.473835600E-1	2.794626169E-2	-1.084253844E-2	3.359660041E-3
6.557865810E-1	2.687728032E-2	-1.084253844E-2	4.275931045E-3
6.641896020E-1	2.794626169E-2	-5.497625098E-3	5.344913341E-3
6.725926220E-1	2.550287358E-2	-1.374406274E-3	5.344913341E-3
6.809956430E-1	2.305948362E-2	2.596100792E-3	4.123218823E-3
6.893986640E-1	2.489202656E-2	2.443389036E-3	6.108472589E-3
6.978016850E-1	2.473931387E-2	7.024743594E-3	5.955760833E-3
7.062047060E-1	2.779355086E-2	1.328592747E-2	5.344913341E-3
7.146077270E-1	2.779355086E-2	1.267508045E-2	4.123218823E-3
7.230107470E-1	3.115320951E-2	6.413896102E-3	9.162708884E-4
7.314137680E-1	3.466558084E-2	1.527118147E-4	1.527118147E-4
7.398167890E-1	3.665083647E-2	-7.177455351E-3	-6.108472589E-4
7.482198100E-1	3.680354729E-2	-1.038440317E-2	-6.108472589E-4
7.566228310E-1	3.863608837E-2	-1.236965694E-2	-3.206948051E-3
7.650258520E-1	3.909422457E-2	-1.099525020E-2	-3.054236295E-3
7.734288720E-1	3.649812192E-2	-8.093725890E-3	-6.108472589E-4
7.818318930E-1	3.436015919E-2	-4.734066315E-3	-6.108472589E-4
7.902349140E-1	3.481829539E-2	-3.817795310E-3	-0.000000000E0
7.986379350E-1	3.268032894E-2	-3.054236295E-3	4.581354442E-4
8.070409560E-1	2.947338112E-2	4.581354558E-3	-6.108472589E-4
8.154439770E-1	3.054236248E-2	1.786728203E-2	6.108472589E-4
8.238469970E-1	3.130592033E-2	3.054236248E-2	1.068982761E-3
8.322500180E-1	3.268032894E-2	3.069507517E-2	1.985253533E-3
8.406530390E-1	3.481829539E-2	2.626643144E-2	6.261184346E-3
8.490560600E-1	3.329117596E-2	1.817270555E-2	9.162709117E-3
8.574590810E-1	3.298575059E-2	6.872031838E-3	1.313321572E-2
8.658621020E-1	3.390202299E-2	6.413896102E-3	1.298050396E-2
8.742651220E-1	3.298575059E-2	2.244863659E-2	9.620844387E-3
8.826681430E-1	3.023693897E-2	4.795150831E-2	8.246437646E-3
8.910711640E-1	2.855710872E-2	6.872031838E-2	2.748812549E-3
8.994741850E-1	2.947338112E-2	8.643488586E-2	-3.054236295E-4
9.078772060E-1	2.886253223E-2	9.819369763E-2	7.635590737E-4
9.162802270E-1	3.100049868E-2	9.743013978E-2	1.679830020E-3
9.246832470E-1	3.558185324E-2	9.101624042E-2	-1.679830020E-3
9.330862680E-1	4.123219103E-2	8.551861346E-2	-5.803049076E-3
9.414892890E-1	4.428642616E-2	8.093725890E-2	-1.267508045E-2
9.498923100E-1	5.848862603E-2	7.650861889E-2	-2.168507688E-2
9.582953310E-1	7.421794534E-2	7.040014863E-2	-2.764083818E-2
9.666983520E-1	8.842013776E-2	5.589252338E-2	-3.222219273E-2
9.751013720E-1	1.017060652E-1	3.237490356E-2	-3.817795217E-2
9.835043930E-1	1.104106456E-1	8.704573847E-3	-4.367557913E-2
9.919074140E-1	1.221694499E-1	1.221694518E-3	-4.810422286E-2
1.000310435E0	1.314848661E-1	1.221694518E-3	-4.795150831E-2
1.008713456E0	1.394258887E-1	6.566607859E-3	-4.550812021E-2
1.017116477E0	1.511846930E-1	1.175880991E-2	-4.413371533E-2
1.025519497E0	1.611109674E-1	1.695101149E-2	-3.909422457E-2
1.033922518E0	1.728697717E-1	2.015795931E-2	-3.252761811E-2
1.042325539E0	1.875301152E-1	2.809897438E-2	-2.489202656E-2
1.050728560E0	2.028012872E-1	4.825693369E-2	-1.435491070E-2
1.059131581E0	2.186833173E-1	7.192726433E-2	1.985253533E-3
1.067534602E0	2.339545041E-1	1.017060652E-1	2.092151903E-2
1.075937622E0	2.423536479E-1	1.441599578E-1	4.764608666E-2
1.084340643E0	2.405211031E-1	1.855448484E-1	8.490777016E-2
1.092743664E0	2.257080674E-1	2.156290859E-1	1.298050433E-1
1.101146685E0	2.064663768E-1	2.357870489E-1	1.739387512E-1
1.109549706E0	1.892099380E-1	2.460187376E-1	2.063136548E-1
1.117952727E0	1.742441803E-1	2.334963679E-1	2.353289127E-1
1.126355747E0	1.605001241E-1	1.953184158E-1	2.521272004E-1
1.134758768E0	1.452289373E-1	1.412584335E-1	2.542651594E-1
1.143161789E0	1.310267299E-1	6.566607952E-2	2.560977042E-1
1.151564810E0	1.215586066E-1	-3.771981969E-2	2.612899244E-1
1.159967831E0	1.152974218E-1	-1.606528312E-1	2.675510943E-1
1.168370852E0	1.038440317E-1	-2.901524603E-1	2.606790662E-1
1.176773872E0	8.307522535E-2	-4.262186885E-1	2.502946556E-1
1.185176893E0	6.795676053E-2	-5.722111464E-1	2.397575527E-1
1.193579914E0	6.123743951E-2	-6.997255087E-1	2.287622988E-1
1.201982935E0	4.123219103E-2	-7.687512636E-1	2.108950168E-1
1.210385956E0	3.069507517E-2	-7.947123051E-1	1.856975704E-1
1.218788977E0	1.527118147E-3	-7.829535007E-1	1.608055383E-1
1.227191997E0	3.054236295E-3	-7.800519466E-1	1.511846930E-1
1.235595018E0	2.687728032E-2	-7.988355160E-1	1.655396074E-1
1.243998039E0	2.764083818E-2	-7.904363275E-1	1.734806150E-1
1.252401060E0	3.176405653E-2	-7.386670709E-1	1.713426560E-1
1.260804081E0	4.947862774E-2	-6.265766025E-1	1.769929975E-1
1.269207102E0	6.856760383E-2	-4.421007037E-1	1.911951900E-1
1.277610122E0	4.672981426E-2	-2.057028115E-1	1.963873953E-1
1.286013143E0	-1.542389300E-2	4.153761268E-2	1.892099380E-1
1.294416164E0	-6.001574174E-2	2.399102598E-1	1.772984117E-1
1.302819185E0	-6.245913357E-2	3.988832533E-1	1.759240031E-1
1.311222206E0	-5.665608495E-2	5.129590034E-1	1.992889196E-1
1.319625227E0	-6.184828654E-2	5.755708218E-1	2.339545041E-1
1.328028247E0	-7.956285775E-2	5.812211633E-1	2.567085624E-1
1.336431268E0	-8.979454637E-2	5.438067913E-1	2.750339806E-1
1.344834289E0	-9.559759498E-2	5.097520351E-1	2.884726226E-1
1.353237310E0	-1.133121699E-1	5.114318728E-1	3.019112647E-1
1.361640331E0	-1.189625040E-1	5.314370990E-1	3.107685447E-1
1.370043352E0	-1.068982705E-1	5.303681493E-1	3.231382072E-1
1.378446372E0	-9.590301663E-2	4.831801951E-1	3.431434333E-1
1.386849393E0	-9.162709117E-2	4.112529159E-1	3.610107303E-1
1.395252414E0	-9.116895497E-2	3.474193811E-1	3.735330999E-1
1.403655435E0	-8.979454637E-2	2.991624475E-1	3.845283389E-1
1.412058456E0	-7.910472155E-2	2.747285664E-1	3.929274976E-1
1.420461477E0	-7.498150319E-2	2.565558553E-1	4.034646153E-1
1.428864497E0	-7.650861889E-2	2.356343269E-1	4.101839364E-1
1.437267518E0	-7.284353673E-2	2.217375487E-1	4.014793634E-1
1.445670539E0	-6.551336497E-2	1.974563748E-1	3.907895386E-1
1.454073560E0	-6.169557199E-2	1.450762302E-1	3.817795515E-1
1.462476581E0	-6.200099736E-2	1.050657257E-1	3.640649617E-1
1.470879602E0	-7.223268598E-2	1.082726792E-1	3.376458287E-1
1.479282622E0	-8.246438205E-2	1.220167428E-1	3.055763543E-1
1.487685643E0	-9.177979827E-2	1.353026628E-1	2.733541429E-1
1.496088664E0	-1.026223376E-1	1.496575773E-1	2.353289127E-1
1.504491685E0	-1.223221645E-1	1.693574041E-1	1.980672181E-1
1.512894706E0	-1.345391124E-1	1.957765520E-1	1.634016484E-1
1.521297727E0	-1.342336833E-1	2.041756958E-1	1.333174109E-1
1.529700747E0	-1.243074164E-1	1.806580722E-1	1.050657257E-1
1.538103768E0	-1.130067408E-1	1.302631795E-1	7.666133344E-2
1.546506789E0	-1.014006436E-1	8.154810965E-2	5.054761097E-2
1.554909810E0	-8.811471611E-2	4.337015375E-2	2.596100792E-2
1.563312831E0	-7.314895838E-2	3.665083554E-3	1.985253533E-3
1.571715852E0	-5.512896553E-2	-2.779355086E-2	-2.794626169E-2
1.580118872E0	-3.833066672E-2	-4.199574888E-2	-5.222744122E-2
1.588521893E0	-1.801999472E-2	-4.062134400E-2	-7.070557028E-2
1.596924914E0	-4.581354442E-4	-4.718795046E-2	-8.078455180E-2
1.605327935E0	1.924168877E-2	-7.925742865E-2	-8.628217876E-2
1.613730956E0	4.001049697E-2	-1.220167428E-1	-8.933641016E-2
1.622133977E0	6.123743951E-2	-1.461452097E-1	-9.330692142E-2
1.630536997E0	8.475505561E-2	-1.629435122E-1	-8.857285231E-2
1.638940018E0	1.023169160E-1	-1.728697717E-1	-8.047912270E-2
1.647343039E0	1.183516532E-1	-1.899735034E-1	-7.177454978E-2
1.655746060E0	1.320957243E-1	-2.121167034E-1	-6.322269142E-2
1.664149081E0	1.409530044E-1	-2.336490750E-1	-5.375456065E-2
1.672552102E0	1.441599578E-1	-2.513636351E-1	-4.367557913E-2
1.680955122E0	1.452289373E-1	-2.480039895E-1	-3.206948191E-2
1.689358143E0	1.485885978E-1	-2.296785712E-1	-1.511846948E-2
1.697761164E0	1.493521482E-1	-2.195995897E-1	4.581354558E-3
1.706164185E0	1.482831687E-1	-2.102841735E-1	1.557660475E-2
1.714567206E0	1.496575773E-1	-1.945548505E-1	2.397575416E-2
1.722970227E0	1.539335102E-1	-1.698155403E-1	3.558185324E-2
1.731373247E0	1.527118087E-1	-1.484358907E-1	4.734066129E-2
1.739776268E0	1.556133330E-1	-1.294996142E-1	5.787777901E-2
1.748179289E0	1.571404636E-1	-1.127013192E-1	6.902574003E-2
1.756582310E0	1.589729935E-1	-9.529217333E-2	8.292251825E-2
1.764985331E0	1.627907902E-1	-8.307522535E-2	9.987352788E-2
1.773388352E0	1.690519750E-1	-7.559234649E-2	1.186570823E-1
1.781791372E0	1.736333370E-1	-7.055285573E-2	1.360662282E-1
1.790194393E0	1.800472289E-1	-6.719319522E-2	1.519482583E-1
1.798597414E0	1.870719790E-1	-4.688252881E-2	1.676775664E-1
1.807000435E0	1.866138428E-1	-3.970507067E-3	1.827960461E-1
1.815403456E0	1.930277348E-1	3.100049868E-2	1.956238300E-1
1.823806477E0	2.024958730E-1	5.360184610E-2	2.069245130E-1
1.832209497E0	2.128802687E-1	6.093201414E-2	2.163926363E-1
1.840612518E0	2.234173864E-1	5.589252338E-2	2.290677279E-1
1.849015539E0	2.295258641E-1	4.840964451E-2	2.397575527E-1
1.857418560E0	2.383831441E-1	3.542914242E-2	2.495311052E-1
1.865821581E0	2.501419485E-1	2.061609551E-2	2.559449971E-1
1.874224602E0	2.594573796E-1	1.343864016E-2	2.654131353E-1
1.882627622E0	2.683146596E-1	1.221694518E-2	2.727433145E-1
1.891030643E0	2.768665254E-1	-4.123218823E-3	2.777827978E-1
1.899433664E0	2.915268540E-1	-4.107947648E-2	2.872509360E-1
1.907836685E0	3.031329513E-1	-7.345438004E-2	2.962609231E-1
1.916239706E0	3.115321100E-1	-1.078145429E-1	3.055763543E-1
1.924642727E0	3.202366829E-1	-1.406475753E-1	3.133646548E-1
1.933045747E0	3.248180151E-1	-1.446180940E-1	3.168770075E-1
1.941448768E0	3.298575282E-1	-1.285833418E-1	3.173351586E-1
1.949851789E0	3.411581814E-1	-1.137702987E-1	3.237490356E-1
1.958254810E0	3.516952991E-1	-1.009425074E-1	3.307738006E-1
1.966657831E0	3.622324169E-1	-9.544488788E-2	3.345915973E-1
1.975060852E0	3.811686933E-1	-9.834641218E-2	3.316900730E-1
1.983463872E0	4.085040987E-1	-1.062874198E-1	3.278722763E-1
1.991866893E0	4.399627447E-1	-1.325538605E-1	3.261924386E-1
2.000269914E0	4.645493329E-1	-1.701209545E-1	3.289412558E-1
2.008672935E0	4.793623984E-1	-2.339545041E-1	3.344388604E-1
2.017075956E0	4.818057716E-1	-3.202366829E-1	3.371876776E-1
2.025478977E0	4.689779878E-1	-3.828485310E-1	3.417690396E-1
2.033881997E0	4.508052766E-1	-4.184303582E-1	3.426853120E-1
2.042285018E0	4.300364852E-1	-4.419479966E-1	3.339807391E-1
2.050688039E0	4.242334068E-1	-4.657710493E-1	3.197785318E-1
2.059091060E0	4.190412164E-1	-4.813476503E-1	2.938175201E-1
2.067494081E0	4.039227366E-1	-5.141806602E-1	2.738122940E-1
2.075897102E0	3.868190348E-1	-5.372401476E-1	2.675510943E-1
2.084300122E0	3.646758199E-1	-5.523586273E-1	2.495311052E-1
2.092703143E0	3.321481943E-1	-5.645755529E-1	2.241809368E-1
2.101106164E0	2.780882120E-1	-5.906893015E-1	1.982199401E-1
2.109509185E0	2.496838123E-1	-6.639909744E-1	2.024958730E-1
2.117912206E0	2.518217862E-1	-7.446228266E-1	2.272351831E-1
2.126315227E0	2.661767006E-1	-8.391514421E-1	2.756448388E-1
2.134718247E0	2.420482337E-1	-9.437590241E-1	3.507790267E-1
2.143121268E0	2.079934925E-1	-9.994988441E-1	4.100312293E-1
2.151524289E0	1.791309565E-1	-9.762866497E-1	4.708105326E-1
2.159927310E0	1.400367320E-1	-9.144383669E-1	5.337277651E-1
2.168330331E0	1.108687744E-1	-8.176190853E-1	5.798467398E-1
2.176733352E0	8.658760041E-2	-7.444701195E-1	6.255075932E-1
2.185136372E0	6.780404598E-2	-6.881194115E-1	6.678087711E-1
2.193539393E0	3.237490356E-2	-6.394043565E-1	7.084301114E-1
2.201942414E0	-3.054236295E-3	-5.903838873E-1	7.432484031E-1
2.210345435E0	-2.687728032E-2	-5.289937258E-1	7.609629631E-1
2.218748456E0	-4.902049154E-2	-4.405735731E-1	7.569924593E-1
2.227151477E0	-6.581879407E-2	-3.074088693E-1	7.397360206E-1
2.235554497E0	-8.490777016E-2	-9.788827598E-2	7.024743557E-1
2.243957518E0	-9.300149232E-2	1.608055383E-1	6.575770974E-1
2.252360539E0	-9.804098308E-2	3.889569938E-1	6.287145615E-1
2.260763560E0	-1.075091213E-1	5.541911721E-1	6.021426916E-1
2.269166581E0	-1.204896197E-1	6.581879258E-1	5.865660906E-1
2.277569602E0	-1.279724985E-1	6.959077120E-1	5.917583108E-1
2.285972622E0	-1.339282542E-1	6.539120078E-1	6.105418205E-1
2.294375643E0	-1.371352077E-1	5.622848868E-1	6.216897964E-1
2.302778664E0	-1.374406368E-1	4.340069890E-1	6.235223413E-1
2.311181685E0	-1.337755471E-1	2.832804024E-1	6.134433746E-1
2.319584706E0	-1.302631795E-1	1.262926757E-1	5.790832043E-1
2.327987727E0	-1.230857223E-1	-1.634016447E-2	5.311316848E-1
2.336390747E0	-1.201841980E-1	-1.249182671E-1	4.799732268E-1
2.344793768E0	-1.211004704E-1	-1.921114624E-1	4.147652984E-1
2.353196789E0	-1.328592747E-1	-2.125748396E-1	3.271087110E-1
2.361599810E0	-1.514901221E-1	-1.875301152E-1	2.189887464E-1
2.370002831E0	-1.698155403E-1	-1.269035190E-1	1.053711548E-1
2.378405852E0	-1.960819662E-1	-3.649812192E-2	8.704573847E-3
2.386808872E0	-2.328855246E-1	5.253286287E-2	-8.093725890E-2
2.395211893E0	-2.683146596E-1	1.388150454E-1	-1.742441803E-1
2.403614914E0	-2.974826097E-1	2.066190839E-1	-2.615953386E-1
2.412017935E0	-3.213056624E-1	2.382304370E-1	-3.445178568E-1
2.420420956E0	-3.400892019E-1	2.344126403E-1	-4.211791754E-1
2.428823977E0	-3.552076817E-1	1.956238300E-1	-4.935645759E-1
2.437226997E0	-3.738385141E-1	1.227803007E-1	-5.563291311E-1
2.445630018E0	-3.972034156E-1	2.947338112E-2	-6.187883019E-1
2.454033039E0	-4.210264683E-1	-6.734590977E-2	-6.791094542E-1
2.462436060E0	-4.437805414E-1	-1.556133330E-1	-7.394306064E-1
2.470839081E0	-4.595098495E-1	-2.310529798E-1	-8.040276766E-1
2.479242102E0	-4.714213610E-1	-2.916795611E-1	-8.612946272E-1
2.487645122E0	-4.836383164E-1	-3.307738006E-1	-9.139801860E-1
2.496048143E0	-4.946335554E-1	-3.416163325E-1	-9.613208771E-1
2.504451164E0	-5.143333673E-1	-3.319954872E-1	-1.015075445E0
2.512854185E0	-5.387672782E-1	-3.135173619E-1	-1.070967913E0
2.521257206E0	-5.583143830E-1	-2.962609231E-1	-1.123195410E0
2.529660227E0	-5.639647245E-1	-2.797680497E-1	-1.161831498E0
2.538063247E0	-5.656445622E-1	-2.573194206E-1	-1.190999389E0
2.546466268E0	-5.612159371E-1	-2.264716178E-1	-1.213906169E0
2.554869289E0	-5.531222224E-1	-1.853921413E-1	-1.229482770E0
2.563272310E0	-5.479300022E-1	-1.336228400E-1	-1.256054640E0
2.571675331E0	-5.257867575E-1	-8.780929446E-2	-1.269340634E0
2.580078352E0	-5.010474920E-1	-4.566083103E-2	-1.258803487E0
2.588481372E0	-5.144860744E-1	1.359135192E-2	-1.261246920E0
2.596884393E0	-5.233433843E-1	8.185353130E-2	-1.298203111E0
2.605287414E0	-5.089884996E-1	1.342336833E-1	-1.327371120E0
2.613690435E0	-5.115845799E-1	1.545443535E-1	-1.336533785E0
2.622093456E0	-5.160132051E-1	1.290414780E-1	-1.335464835E0
2.630496477E0	-4.903576374E-1	6.001574174E-2	-1.321720719E0
2.638899497E0	-4.596625566E-1	-3.115320951E-2	-1.306449533E0
2.647302518E0	-4.417952895E-1	-1.265980899E-1	-1.322789788E0
2.655705539E0	-4.031592011E-1	-2.402156889E-1	-1.341115117E0
2.664108560E0	-3.617742956E-1	-3.843756318E-1	-1.332715988E0
2.672511581E0	-3.341334462E-1	-5.222744346E-1	-1.321109891E0
2.680914602E0	-2.953446507E-1	-6.219952106E-1	-1.281099439E0
2.689317622E0	-2.751866877E-1	-7.134696245E-1	-1.210393786E0
2.697720643E0	-2.913741469E-1	-7.412631512E-1	-1.184738278E0
2.706123664E0	-2.602209449E-1	-7.207997441E-1	-1.192679286E0
2.714526685E0	-2.081461996E-1	-7.356128097E-1	-1.128387570E0
2.722929706E0	-1.988307834E-1	-8.489249945E-1	-9.761339426E-1
2.731332727E0	-1.940967143E-1	-1.019962192E0	-8.251019120E-1
2.739735747E0	-6.093201414E-2	-1.125486016E0	-7.024743557E-1
2.748138768E0	1.027750522E-1	-1.212379098E0	-5.251759291E-1
2.756541789E0	1.444653720E-1	-1.333326817E0	-3.035911024E-1
2.764944810E0	9.116895497E-2	-1.564379811E0	1.068982668E-2
2.773347831E0	-1.611109674E-1	-1.982046604E0	5.034908652E-1
2.781750852E0	-5.497625470E-1	-2.365353346E0	1.160915256E0
2.790153872E0	-7.621846795E-1	-2.169424057E0	1.690367103E0
2.798556893E0	-7.649334669E-1	-5.677825212E-1	1.262621284E0
2.806959914E0	-2.702999115E-1	1.959598064E0	3.229855001E-1
2.815362935E0	3.222219348E-1	3.835968018E0	2.144073844E-1
2.823765956E0	5.233433843E-1	4.300670147E0	1.068219185E0
2.832168977E0	2.803788781E-1	3.469154358E0	1.719076872E0
2.840571997E0	-2.733541466E-2	1.540098667E0	1.674485087E0
2.848975018E0	-1.174353883E-1	-3.826957941E-1	1.174353838E0
2.857378039E0	-5.787777901E-2	-1.294232607E0	8.964183331E-1
2.865781060E0	-9.468132257E-2	-1.375933409E0	1.087155461E0
2.874184081E0	-1.243074164E-1	-8.652651310E-1	1.251626015E0
2.882587102E0	-5.115845799E-2	-1.038440317E-1	1.071578860E0
2.890990122E0	3.817795310E-3	4.868452549E-1	6.763606071E-1
2.899393143E0	-4.886778072E-2	8.489249945E-1	3.817795515E-1
2.907796164E0	-1.180462316E-1	1.043937922E0	2.806843221E-1
2.916199185E0	-1.673721522E-1	9.808679819E-1	3.596363366E-1
2.924602206E0	-1.585148573E-1	5.697677732E-1	4.173613787E-1
2.933005227E0	-1.317902952E-1	8.383878320E-2	3.500154912E-1
2.941408247E0	-1.043021679E-1	-1.559187621E-1	2.681619525E-1
2.949811268E0	-9.071081877E-2	-9.422318637E-2	2.855710983E-1
2.958214289E0	-8.872556686E-2	3.512371704E-2	3.254288733E-1
2.966617310E0	-9.132166207E-2	1.288887709E-1	3.080197275E-1
2.975020331E0	-8.612946421E-2	1.679829955E-1	2.706053257E-1
2.983423352E0	-6.856760383E-2	1.811162084E-1	2.664821148E-1
2.991826372E0	-5.115845799E-2	1.667613089E-1	2.779355049E-1
3.000229393E0	-4.734066129E-2	1.076618284E-1	2.718270421E-1
3.008632414E0	-4.245388508E-2	2.336490713E-2	2.434226274E-1
3.017035435E0	-3.252761811E-2	-2.993151546E-2	2.185306102E-1
3.025438456E0	-1.740914769E-2	-5.329642445E-2	2.040229887E-1
3.033841477E0	-1.450762246E-2	-6.062658876E-2	1.856975704E-1
3.042244497E0	-1.511846948E-2	-7.925742865E-2	1.606528312E-1
3.050647518E0	-8.093725890E-3	-9.009996802E-2	1.386623234E-1
3.059050539E0	-2.443389036E-3	-9.987352788E-2	1.302631795E-1
3.067453560E0	-2.290677279E-3	-1.250709742E-1	1.259872466E-1
3.075856581E0	-4.123218823E-3	-1.574458778E-1	1.269035190E-1
3.084259602E0	-6.108472589E-3	-1.760767251E-1	1.362189353E-1
3.092662622E0	-5.803049076E-3	-1.765348613E-1	1.499630064E-1
3.101065643E0	-1.985253533E-3	-1.704263836E-1	1.575985998E-1
3.109468664E0	1.175880991E-2	-1.542389393E-1	1.676775664E-1
3.117871685E0	2.519745007E-2	-1.197260618E-1	1.869192570E-1
3.126274706E0	3.848337755E-2	-9.162709117E-2	2.115058601E-1
3.134677727E0	5.390727147E-2	-1.091889441E-1	2.376195788E-1
3.143080747E0	6.627693027E-2	-1.397313178E-1	2.588465214E-1
3.151483768E0	7.879929990E-2	-1.705790907E-1	2.817533016E-1
3.159886789E0	8.826743066E-2	-1.910424829E-1	3.072561622E-1
3.168289810E0	9.544488788E-2	-1.901262105E-1	3.306210935E-1
3.176692831E0	1.065928489E-1	-1.898207814E-1	3.559712470E-1
3.185095852E0	1.178935245E-1	-1.971509457E-1	3.771981895E-1
3.193498872E0	1.325538605E-1	-2.110477239E-1	3.939964771E-1
3.201901893E0	1.452289373E-1	-2.367033064E-1	4.095730782E-1
3.210304914E0	1.531699449E-1	-2.673983872E-1	4.256078303E-1
3.218707935E0	1.595838517E-1	-2.948864996E-1	4.384356141E-1
3.227110956E0	1.649287641E-1	-3.106158376E-1	4.442386627E-1
3.235513977E0	1.716480851E-1	-2.994678617E-1	4.375193417E-1
3.243916997E0	1.821851879E-1	-2.820587158E-1	4.274403751E-1
3.252320018E0	1.895153672E-1	-2.890834510E-1	4.213318825E-1
3.260723039E0	1.951656938E-1	-3.052709103E-1	4.132381678E-1
3.269126060E0	1.969982386E-1	-3.043546379E-1	4.100312293E-1
3.277529081E0	1.934858710E-1	-2.779355049E-1	4.185830951E-1
3.285932102E0	1.887518018E-1	-2.414373755E-1	4.308000207E-1
3.294335122E0	1.821851879E-1	-2.024958730E-1	4.381301999E-1
3.302738143E0	1.759240031E-1	-1.719534993E-1	4.501944184E-1
3.311141164E0	1.644706279E-1	-1.632489264E-1	4.701996744E-1
3.319544185E0	1.588202864E-1	-1.349972486E-1	4.895940721E-1
3.327947206E0	1.574458778E-1	-7.910472155E-2	5.077667832E-1
3.336350227E0	1.603474021E-1	-2.305948362E-2	5.213581324E-1
3.344753247E0	1.772984117E-1	-2.901524538E-3	5.390726924E-1
3.353156268E0	1.915006191E-1	-2.687728032E-2	5.644228458E-1
3.361559289E0	1.989834905E-1	-9.086353332E-2	5.984776020E-1
3.369962310E0	2.064663768E-1	-1.583621502E-1	6.279509664E-1
3.378365331E0	2.119639963E-1	-1.965401024E-1	6.528429985E-1
3.386768352E0	2.148655206E-1	-2.031067163E-1	6.707102656E-1
3.395171372E0	2.217375487E-1	-1.751604527E-1	6.812474132E-1
3.403574393E0	2.235700935E-1	-1.043021679E-1	6.867450476E-1
3.411977414E0	2.252499312E-1	-3.619270027E-2	6.919372082E-1
3.420380435E0	2.221956849E-1	2.443389036E-3	6.925480962E-1
3.428783456E0	2.347180545E-1	6.719320081E-3	7.001836896E-1
3.437186477E0	2.269297540E-1	6.261184346E-3	6.832326651E-1
3.445589497E0	2.214321345E-1	-7.666133344E-2	6.717792749E-1
3.453992518E0	2.235700935E-1	-2.050919682E-1	6.755970716E-1
3.462395539E0	2.405211031E-1	-3.785725832E-1	7.192726731E-1
3.470798560E0	2.440334857E-1	-5.376983285E-1	7.757760286E-1
3.479201581E0	2.420482337E-1	-6.299362183E-1	8.240329623E-1
3.487604602E0	2.302894145E-1	-6.470399499E-1	8.732061386E-1
3.496007622E0	2.261662036E-1	-5.885513425E-1	9.135220647E-1
3.504410643E0	2.215848416E-1	-4.706578255E-1	9.416210651E-1
3.512813664E0	2.166980654E-1	-3.138227761E-1	9.518527389E-1
3.521216685E0	2.047865391E-1	-1.516428292E-1	9.460496902E-1
3.529619706E0	1.950129867E-1	-8.246437646E-3	9.333745837E-1
3.538022727E0	1.879882365E-1	1.094943732E-1	9.190196991E-1
3.546425747E0	1.809635013E-1	2.102841735E-1	9.077190161E-1
3.554828768E0	1.771457046E-1	3.191677034E-1	9.023740888E-1
3.563231789E0	1.666085869E-1	4.275930822E-1	9.109259844E-1
3.571634810E0	1.543916464E-1	5.167768002E-1	9.303203821E-1
3.580037831E0	1.507265568E-1	5.728220344E-1	9.327637553E-1
3.588440852E0	1.452289373E-1	5.845808387E-1	9.153546095E-1
3.596843872E0	1.351499557E-1	5.829010010E-1	8.809944391E-1
3.605246893E0	1.233911440E-1	5.581616759E-1	8.215895891E-1
3.613649914E0	1.061347127E-1	4.825693369E-1	7.389724851E-1
3.622052935E0	1.015533581E-1	3.662029207E-1	6.427640319E-1
3.630455956E0	9.009996802E-2	2.919849753E-1	4.378247857E-1
3.638858977E0	8.307522535E-2	3.830012381E-1	9.361234307E-2
3.647261997E0	1.114796251E-1	4.237752855E-1	-1.527118087E-1
3.655665018E0	8.658760041E-2	3.127537966E-1	-2.835858464E-1
3.664068039E0	2.183778957E-2	1.394258887E-1	-4.619532526E-1
3.672471060E0	-1.328592747E-2	-1.175880991E-2	-7.142331600E-1
3.680874081E0	-4.031591862E-2	-9.590301663E-2	-9.158127308E-1
3.689277102E0	-6.139015034E-2	-8.628217876E-2	-1.073411345E0
3.697680122E0	-8.750387281E-2	-5.543438718E-2	-1.173895717E0
3.706083143E0	-1.201841980E-1	-7.620319724E-2	-1.208255887E0
3.714486164E0	-1.583621502E-1	-1.382041872E-1	-1.249335408E0
3.722889185E0	-1.850867122E-1	-1.818797737E-1	-1.316223145E0
3.731292206E0	-2.021904439E-1	-2.034121305E-1	-1.368297815E0
3.739695227E0	-2.290677279E-1	-1.864611208E-1	-1.418234587E0
3.748098247E0	-2.518217862E-1	-1.472141892E-1	-1.470309377E0
3.756501268E0	-2.733541429E-1	-1.273616552E-1	-1.494895935E0
3.764904289E0	-2.764083743E-1	-1.116323397E-1	-1.523911238E0
3.773307310E0	-2.762556672E-1	-5.757235363E-2	-1.587744713E0
3.781710331E0	-2.735068500E-1	-4.734066129E-2	-1.611415029E0
3.790113352E0	-2.806843221E-1	-7.803573459E-2	-1.615843654E0
3.798516372E0	-2.841966748E-1	-1.191152185E-1	-1.606986403E0
3.806919393E0	-2.793098986E-1	-1.591257155E-1	-1.600419760E0
3.815322414E0	-2.791571915E-1	-2.322746664E-1	-1.574611545E0
3.823725435E0	-2.715215981E-1	-2.704526186E-1	-1.497950196E0
3.832128456E0	-2.677038014E-1	-3.168770075E-1	-1.479472041E0
3.840531477E0	-2.518217862E-1	-3.323009014E-1	-1.542542100E0
3.848934497E0	-2.541124523E-1	-2.913741469E-1	-1.572778940E0
3.857337518E0	-2.513636351E-1	-2.770192325E-1	-1.574764252E0
3.865740539E0	-2.602209449E-1	-2.426590770E-1	-1.580567241E0
3.874143560E0	-2.429644912E-1	-2.383831441E-1	-1.563463569E0
3.882546581E0	-2.287622988E-1	-2.420482337E-1	-1.541778445E0
3.890949602E0	-2.315111160E-1	-2.092151791E-1	-1.543611050E0
3.899352622E0	-2.257080674E-1	-1.835595965E-1	-1.539640546E0
3.907755643E0	-1.911951900E-1	-1.870719790E-1	-1.433658481E0
3.916158664E0	-2.063136548E-1	-2.159345001E-1	-1.265370131E0
3.924561685E0	-1.847812980E-1	-2.218902707E-1	-1.123500824E0
3.932964706E0	-1.542389393E-1	-1.701209545E-1	-1.054016948E0
3.941367727E0	-1.017060652E-1	-9.972081333E-2	-1.011868477E0
3.949770747E0	-4.382828996E-2	1.893626526E-2	-9.888089895E-1
3.958173768E0	-4.245388508E-2	1.966928244E-1	-9.918632507E-1
3.966576789E0	-6.001574174E-2	3.352024257E-1	-9.565867782E-1
3.974979810E0	-7.864658535E-2	2.861819267E-1	-8.840487003E-1
3.983382831E0	-8.093725890E-2	1.722589284E-1	-7.841751575E-1
3.991785852E0	-8.780929446E-2	-2.901524492E-2	-6.478035450E-1
4.000188872E0	-1.421747059E-1	-3.054236174E-1	-4.175141156E-1
4.008591893E0	-2.626643181E-1	-7.301151752E-1	-4.886778072E-2
4.016994914E0	-3.839175105E-1	-1.364174604E0	5.651864409E-1
4.025397935E0	6.841489673E-2	-2.083905458E0	1.555217147E0
4.033800956E0	3.359659910E-1	-2.400629759E0	2.308849812E0
4.042203977E0	-1.620272398E-1	-6.180247068E-1	1.529103398E0
4.050606997E0	-4.346178174E-1	2.436211586E0	6.734590977E-2
4.059010018E0	-6.413896102E-3	4.528210640E0	-4.399627447E-1
4.067413039E0	2.341072112E-1	4.783086777E0	8.750386834E-1
4.075816060E0	3.924693540E-2	2.867469788E0	1.900193095E0
4.084219081E0	-1.236965731E-1	7.192726433E-2	1.563616276E0
4.092622102E0	7.314895838E-2	-1.555980682E0	7.872294188E-1
4.101025122E0	4.031591862E-2	-1.917755008E0	6.803311110E-1
4.109428143E0	-1.522536725E-1	-1.382194638E0	1.056307673E0
4.117831164E0	-1.592784226E-1	-4.340069890E-1	1.228108406E0
4.126234185E0	-1.456870735E-1	2.611372173E-1	8.623636365E-1
4.134637206E0	-1.334701329E-1	5.619794726E-1	4.587462842E-1
4.143040227E0	-1.149920002E-1	6.907155514E-1	3.975088596E-1
4.151443247E0	-1.349972486E-1	6.171084642E-1	6.076403260E-1
4.159846268E0	-1.550024897E-1	1.814216375E-1	7.024743557E-1
4.168249289E0	-1.301104724E-1	-3.648285270E-1	6.140542030E-1
4.176652310E0	-8.689302206E-2	-6.365028620E-1	5.291464329E-1
4.185055331E0	-4.504998401E-2	-6.084038615E-1	5.499152541E-1
4.193458352E0	-5.192201585E-3	-4.285093546E-1	5.314370990E-1
4.201861372E0	2.260134928E-2	-2.003578991E-1	4.541649222E-1
4.210264393E0	3.588727489E-2	-5.833591148E-2	4.052971601E-1
4.218667414E0	4.001049697E-2	-2.809897438E-2	4.016320705E-1
4.227070435E0	4.474456236E-2	-7.864658535E-2	4.104893506E-1
4.235473456E0	4.978405312E-2	-1.945548505E-1	4.246915579E-1
4.243876477E0	6.032116711E-2	-3.087832928E-1	4.278984964E-1
4.252279497E0	6.933116168E-2	-3.497100472E-1	4.280512035E-1
4.260682518E0	6.658235192E-2	-3.373403847E-1	4.308000207E-1
4.269085539E0	8.078455180E-2	-3.336753249E-1	4.306473136E-1
4.277488560E0	8.414421231E-2	-3.246653080E-1	4.225535989E-1
4.285891581E0	8.582404256E-2	-3.136700690E-1	4.260659516E-1
4.294294602E0	7.299624383E-2	-3.200839758E-1	4.318690002E-1
4.302697622E0	8.047912270E-2	-3.326063454E-1	4.308000207E-1
4.311100643E0	8.674030751E-2	-3.327590525E-1	4.387410581E-1
4.319503664E0	9.284878522E-2	-2.958027720E-1	4.489727318E-1
4.327906685E0	9.468132257E-2	-2.377723008E-1	4.642439187E-1
4.336309706E0	9.483403713E-2	-1.864611208E-1	4.802786708E-1
4.344712727E0	9.575030953E-2	-1.692046970E-1	4.938700199E-1
4.353115747E0	9.345962852E-2	-1.721062213E-1	5.005893111E-1
4.361518768E0	9.727742523E-2	-1.688992679E-1	5.089884996E-1
4.369921789E0	9.972081333E-2	-1.673721522E-1	5.271611810E-1
4.378324810E0	9.529217333E-2	-1.630962193E-1	5.511369109E-1
4.386727831E0	8.933641016E-2	-1.588202864E-1	5.673243999E-1
4.395130852E0	8.414421231E-2	-1.534753740E-1	5.789304972E-1
4.403533872E0	8.185353130E-2	-1.488940120E-1	5.862606764E-1
4.411936893E0	8.399149776E-2	-1.380514801E-1	5.909947157E-1
4.420339914E0	8.170082420E-2	-1.349972486E-1	5.983248949E-1
4.428742935E0	8.857285231E-2	-1.458397806E-1	6.006155610E-1
4.437145956E0	9.605573118E-2	-1.656923145E-1	5.893148780E-1
4.445548977E0	1.044548824E-1	-1.647760421E-1	5.708367825E-1
4.453951997E0	1.062874198E-1	-1.322484314E-1	5.602996349E-1
4.462355018E0	1.136175916E-1	-1.003316641E-1	5.604523420E-1
4.470758039E0	1.171299592E-1	-6.673506647E-2	5.535803437E-1
4.479161060E0	1.240019947E-1	-5.344913527E-2	5.444176197E-1
4.487564081E0	1.275143623E-1	-5.253286287E-2	5.357130170E-1
4.495967102E0	1.383569092E-1	-4.871506989E-2	5.187620521E-1
4.504370122E0	1.551551968E-1	-5.222744122E-2	4.873034060E-1
4.512773143E0	1.701209545E-1	-4.031591862E-2	4.454603493E-1
4.521176164E0	1.881409585E-1	-2.672456764E-2	4.178195298E-1
4.529579185E0	2.082989216E-1	-3.252761811E-2	4.020902216E-1
4.537982206E0	2.286095917E-1	-6.673506647E-2	3.845283389E-1
4.546385227E0	2.423536479E-1	-1.605001241E-1	3.819322586E-1
4.554788247E0	2.531961799E-1	-2.768665254E-1	3.935383558E-1
4.563191268E0	2.643441558E-1	-3.596363366E-1	4.020902216E-1
4.571594289E0	2.721324563E-1	-4.085040987E-1	4.109475017E-1
4.579997310E0	2.765611112E-1	-4.219427407E-1	4.404208660E-1
4.588400331E0	2.777827978E-1	-3.723114133E-1	4.877615273E-1
4.596803352E0	2.736595869E-1	-2.927485406E-1	5.549547076E-1
4.605206372E0	2.637332976E-1	-2.058555335E-1	6.357392669E-1
4.613609393E0	2.538070381E-1	-1.220167428E-1	7.255338430E-1
4.622012414E0	2.487675399E-1	-1.542389300E-2	8.212841153E-1
4.630415435E0	2.428117841E-1	1.195733473E-1	9.283351302E-1
4.638818456E0	2.296785712E-1	2.684673667E-1	1.036455035E0
4.647221477E0	2.218902707E-1	4.172086716E-1	1.127624035E0
4.655624497E0	2.246390730E-1	5.506787896E-1	1.192984700E0
4.664027518E0	2.389939874E-1	6.569662094E-1	1.245823026E0
4.672430539E0	2.661767006E-1	7.194253802E-1	1.303242683E0
4.680833560E0	3.057290614E-1	7.640172243E-1	1.360509515E0
4.689236581E0	3.263451457E-1	8.009734750E-1	1.423274159E0
4.697639602E0	3.321481943E-1	8.713735938E-1	1.436712742E0
4.706042622E0	3.048127890E-1	1.019504070E0	1.333479524E0
4.714445643E0	2.444916219E-1	1.185654521E0	1.198634982E0
4.722848664E0	2.008160353E-1	1.255291104E0	1.100746751E0
4.731251685E0	1.840177327E-1	1.105328083E0	1.005454540E0
4.739654706E0	1.962346882E-1	8.081509471E-1	8.287670016E-1
4.748057727E0	2.550287247E-1	5.244123936E-1	5.470137000E-1
4.756460747E0	2.929012477E-1	2.938175201E-1	3.147390485E-1
4.764863768E0	2.657185495E-1	5.818320066E-2	1.710372269E-1
4.773266789E0	2.035648525E-1	-2.166980654E-1	8.551862091E-3
4.781669810E0	1.951656938E-1	-4.465293586E-1	-2.370087355E-1
4.790072831E0	1.864611208E-1	-5.225798488E-1	-4.972296655E-1
4.798475852E0	1.424801201E-1	-4.731011987E-1	-7.458444834E-1
4.806878872E0	1.012479365E-1	-4.011739492E-1	-9.756757617E-1
4.815281893E0	6.383354217E-2	-4.017847776E-1	-1.150225401E0
4.823684914E0	1.053711493E-2	-3.976615667E-1	-1.296676040E0
4.832087935E0	-6.108472496E-2	-3.710896969E-1	-1.425412059E0
4.840490956E0	-1.417165697E-1	-3.429907262E-1	-1.525132895E0
4.848893977E0	-2.073826492E-1	-2.890834510E-1	-1.650662065E0
4.857296997E0	-2.619007528E-1	-2.185306102E-1	-1.781841397E0
4.865700018E0	-3.052709103E-1	-1.081199646E-1	-1.929361105E0
4.874103039E0	-3.411581814E-1	-1.050657257E-1	-2.048170805E0
4.882506060E0	-3.686463237E-1	-2.214321308E-2	-2.109560966E0
4.890909081E0	-3.943018913E-1	1.073564067E-1	-2.172936440E0
4.899312102E0	-4.103366435E-1	1.421747059E-1	-2.263799906E0
4.907715122E0	-4.103366435E-1	1.498102844E-1	-2.319386959E0
4.916118143E0	-4.129327536E-1	1.826433241E-1	-2.331909418E0
4.924521164E0	-4.159869850E-1	7.788302377E-3	-2.401698828E0
4.932924185E0	-4.008685052E-1	1.068982761E-3	-2.418344259E0
4.941327206E0	-3.993414044E-1	-4.581354558E-3	-2.366880417E0
4.949730227E0	-3.904841244E-1	-8.399149403E-3	-2.371309042E0
4.958133247E0	-3.840702176E-1	-1.012479365E-1	-2.429186821E0
4.966536268E0	-3.797942698E-1	-1.769929975E-1	-2.455911398E0
4.974939289E0	-3.799470067E-1	-2.524326444E-1	-2.454842329E0
4.983342310E0	-3.807105422E-1	-3.356605768E-1	-2.431324720E0
4.991745331E0	-3.791834414E-1	-4.224008918E-1	-2.416358948E0
5.000148352E0	-3.645231128E-1	-4.798205197E-1	-2.402004242E0
5.008551372E0	-3.411581814E-1	-4.973823726E-1	-2.353594542E0
5.016954393E0	-3.411581814E-1	-4.889832437E-1	-2.257844210E0
5.025357414E0	-3.342861533E-1	-4.005630910E-1	-2.168202400E0
5.033760435E0	-2.730487287E-1	-2.979407609E-1	-2.076422453E0
5.042163456E0	-2.170034945E-1	-2.330382317E-1	-1.959750772E0
5.050566477E0	-1.998997629E-1	-2.542651594E-1	-1.796349049E0
5.058969497E0	-1.705790907E-1	-2.933593988E-1	-1.633710980E0
5.067372518E0	-1.122431830E-1	-3.106158376E-1	-1.464811683E0
5.075775539E0	-1.009425074E-1	-3.063398898E-1	-1.274532795E0
5.084178560E0	-1.081199646E-1	-3.260397315E-1	-1.016449809E0
5.092581581E0	-1.105633527E-1	-3.132119179E-1	-7.533273697E-1
5.100984602E0	-7.818844914E-2	-1.542389393E-1	-5.483881235E-1
5.109387622E0	-2.809897438E-2	1.328592747E-2	-3.307738006E-1
5.117790643E0	-3.512371797E-3	9.681928903E-2	-6.398624927E-2
5.126193664E0	-9.162709117E-3	6.139015034E-2	2.383831441E-1
5.134596685E0	-8.796200156E-2	-1.142284349E-1	5.783196688E-1
5.142999706E0	-2.466295809E-1	-4.078932703E-1	9.903361201E-1
5.151402727E0	-6.042806506E-1	-5.632011890E-1	1.263690233E0
5.159805747E0	-9.196305275E-1	-1.290414780E-1	1.221389055E0
5.168208768E0	-9.770501852E-1	9.466605186E-1	9.352071285E-1
5.176611789E0	-3.929274976E-1	2.271435499E0	5.732801557E-1
5.185014810E0	2.156290859E-1	3.110128880E0	8.038749695E-1
5.193417831E0	5.050179958E-1	2.823336124E0	1.608819008E0
5.201820852E0	4.153761268E-1	1.589424610E0	2.071993828E0
5.210223872E0	1.824906170E-1	8.063183725E-2	1.769471765E0
5.218626893E0	2.107422985E-2	-9.068027735E-1	1.273921967E0
5.227029914E0	-7.101099193E-2	-1.103037477E0	1.080283403E0
5.235432935E0	-1.611109674E-1	-6.455128193E-1	1.124264359E0
5.243835956E0	-1.950129867E-1	1.710372269E-1	1.061041713E0
5.252238977E0	-1.152974218E-1	8.431219459E-1	8.938222528E-1
5.260641997E0	-4.321744293E-2	1.046228647E0	7.449282408E-1
5.269045018E0	-6.291726977E-2	8.006680608E-1	6.386408210E-1
5.277448039E0	-1.020114943E-1	4.052971601E-1	5.847335458E-1
5.285851060E0	-1.317902952E-1	3.222219273E-2	5.931326747E-1
5.294254081E0	-1.093416587E-1	-2.234173864E-1	6.145123243E-1
5.302657102E0	-6.902574003E-2	-2.389939874E-1	5.909947157E-1
5.311060122E0	-3.115320951E-2	-4.062134400E-2	5.489989519E-1
5.319463143E0	-1.023169141E-2	2.137965411E-1	5.302154422E-1
5.327866164E0	-1.786728203E-2	3.906368315E-1	5.192201734E-1
5.336269185E0	-4.230117425E-2	4.737120569E-1	4.972296655E-1
5.344672206E0	-5.925218388E-2	4.598152637E-1	4.941754341E-1
5.353075227E0	-6.062658876E-2	3.813214004E-1	5.225798488E-1
5.361478247E0	-5.512896553E-2	2.803788781E-1	5.500679612E-1
5.369881268E0	-4.611896724E-2	2.092151791E-1	5.563291311E-1
5.378284289E0	-4.016320780E-2	1.655396074E-1	5.624375939E-1
5.386687310E0	-3.588727489E-2	1.478250325E-1	5.624375939E-1
5.395090331E0	-3.512371704E-2	1.447708011E-1	5.493044257E-1
5.403493352E0	-3.069507517E-2	1.606528312E-1	5.335750580E-1
5.411896372E0	-2.580829710E-2	1.939440072E-1	5.341859460E-1
5.420299393E0	-2.260134928E-2	1.942494214E-1	5.383091569E-1
5.428702414E0	-1.588202827E-2	1.568350345E-1	5.222744346E-1
5.437105435E0	-5.955760833E-3	1.240019947E-1	5.016583204E-1
5.445508456E0	-4.886778072E-3	1.139230132E-1	4.804313779E-1
5.453911477E0	-7.635590620E-3	8.994726092E-2	4.596625566E-1
5.462314497E0	-1.053711493E-2	2.473931387E-2	4.355340898E-1
5.470717518E0	-1.007897966E-2	-4.245388508E-2	4.144598544E-1
5.479120539E0	-3.206948051E-3	-7.681404054E-2	3.964398801E-1
5.487523560E0	3.054236295E-3	-7.605048269E-2	3.761292100E-1
5.495926581E0	9.926267900E-3	-4.902049154E-2	3.446705639E-1
5.504329602E0	1.572931744E-2	-2.076880634E-2	3.066453338E-1
5.512732622E0	2.305948362E-2	-1.023169141E-2	2.742704153E-1
5.521135643E0	2.901524492E-2	-1.603474095E-2	2.565558553E-1
5.529538664E0	2.977880463E-2	-2.305948362E-2	2.457133085E-1
5.537941685E0	2.886253223E-2	-3.573456407E-2	2.394521236E-1
5.546344706E0	3.222219273E-2	-4.306473210E-2	2.318165302E-1
5.554747727E0	3.756710514E-2	-4.092676565E-2	2.258607745E-1
5.563150747E0	4.856235534E-2	-4.138490185E-2	2.218902707E-1
5.571553768E0	5.787777901E-2	-4.169032723E-2	2.205158621E-1
5.579956789E0	7.055285573E-2	-3.588727489E-2	2.234173864E-1
5.588359810E0	8.292251825E-2	-3.603998944E-2	2.307475507E-1
5.596762831E0	9.666658193E-2	-5.070032179E-2	2.392994165E-1
5.605165852E0	1.056765765E-1	-6.123743951E-2	2.429644912E-1
5.613568872E0	1.123958975E-1	-7.162184268E-2	2.533488870E-1
5.621971893E0	1.171299592E-1	-9.544488788E-2	2.660239935E-1
5.630374914E0	1.175880954E-1	-1.328592747E-1	2.803788781E-1
5.638777935E0	1.114796251E-1	-1.922641695E-1	3.013004065E-1
5.647180956E0	1.018587798E-1	-2.644968629E-1	3.217637837E-1
5.655583977E0	9.101624042E-2	-3.345915973E-1	3.350497186E-1
5.663986997E0	8.597674966E-2	-3.648285270E-1	3.446705639E-1
5.672390018E0	8.124268800E-2	-3.335226178E-1	3.617742956E-1
5.680793039E0	7.605048269E-2	-2.617480457E-1	3.823903799E-1
5.689196060E0	7.406523079E-2	-1.849340051E-1	4.088095427E-1
5.697599081E0	7.116370648E-2	-1.281252056E-1	4.422534108E-1
5.706002102E0	7.223268598E-2	-1.134648770E-1	4.827220440E-1
5.714405122E0	8.933641016E-2	-1.452289373E-1	5.407525301E-1
5.722808143E0	9.407047927E-2	-2.029540092E-1	6.045860648E-1
5.731211164E0	9.743013978E-2	-2.739650011E-1	6.641436815E-1
5.739614185E0	1.117850468E-1	-3.335226178E-1	7.081246972E-1
5.748017206E0	1.188097894E-1	-3.292466700E-1	7.408050299E-1
5.756420227E0	1.189625040E-1	-3.162661791E-1	7.588250041E-1
5.764823247E0	1.267508119E-1	-3.264978528E-1	7.543963790E-1
5.773226268E0	1.389677525E-1	-3.222219348E-1	7.255338430E-1
5.781629289E0	1.560714692E-1	-3.005368412E-1	7.001836896E-1
5.790032310E0	1.788255423E-1	-3.063398898E-1	6.759024858E-1
5.798435331E0	1.913478971E-1	-3.628432751E-1	6.345176101E-1
5.806838352E0	1.942494214E-1	-4.217900336E-1	5.861079693E-1
5.815241372E0	1.808107942E-1	-4.230117202E-1	5.399889946E-1
5.823644393E0	1.618745178E-1	-3.753656447E-1	4.868452549E-1
5.832047414E0	1.539335102E-1	-3.067980409E-1	4.387410581E-1
5.840450435E0	1.722589284E-1	-2.163926363E-1	4.063661397E-1
5.848853456E0	1.762294322E-1	-1.101052165E-1	3.747547865E-1
5.857256477E0	1.814216375E-1	1.527118147E-3	3.368822634E-1
5.865659497E0	1.844758689E-1	9.651386738E-2	3.078670204E-1
5.874062518E0	1.959292591E-1	1.659977436E-1	2.904578745E-1
5.882465539E0	2.041756958E-1	2.053973973E-1	2.913741469E-1
5.890868560E0	1.997470558E-1	2.257080674E-1	3.129065037E-1
5.899271581E0	1.910424829E-1	2.234173864E-1	3.527642787E-1
5.907674602E0	1.867665499E-1	2.324273884E-1	3.999522328E-1
5.916077622E0	1.795890927E-1	2.351761907E-1	4.515688419E-1
5.924480643E0	1.707318127E-1	2.173089087E-1	5.094466209E-1
5.932883664E0	1.783674061E-1	1.980672181E-1	5.632011890E-1
5.941286685E0	1.922641695E-1	1.916533262E-1	6.119162440E-1
5.949689706E0	2.046338320E-1	2.021904439E-1	6.591041684E-1
5.958092727E0	2.113531530E-1	2.392994165E-1	7.014053464E-1
5.966495747E0	2.073826492E-1	2.948864996E-1	7.420266867E-1
5.974898768E0	1.963873953E-1	3.275668323E-1	7.768449783E-1
5.983301789E0	1.876828223E-1	3.255815804E-1	8.060129285E-1
5.991704810E0	1.760767251E-1	2.770192325E-1	8.370134830E-1
6.000107831E0	1.702736765E-1	1.963873953E-1	8.754968047E-1
6.008510852E0	1.678302884E-1	1.067455560E-1	9.141329527E-1
6.016913872E0	1.640124917E-1	3.161134571E-2	9.439117312E-1
6.025316893E0	1.615691036E-1	-3.344388679E-2	9.652913809E-1
6.033719914E0	1.485885978E-1	-8.383878320E-2	9.697200060E-1
6.042122935E0	1.433963925E-1	-1.185043678E-1	9.550597072E-1
6.050525956E0	1.449235082E-1	-1.782146841E-1	9.329164624E-1
6.058928977E0	1.427855492E-1	-2.422009408E-1	9.087880254E-1
6.067331997E0	1.394258887E-1	-2.854183912E-1	8.556442857E-1
6.075735018E0	1.550024897E-1	-2.954973578E-1	7.539382577E-1
6.084138039E0	1.797417998E-1	-2.573194206E-1	6.316160560E-1
6.092541060E0	1.884463727E-1	-1.898207814E-1	5.201364160E-1
6.100944081E0	1.973036677E-1	-1.527118087E-1	4.149180055E-1
6.109347102E0	2.165453583E-1	-1.893626451E-1	2.950392365E-1
6.117750122E0	2.174616307E-1	-2.457133085E-1	1.835595965E-1
6.126153143E0	1.976090819E-1	-2.709107697E-1	5.848862603E-2
6.134556164E0	1.724116355E-1	-2.622061968E-1	-8.383878320E-2
6.142959185E0	1.574458778E-1	-2.376195788E-1	-2.189887464E-1
6.151362206E0	1.339282542E-1	-1.795890927E-1	-3.677300513E-1
6.159765227E0	9.101624042E-2	-1.134648770E-1	-5.390726924E-1
6.168168247E0	3.955236077E-2	-8.643488586E-2	-7.079719901E-1
6.176571268E0	-5.192201585E-3	-9.391776472E-2	-8.628217578E-1
6.184974289E0	-3.787253052E-2	-1.151447073E-1	-9.843803644E-1
6.193377310E0	-6.673506647E-2	-1.435490996E-1	-1.091584086E0
6.201780331E0	-9.284878522E-2	-1.378987730E-1	-1.230399132E0
6.210183352E0	-1.206423342E-1	-1.253764033E-1	-1.367686987E0
6.218586372E0	-1.557660550E-1	-1.356080920E-1	-1.495812178E0
6.226989393E0	-1.930277348E-1	-1.606528312E-1	-1.637986898E0
6.235392414E0	-2.218902707E-1	-2.267770469E-1	-1.762905240E0
6.243795435E0	-2.515163720E-1	-3.182514310E-1	-1.864305854E0
6.252198456E0	-2.825168669E-1	-3.914003670E-1	-1.972425818E0
6.260601477E0	-3.042019308E-1	-4.388937652E-1	-2.091693640E0
6.269004497E0	-3.211529553E-1	-4.538595080E-1	-2.210656166E0
6.277407518E0	-3.452814221E-1	-4.672981501E-1	-2.312209606E0
6.285810539E0	-3.692571819E-1	-4.636330605E-1	-2.405974627E0
6.294213560E0	-3.872771561E-1	-4.534013867E-1	-2.490576982E0
6.302616581E0	-4.114056230E-1	-4.300364852E-1	-2.562351465E0
6.311019602E0	-4.372139275E-1	-3.794888556E-1	-2.623283625E0
6.319422622E0	-4.654656053E-1	-3.286358118E-1	-2.683757544E0
6.327825643E0	-4.894413650E-1	-2.794626355E-1	-2.734763145E0
6.336228664E0	-5.120427012E-1	-2.134911120E-1	-2.793557167E0
6.344631685E0	-5.328115225E-1	-1.740914732E-1	-2.810508251E0
6.353034706E0	-5.864133835E-1	-1.798945218E-1	-2.789739370E0
6.361437727E0	-6.195518374E-1	-1.931804419E-1	-2.782256603E0
6.369840747E0	-5.981721878E-1	-2.351761907E-1	-2.739497185E0
6.378243768E0	-5.263976455E-1	-2.959555089E-1	-2.643746853E0
6.386646789E0	-4.373666346E-1	-3.753656447E-1	-2.495311022E0
6.395049810E0	-3.490992188E-1	-4.437805414E-1	-2.325037479E0
6.403452831E0	-2.623589039E-1	-5.257867575E-1	-2.153083801E0
6.411855852E0	-1.409530044E-1	-6.056550741E-1	-1.911035657E0
6.420258872E0	-1.001789495E-1	-6.920899153E-1	-1.517039180E0
6.428661893E0	-9.972081333E-2	-8.186880350E-1	-1.024543524E0
6.437064914E0	-9.575030953E-2	-9.006943107E-1	-5.716003180E-1
6.445467935E0	-9.407047927E-2	-9.341381788E-1	-1.287360638E-1
6.453870956E0	-1.841704547E-1	-1.089140654E0	5.063923597E-1
6.462273977E0	-1.998997629E-1	-1.378071427E0	1.430451512E0
6.470676997E0	-3.558185324E-2	-1.316528559E0	2.295716763E0
6.479080018E0	-2.252499312E-1	8.658760041E-2	1.902789235E0
6.487483039E0	-4.602734149E-1	2.424758196E0	5.763344169E-1
6.495886060E0	-2.596100867E-1	4.675730228E0	-4.123218954E-1
6.504289081E0	4.504998401E-2	5.546645641E0	3.738385141E-1
6.512692102E0	4.642439261E-2	4.345262051E0	1.735111594E0
6.521095122E0	7.330167107E-3	9.029849768E-1	2.132315159E0
6.529498143E0	-3.069507517E-2	-2.001899242E0	1.398992896E0
6.537901164E0	5.619794875E-2	-2.824710369E0	8.044858575E-1
6.546304185E0	4.963133857E-2	-2.617633104E0	8.936695457E-1
6.554707206E0	-9.727742523E-2	-1.592173338E0	1.188097954E0
6.563110227E0	-1.699682474E-1	-1.641651988E-1	1.029277682E0
6.571513247E0	-1.356080920E-1	7.482879162E-1	5.772506595E-1
6.579916268E0	-1.078145429E-1	1.067150116E0	2.432699203E-1
6.588319289E0	-1.041494608E-1	1.057834744E0	1.537808031E-1
6.596722310E0	-1.261399537E-1	7.806627750E-1	2.541124523E-1
6.605125331E0	-1.337755471E-1	1.876828223E-1	3.605526090E-1
6.613528352E0	-1.127013192E-1	-4.842491746E-1	3.571929336E-1
6.621931372E0	-9.651386738E-2	-8.348754644E-1	3.112266660E-1
6.630334393E0	-7.146912813E-2	-7.983773947E-1	3.086305857E-1
6.638737414E0	-5.344913527E-2	-5.615213513E-1	2.964136302E-1
6.647140435E0	-4.489727318E-2	-2.394521236E-1	2.252499312E-1
6.655543456E0	-4.627167806E-2	6.841489673E-2	1.534753740E-1
6.663946477E0	-5.070032179E-2	2.548760176E-1	1.386623234E-1
6.672349497E0	-4.275930673E-2	2.626643181E-1	1.742441803E-1
6.680752518E0	-2.611372061E-2	1.308740228E-1	2.246390730E-1
6.689155539E0	-1.007897966E-2	-3.313846514E-2	2.670929730E-1
6.697558560E0	1.527118147E-3	-1.534753740E-1	3.155026138E-1
6.705961581E0	4.123218823E-3	-2.081461996E-1	3.582619131E-1
6.714364602E0	1.130067464E-2	-1.632489264E-1	3.626905680E-1
6.722767622E0	1.267508045E-2	-4.703523964E-2	3.483356535E-1
6.731170643E0	1.389677543E-2	7.742489129E-2	3.419217467E-1
6.739573664E0	1.634016447E-2	1.470614821E-1	3.509317636E-1
6.747976685E0	1.557660475E-2	1.360662282E-1	3.692571819E-1
6.756379706E0	1.420219894E-2	6.841489673E-2	3.883461356E-1
6.764782727E0	9.926267900E-3	-3.817795310E-3	4.039227366E-1
6.773185747E0	1.221694518E-2	-2.947338112E-2	4.112529159E-1
6.781588768E0	1.542389300E-2	5.955760833E-3	4.182776511E-1
6.789991789E0	1.985253580E-2	7.849387079E-2	4.230117202E-1
6.798394810E0	2.779355086E-2	1.545443535E-1	4.295783341E-1
6.806797831E0	3.206948191E-2	1.803526580E-1	4.327852726E-1
6.815200852E0	3.374931216E-2	1.569877416E-1	4.367557764E-1
6.823603872E0	3.817795217E-2	1.236965731E-1	4.512633979E-1
6.832006893E0	4.016320780E-2	1.017060652E-1	4.734066129E-1
6.840409914E0	4.321744293E-2	8.994726092E-2	4.885250926E-1
6.848812935E0	4.749337584E-2	7.925742865E-2	4.949389994E-1
6.857215956E0	5.268557742E-2	4.978405312E-2	5.021164417E-1
6.865618977E0	5.818320066E-2	1.282779220E-2	5.085303187E-1
6.874021997E0	6.108472496E-2	-1.557660475E-2	5.164713860E-1
6.882425018E0	6.887302548E-2	-3.924693540E-2	5.259394646E-1
6.890828039E0	7.971556485E-2	-5.589252338E-2	5.325061083E-1
6.899231060E0	8.765657991E-2	-7.009471953E-2	5.392253995E-1
6.907634081E0	9.239064902E-2	-8.582404256E-2	5.447230339E-1
6.916037102E0	9.712471068E-2	-1.175880954E-1	5.457920432E-1
6.924440122E0	1.009425074E-1	-1.646233350E-1	5.372401476E-1
6.932843143E0	1.018587798E-1	-1.959292591E-1	5.302154422E-1
6.941246164E0	1.041494608E-1	-2.024958730E-1	5.305208564E-1
6.949649185E0	1.010952219E-1	-1.944021434E-1	5.326588154E-1
6.958052206E0	1.023169160E-1	-1.969982386E-1	5.276193023E-1
6.966455227E0	1.072036922E-1	-2.180724740E-1	5.196782947E-1
6.974858247E0	1.130067408E-1	-2.461714447E-1	5.091412067E-1
6.983261268E0	1.140757278E-1	-2.640387416E-1	5.059342384E-1
6.991664289E0	1.023169160E-1	-2.501419485E-1	5.163186193E-1
7.000067310E0	9.223793447E-2	-1.988307834E-1	5.381564498E-1
7.008470331E0	9.177979827E-2	-1.336228400E-1	5.622848868E-1
7.016873352E0	1.014006436E-1	-6.077930331E-2	5.696150661E-1
7.025276372E0	1.192679256E-1	1.359135192E-2	5.700731874E-1
7.033679393E0	1.412584335E-1	5.405998230E-2	5.784723759E-1
7.042082414E0	1.516428292E-1	3.420744836E-2	5.975613594E-1
7.050485435E0	1.559187621E-1	-3.359659761E-2	6.236750484E-1
7.058888456E0	1.563768983E-1	-1.240019947E-1	6.533011198E-1
7.067291477E0	1.591257155E-1	-2.115058601E-1	6.745280623E-1
7.075694497E0	1.737860441E-1	-2.690782249E-1	6.810947061E-1
7.084097518E0	1.933331639E-1	-2.999260128E-1	6.788040400E-1
7.092500539E0	2.079934925E-1	-3.330644667E-1	6.731536984E-1
7.100903560E0	2.154763639E-1	-3.871244490E-1	6.578825116E-1
7.109306581E0	2.173089087E-1	-4.550811946E-1	6.282563806E-1
7.117709602E0	2.260134816E-1	-5.239542127E-1	5.975613594E-1
7.126112622E0	2.081461996E-1	-5.877877474E-1	5.726693273E-1
7.134515643E0	2.145601064E-1	-6.291726828E-1	5.757235289E-1
7.142918664E0	2.212794125E-1	-5.949652195E-1	5.633538961E-1
7.151321685E0	2.231119573E-1	-4.984513521E-1	5.344913602E-1
7.159724706E0	2.310529798E-1	-3.607053161E-1	5.037962794E-1
7.168127727E0	2.405211031E-1	-2.160872221E-1	4.795151055E-1
7.176530747E0	2.452551723E-1	-8.444963396E-2	4.618005157E-1
7.184933768E0	2.522799075E-1	4.260659590E-2	4.466820657E-1
7.193336789E0	2.585411072E-1	1.476723254E-1	4.451549351E-1
7.201739810E0	2.663294077E-1	2.353289127E-1	4.613423944E-1
7.210142831E0	2.757975459E-1	3.122956753E-1	4.935645759E-1
7.218545852E0	2.867927849E-1	3.746020794E-1	5.409052372E-1
7.226948872E0	3.058817685E-1	4.176668227E-1	5.946598053E-1
7.235351893E0	3.330644667E-1	4.295783341E-1	6.552863717E-1
7.243754914E0	3.633013964E-1	4.262186885E-1	7.237012982E-1
7.252157935E0	3.715478480E-1	4.239279926E-1	7.921161652E-1
7.260560956E0	3.697153032E-1	4.320217371E-1	8.623636365E-1
7.268963977E0	3.750602305E-1	4.518742561E-1	9.184088707E-1
7.277366997E0	3.787252903E-1	4.518742561E-1	9.633061290E-1
7.285770018E0	3.828485310E-1	4.381301999E-1	1.002247691E0
7.294173039E0	3.845283389E-1	4.407263100E-1	1.037829518E0
7.302576060E0	3.762819171E-1	4.592044353E-1	1.070051670E0
7.310979081E0	3.616215885E-1	4.727957845E-1	1.102273822E0
7.319382102E0	3.458922505E-1	4.518742561E-1	1.134801507E0
7.327785122E0	3.229855001E-1	4.045335948E-1	1.159998894E0
7.336188143E0	2.921377122E-1	3.736858070E-1	1.158777237E0
7.344591164E0	2.411319613E-1	3.816268146E-1	1.097845197E0
7.352994185E0	1.620272398E-1	4.544703662E-1	9.426900148E-1
7.361397206E0	1.119377613E-1	5.202891231E-1	7.821899056E-1
7.369800227E0	1.091889441E-1	4.764608741E-1	6.652126908E-1
7.378203247E0	8.887827396E-2	3.210002482E-1	5.312843919E-1
7.386606268E0	7.452336699E-2	6.948387623E-2	3.671191931E-1
7.395009289E0	7.589777559E-2	-2.417428046E-1	2.545706034E-1
7.403412310E0	8.948912472E-2	-5.263976455E-1	2.041756958E-1
7.411815331E0	7.238540053E-2	-7.392778993E-1	1.253764033E-1
7.420218352E0	3.206948191E-2	-8.625163436E-1	-3.038965166E-2
7.428621372E0	-9.009997360E-3	-8.600729704E-1	-2.512109280E-1
7.437024393E0	-4.428642616E-2	-7.324058414E-1	-4.807367921E-1
7.445427414E0	-7.971556485E-2	-5.853443742E-1	-6.783458591E-1
7.453830435E0	-1.169772521E-1	-5.060869455E-1	-8.420529366E-1
7.462233456E0	-1.609582454E-1	-4.914266169E-1	-9.888089895E-1
7.470636477E0	-2.060082406E-1	-4.811949134E-1	-1.133274436E0
7.479039497E0	-2.402156889E-1	-4.581354558E-1	-1.284306407E0
7.487442518E0	-2.586938143E-1	-4.173613787E-1	-1.431367874E0
7.495845539E0	-2.655658424E-1	-3.791834414E-1	-1.531394124E0
7.504248560E0	-2.702999115E-1	-3.394783735E-1	-1.629740477E0
7.512651581E0	-2.881672084E-1	-2.927485406E-1	-1.735111594E0
7.521054602E0	-3.112266660E-1	-2.637332976E-1	-1.822615504E0
7.529457622E0	-3.312319219E-1	-2.286095917E-1	-1.913020849E0
7.537860643E0	-3.477247953E-1	-1.908897758E-1	-2.008771181E0
7.546263664E0	-3.626905680E-1	-1.605001241E-1	-2.097038746E0
7.554666685E0	-3.779617548E-1	-1.415638477E-1	-2.183320761E0
7.563069706E0	-3.886515796E-1	-1.301104724E-1	-2.249750376E0
7.571472727E0	-3.999522328E-1	-1.195733473E-1	-2.312515020E0
7.579875747E0	-4.121691883E-1	-1.094943732E-1	-2.379097462E0
7.588278768E0	-4.265241027E-1	-1.047603041E-1	-2.437586069E0
7.596681789E0	-4.437805414E-1	-1.064401343E-1	-2.479429007E0
7.605084810E0	-4.676035643E-1	-1.023169160E-1	-2.512262106E0
7.613487831E0	-4.940227270E-1	-7.986827940E-2	-2.547843933E0
7.621890852E0	-5.228852630E-1	-4.459185153E-2	-2.586174488E0
7.630293872E0	-5.573981404E-1	-8.246437646E-3	-2.609539509E0
7.638696893E0	-5.938962698E-1	5.803049076E-3	-2.615189791E0
7.647099914E0	-6.253548861E-1	-2.870982140E-2	-2.606485367E0
7.655502935E0	-6.378772259E-1	-1.308740228E-1	-2.570292473E0
7.663905956E0	-6.357392669E-1	-2.973299026E-1	-2.499739647E0
7.672308977E0	-6.109999418E-1	-4.818057716E-1	-2.405974627E0
7.680711997E0	-5.282301903E-1	-6.268820167E-1	-2.315874577E0
7.689115018E0	-4.118637741E-1	-7.417212725E-1	-2.228370905E0
7.697518039E0	-2.764083743E-1	-8.472451568E-1	-2.071077585E0
7.705921060E0	-1.586675793E-1	-1.024696231E0	-1.732973695E0
7.714324081E0	-9.284878522E-2	-1.246739268E0	-1.285222650E0
7.722727102E0	-1.134648770E-1	-1.375475287E0	-9.123004079E-1
7.731130122E0	-1.119377613E-1	-1.364785433E0	-6.306998134E-1
7.739533143E0	-7.177454978E-2	-1.245059371E0	-3.484883606E-1
7.747936164E0	-9.162709117E-3	-1.057682037E0	2.031067200E-2
7.756339185E0	7.788302749E-2	-8.704573512E-1	5.204418898E-1
7.764742206E0	3.405473381E-2	-6.186355352E-1	9.846857786E-1
7.773145227E0	-4.946335554E-1	6.077930331E-2	9.433009028E-1
7.781548247E0	-1.069440842E0	1.228261113E0	5.984776020E-1
7.789951268E0	-1.254985690E0	2.668028116E0	2.385358512E-1
7.798354289E0	-4.077405334E-1	4.023039818E0	2.102841735E-1
7.806757310E0	4.193466306E-1	4.302960873E0	1.031873703E0
7.815160331E0	5.870242119E-1	2.853725672E0	2.161635637E0
7.823563352E0	1.893626451E-1	6.192464232E-1	2.368254900E0
7.831966372E0	8.842013776E-2	-7.829535007E-1	1.568503022E0
7.840369393E0	2.176143378E-1	-1.488482118E0	9.723161459E-1
7.848772414E0	1.722589284E-1	-1.533379316E0	1.042563558E0
7.857175435E0	-5.589252338E-2	-6.392516494E-1	1.213295341E0
7.865578456E0	-2.496838123E-1	4.906630516E-1	1.133274436E0
7.873981477E0	-2.244863659E-1	1.061499834E0	9.885035753E-1
7.882384497E0	-1.342336833E-1	1.100746751E0	7.959339619E-1
7.890787518E0	-1.415638477E-1	9.032903910E-1	5.897729993E-1
7.899190539E0	-1.710372269E-1	5.647283196E-1	5.034908652E-1
7.907593560E0	-2.105895877E-1	1.640124917E-1	5.380037427E-1
7.915996581E0	-2.382304370E-1	-1.612636745E-1	6.201626658E-1
7.924399602E0	-2.215848416E-1	-3.952181637E-1	6.725428104E-1
7.932802622E0	-1.765348613E-1	-4.964661002E-1	6.420004964E-1
7.941205643E0	-1.293469071E-1	-4.001049399E-1	5.615213513E-1
7.949608664E0	-1.039967462E-1	-1.742441803E-1	4.944808483E-1
7.958011685E0	-9.956810623E-2	5.085303262E-2	4.402681589E-1
7.966414706E0	-1.053711548E-1	1.878355294E-1	3.955236077E-1
7.974817727E0	-1.007898003E-1	2.137965411E-1	3.756710589E-1
7.983220747E0	-8.521319181E-2	1.618745178E-1	3.958290219E-1
7.991623768E0	-7.101099193E-2	5.665608495E-2	4.297310412E-1
8.000026789E0	-6.322269142E-2	-5.192201585E-2	4.269822240E-1
8.008429810E0	-6.352811307E-2	-1.052184403E-1	3.923166394E-1
8.016832831E0	-7.085828483E-2	-9.834641218E-2	3.608580232E-1
8.025235852E0	-7.834116369E-2	-7.024743408E-2	3.382566571E-1
8.033638872E0	-7.925742865E-2	-6.795676053E-2	3.239017725E-1
8.042041893E0	-6.978929788E-2	-1.130067408E-1	3.225273490E-1
8.050444914E0	-5.146388337E-2	-1.750077456E-1	3.225273490E-1
8.058847935E0	-3.695625812E-2	-2.170034945E-1	3.237490356E-1
8.067250956E0	-2.932066843E-2	-2.250972092E-1	3.153499067E-1
8.075653977E0	-2.214321308E-2	-2.070772201E-1	2.941229641E-1
8.084056997E0	-1.466033421E-2	-1.711899489E-1	2.611372173E-1
8.092460018E0	-5.650337320E-3	-1.255291104E-1	2.327328026E-1
8.100863039E0	-1.832541777E-3	-7.834116369E-2	2.191414535E-1
8.109266060E0	3.817795310E-3	-3.222219273E-2	2.090624720E-1
8.117669081E0	7.177455351E-3	-1.389677543E-2	2.026485801E-1
8.126072102E0	8.246437646E-3	-1.725643501E-2	1.878355294E-1
8.134475122E0	1.130067464E-2	-3.115320951E-2	1.661504507E-1
8.142878143E0	1.679829881E-2	-5.070032179E-2	1.481304616E-1
8.151281164E0	2.290677279E-2	-8.826743066E-2	1.339282542E-1
8.159684185E0	2.748812735E-2	-1.397313178E-1	1.232384369E-1
8.168087206E0	2.611372061E-2	-1.789782494E-1	1.227803007E-1
8.176490227E0	2.580829710E-2	-1.982199401E-1	1.175880954E-1
8.184893247E0	3.145863488E-2	-2.099787444E-1	1.149920002E-1
8.193296268E0	3.741439432E-2	-2.266243398E-1	1.137702987E-1
8.201699289E0	4.443913698E-2	-2.354816198E-1	1.065928489E-1
8.210102310E0	4.566083103E-2	-2.411319613E-1	9.498675168E-2
8.218505331E0	5.100574717E-2	-2.484621257E-1	8.857285231E-2
8.226908352E0	6.184828654E-2	-2.583884001E-1	9.697200358E-2
8.235311372E0	7.299624383E-2	-2.718270421E-1	1.131594554E-1
8.243714393E0	8.108997345E-2	-2.929012477E-1	1.265980899E-1
8.252117414E0	8.994726092E-2	-3.141281903E-1	1.339282542E-1
8.260520435E0	9.391776472E-2	-3.324536085E-1	1.404948682E-1
8.268923456E0	9.590301663E-2	-3.469612300E-1	1.440072358E-1
8.277326477E0	9.590301663E-2	-3.477247953E-1	1.504211426E-1
8.285729497E0	1.004843712E-1	-3.387148082E-1	1.705790907E-1
8.294132518E0	1.068982705E-1	-3.315373361E-1	1.976090819E-1
8.302535539E0	1.114796251E-1	-3.193204105E-1	2.203631550E-1
8.310938560E0	1.223221645E-1	-2.733541429E-1	2.394521236E-1
8.319341581E0	1.240019947E-1	-1.849340051E-1	2.663294077E-1
8.327744602E0	1.282779276E-1	-9.865183383E-2	2.953446507E-1
8.336147622E0	1.331647038E-1	-5.604523420E-2	3.214583695E-1
8.344550643E0	1.467560530E-1	-5.955760926E-2	3.452814221E-1
8.352953664E0	1.495048702E-1	-8.154810965E-2	3.756710589E-1
8.361356685E0	1.516428292E-1	-9.437590092E-2	4.124746025E-1
8.369759706E0	1.577513069E-1	-9.345962852E-2	4.431696832E-1
8.378162727E0	1.675248593E-1	-7.971556485E-2	4.592044353E-1
8.386565747E0	1.765348613E-1	-6.047387794E-2	4.677563012E-1
8.394968768E0	1.856975704E-1	-4.749337584E-2	4.793623984E-1
8.403371789E0	1.924168915E-1	-6.291726977E-2	4.911212027E-1
8.411774810E0	2.002051920E-1	-8.887827396E-2	5.012001991E-1
8.420177831E0	2.082989216E-1	-8.933641016E-2	5.056288242E-1
8.428580852E0	2.121167034E-1	-4.703523964E-2	5.099047422E-1
8.436983872E0	2.199050188E-1	4.428642802E-3	5.141806602E-1
8.445386893E0	2.301367074E-1	3.741439432E-2	5.115845799E-1
8.453789914E0	2.449497581E-1	4.230117425E-2	5.034908652E-1
8.462192935E0	2.597627938E-1	3.649812192E-2	4.949389994E-1
8.470595956E0	2.684673667E-1	4.214845970E-2	4.923428893E-1
8.478998977E0	2.788517773E-1	4.917320609E-2	4.953971207E-1
8.487401997E0	2.870981991E-1	5.375456065E-2	4.900522232E-1
8.495805018E0	2.968717813E-1	7.727217674E-2	4.724903405E-1
8.504208039E0	3.077143133E-1	1.068982705E-1	4.593571424E-1
8.512611060E0	3.232909143E-1	1.200314835E-1	4.466820657E-1
8.521014081E0	3.405473530E-1	9.880454093E-2	4.268295169E-1
8.529417102E0	3.567348123E-1	5.680879578E-2	3.984251320E-1
8.537820122E0	3.683409095E-1	1.481304597E-2	3.689517379E-1
8.546223143E0	3.698680103E-1	-4.123219103E-2	3.515425920E-1
8.554626164E0	3.666610718E-1	-1.059819981E-1	3.417690396E-1
8.563029185E0	3.565820754E-1	-1.747023165E-1	3.352024257E-1
8.571432206E0	3.483356535E-1	-2.290677279E-1	3.338280320E-1
8.579835227E0	3.483356535E-1	-2.385358512E-1	3.486410677E-1
8.588238247E0	3.535278440E-1	-1.875301152E-1	3.826957941E-1
8.596641268E0	3.513898849E-1	-1.241547018E-1	4.217900336E-1
8.605044289E0	3.515425920E-1	-9.239064902E-2	4.340069890E-1
8.613447310E0	3.617742956E-1	-5.680879578E-2	4.176668227E-1
8.621850331E0	3.658975065E-1	5.039489828E-3	4.071297050E-1
8.630253352E0	3.668137789E-1	8.658760041E-2	4.103366435E-1
8.638656372E0	3.637595475E-1	1.663031727E-1	4.219427407E-1
8.647059393E0	3.626905680E-1	2.231119573E-1	4.373666346E-1
8.655462414E0	3.602471650E-1	2.493783981E-1	4.521796703E-1
8.663865435E0	3.588727713E-1	2.559449971E-1	4.689779878E-1
8.672268456E0	3.573456407E-1	2.609844804E-1	5.019637346E-1
8.680671477E0	3.658975065E-1	2.851129472E-1	5.558710098E-1
8.689074497E0	3.830012381E-1	3.223746419E-1	6.166502833E-1
8.697477518E0	4.173613787E-1	3.602471650E-1	6.882721782E-1
8.705880539E0	4.643966258E-1	3.914003670E-1	7.713474035E-1
8.714283560E0	4.892886579E-1	4.402681589E-1	8.631271720E-1
8.722686581E0	5.077667832E-1	4.923428893E-1	9.497147799E-1
8.731089602E0	5.267030597E-1	5.439594984E-1	1.014311910E0
8.739492622E0	5.416688323E-1	5.801522136E-1	1.062721491E0
8.747895643E0	5.431959033E-1	5.914528370E-1	1.108076930E0
8.756298664E0	5.283828974E-1	5.961869359E-1	1.145796776E0
8.764701685E0	4.995203316E-1	6.131379604E-1	1.181531310E0
8.773104706E0	4.598152637E-1	6.394043565E-1	1.215738773E0
8.781507727E0	4.133908749E-1	6.652126908E-1	1.239256382E0
8.789910747E0	3.617742956E-1	6.887302995E-1	1.220167398E0
8.798313768E0	3.138227761E-1	6.896465421E-1	1.155722976E0
8.806716789E0	2.275405973E-1	7.036960125E-1	1.001636744E0
8.815119810E0	1.411057115E-1	7.779139876E-1	7.253811359E-1
8.823522831E0	1.478250325E-1	7.953231335E-1	4.871506989E-1
8.831925852E0	1.849340051E-1	6.734591126E-1	4.173613787E-1
8.840328872E0	1.488940120E-1	4.534013867E-1	4.088095427E-1
8.848731893E0	5.558710173E-2	1.476723254E-1	3.185568452E-1
8.857134914E0	9.162709117E-3	-2.195995897E-1	1.371352077E-1
8.865537935E0	-5.344913341E-3	-5.189147592E-1	-3.619270027E-2
8.873940956E0	-3.115320951E-2	-6.328377724E-1	-1.905843467E-1
8.882343977E0	-6.383354217E-2	-5.824428797E-1	-3.550549746E-1
8.890746997E0	-1.050657257E-1	-5.201364160E-1	-5.201364160E-1
8.899150018E0	-1.618745178E-1	-5.033381581E-1	-6.998782754E-1
8.907553039E0	-2.252499312E-1	-5.034908652E-1	-9.074136019E-1
8.915956060E0	-2.845021188E-1	-4.718795121E-1	-1.114032745E0
8.924359081E0	-3.417690396E-1	-4.115583301E-1	-1.313168883E0
8.932762102E0	-3.991886973E-1	-3.371876776E-1	-1.504516840E0
8.941165122E0	-4.509579837E-1	-2.797680497E-1	-1.664864182E0
8.949568143E0	-4.953971207E-1	-2.480039895E-1	-1.807191610E0
8.957971164E0	-5.334223509E-1	-2.098260373E-1	-1.959903479E0
8.966374185E0	-5.523586273E-1	-1.840177327E-1	-2.108644724E0
8.974777206E0	-5.506787896E-1	-2.298312783E-1	-2.208823681E0
8.983180227E0	-5.541911721E-1	-2.961082160E-1	-2.284721375E0
8.991583247E0	-5.551074743E-1	-3.526115716E-1	-2.375890493E0
8.999986268E0	-5.573981404E-1	-3.645231128E-1	-2.467517614E0
9.008389289E0	-5.607577562E-1	-3.721587062E-1	-2.523562670E0
9.016792310E0	-5.599942207E-1	-3.202366829E-1	-2.616411448E0
9.025195331E0	-5.696150661E-1	-2.330382317E-1	-2.709107637E0
9.033598352E0	-5.897729993E-1	-1.235438585E-1	-2.778896809E0
9.042001372E0	-6.300889254E-1	2.687728032E-2	-2.838301897E0
9.050404393E0	-6.708629727E-1	1.913478971E-1	-2.884115219E0
9.058807414E0	-7.099572420E-1	3.611634374E-1	-2.922140598E0
9.067210435E0	-7.362236381E-1	5.554128885E-1	-2.959707737E0
9.075613456E0	-7.404996157E-1	7.281299233E-1	-2.995136738E0
9.084016477E0	-7.244648337E-1	8.391514421E-1	-3.002772331E0
9.092419497E0	-6.829272509E-1	8.296833038E-1	-2.951003075E0
9.100822518E0	-5.877877474E-1	6.884248853E-1	-2.847159147E0
9.109225539E0	-4.474456310E-1	4.146125913E-1	-2.673220396E0
9.117628560E0	-3.122956753E-1	6.261184067E-2	-2.420329571E0
9.126031581E0	-1.979145110E-1	-3.309265077E-1	-2.066343546E0
9.134434602E0	-1.423274130E-1	-7.420266867E-1	-1.612942219E0
9.142837622E0	-1.516428292E-1	-1.085933685E0	-1.157097459E0
9.151240643E0	-1.356080920E-1	-1.254069448E0	-7.180509567E-1
9.159643664E0	-1.221694499E-1	-1.321720719E0	-2.322746664E-1
9.168046685E0	-1.563768983E-1	-1.421288848E0	4.111002088E-1
9.176449706E0	-5.986303091E-2	-1.506502032E0	1.339740753E0
9.184852727E0	-6.902574003E-2	-9.898779988E-1	2.057486296E0
9.193255747E0	-5.670189857E-1	1.032026410E0	1.539793253E0
9.201658768E0	-7.695148587E-1	3.762361050E0	2.883199155E-1
9.210061789E0	-2.615953386E-1	6.202848434E0	-3.793361485E-1
9.218464810E0	1.156028435E-1	6.624332905E0	9.895725846E-1
9.226867831E0	7.421794534E-2	3.883003235E0	2.221651554E0
9.235270852E0	-1.136175916E-1	-6.653653979E-1	2.090166569E0
9.243673872E0	-1.531699449E-1	-2.950392246E0	1.213906169E0
9.252076893E0	1.740914769E-2	-3.097759247E0	8.275453448E-1
9.260479914E0	5.375456065E-2	-2.399560690E0	1.093721986E0
9.268882935E0	-8.719844371E-2	-1.063790560E0	1.374406338E0
9.277285956E0	-1.443126649E-1	2.706053257E-1	1.198176861E0
9.285688977E0	-1.104106456E-1	9.663603902E-1	8.218950033E-1
9.294091997E0	-7.727217674E-2	1.144727707E0	4.647020400E-1
9.302495018E0	-5.253286287E-2	1.191915751E0	2.351761907E-1
9.310898039E0	-6.872031838E-2	1.143353343E0	2.037175596E-1
9.319301060E0	-1.017060652E-1	8.339592218E-1	3.034383655E-1
9.327704081E0	-1.097997949E-1	2.597627938E-1	4.025483429E-1
9.336107102E0	-9.880454093E-2	-2.808370292E-1	4.004103839E-1
9.344510122E0	-7.192726433E-2	-5.248705149E-1	3.691044450E-1
9.352913143E0	-4.535540938E-2	-4.512633979E-1	3.568875194E-1
9.361316164E0	-3.451287001E-2	-1.944021434E-1	3.434488773E-1
9.369719185E0	-3.497100621E-2	7.956285775E-2	2.895416021E-1
9.378122206E0	-4.062134400E-2	2.782409191E-1	2.367033064E-1
9.386525227E0	-4.031591862E-2	3.568875194E-1	2.392994165E-1
9.394928247E0	-2.855710872E-2	2.961082160E-1	2.875563502E-1
9.403331268E0	-1.252236869E-2	1.331647038E-1	3.336753249E-1
9.411734289E0	2.137965523E-3	-4.749337584E-2	3.634541333E-1
9.420137310E0	9.009997360E-3	-1.496575773E-1	3.807105422E-1
9.428540331E0	7.635590620E-3	-1.223221645E-1	3.843756318E-1
9.436943352E0	4.428642802E-3	-8.551862091E-3	3.793361485E-1
9.445346372E0	6.108472589E-4	1.256818175E-1	3.721587062E-1
9.453749393E0	-1.527118147E-4	2.079934925E-1	3.848337829E-1
9.462152414E0	5.497625098E-3	1.956238300E-1	4.123218954E-1
9.470555435E0	1.603474095E-2	1.301104724E-1	4.436278343E-1
9.478958456E0	1.496575773E-2	5.222744122E-2	4.784461260E-1
9.487361477E0	1.801999472E-2	-1.404948719E-2	5.044071078E-1
9.495764497E0	2.260134928E-2	-2.000524849E-2	5.105155706E-1
9.504167518E0	2.596100792E-2	2.229592577E-2	5.085303187E-1
9.512570539E0	2.535016090E-2	7.788302749E-2	5.086830258E-1
9.520973560E0	2.122694254E-2	1.036913246E-1	5.092939138E-1
9.529376581E0	2.031067200E-2	1.029277667E-1	5.109737515E-1
9.537779602E0	2.168507688E-2	8.353336155E-2	5.163186193E-1
9.546182622E0	2.275406010E-2	5.314370990E-2	5.205945969E-1
9.554585643E0	2.580829710E-2	2.962609194E-2	5.167768002E-1
9.562988664E0	3.069507517E-2	3.268032894E-2	5.083776116E-1
9.571391685E0	3.176405653E-2	4.871506989E-2	5.086830258E-1
9.579794706E0	3.665083647E-2	4.840964451E-2	5.053234100E-1
9.588197727E0	4.337015375E-2	2.260134928E-2	4.949389994E-1
9.596600747E0	4.734066129E-2	-1.740914769E-2	4.883723855E-1
9.605003768E0	5.070032179E-2	-4.291202128E-2	4.905103445E-1
9.613406789E0	5.299099907E-2	-5.024218559E-2	5.008947253E-1
9.621809810E0	5.879404768E-2	-5.131116882E-2	5.144860744E-1
9.630212831E0	6.444438547E-2	-5.543438718E-2	5.213581324E-1
9.638615852E0	6.673506647E-2	-7.330167294E-2	5.218162537E-1
9.647018872E0	7.024743408E-2	-1.088835225E-1	5.158604980E-1
9.655421893E0	7.696675509E-2	-1.432436854E-1	5.073086619E-1
9.663824914E0	8.353336155E-2	-1.682884246E-1	4.989095032E-1
9.672227935E0	9.101624042E-2	-1.933331639E-1	4.851654470E-1
9.680630956E0	1.041494608E-1	-2.046338320E-1	4.694361091E-1
9.689033977E0	1.007898003E-1	-1.942494214E-1	4.404208660E-1
9.697436997E0	1.050657257E-1	-1.896680743E-1	4.156815708E-1
9.705840018E0	1.110214889E-1	-1.608055383E-1	4.065188468E-1
9.714243039E0	1.172826737E-1	-1.146865711E-1	4.051444530E-1
9.722646060E0	1.287360638E-1	-8.124268800E-2	4.074351192E-1
9.731049081E0	1.380514801E-1	-5.039490014E-2	4.088095427E-1
9.739452102E0	1.449235082E-1	-1.969982497E-2	4.179722369E-1
9.747855122E0	1.505738497E-1	6.413896102E-3	4.330907166E-1
9.756258143E0	1.568350345E-1	5.192201585E-3	4.454603493E-1
9.764661164E0	1.638597846E-1	-3.268032894E-2	4.559974670E-1
9.773064185E0	1.736333370E-1	-8.246438205E-2	4.643966258E-1
9.781467206E0	1.826433241E-1	-1.250709742E-1	4.740174711E-1
9.789870227E0	1.895153672E-1	-1.533226669E-1	4.818057716E-1
9.798273247E0	1.939440072E-1	-1.743968874E-1	4.811949134E-1
9.806676268E0	1.983726472E-1	-1.869192570E-1	4.763081372E-1
9.815079289E0	2.015796006E-1	-1.953184158E-1	4.700469673E-1
9.823482310E0	2.057028115E-1	-2.137965411E-1	4.683671296E-1
9.831885331E0	2.044811249E-1	-2.463241518E-1	4.651601911E-1
9.840288352E0	2.040229887E-1	-2.971771955E-1	4.631749392E-1
9.848691372E0	2.049392611E-1	-3.481829464E-1	4.585935771E-1
9.857094393E0	1.974563748E-1	-3.892624080E-1	4.573718905E-1
9.865497414E0	2.017323077E-1	-4.318690002E-1	4.659237564E-1
9.873900435E0	1.971509457E-1	-4.923428893E-1	4.847072959E-1
9.882303456E0	2.090624720E-1	-5.694623590E-1	5.080721974E-1
9.890706477E0	2.273878902E-1	-6.423059106E-1	5.409052372E-1
9.899109497E0	2.414373755E-1	-6.815528274E-1	5.754181147E-1
9.907512518E0	2.568612695E-1	-6.789567471E-1	6.091674566E-1
9.915915539E0	2.750339806E-1	-6.558972597E-1	6.377245188E-1
9.924318560E0	2.979407609E-1	-6.287145615E-1	6.438329816E-1
9.932721581E0	3.093941510E-1	-6.714738607E-1	6.716265678E-1
9.941124602E0	3.167243004E-1	-7.398887277E-1	7.348492742E-1
9.949527622E0	2.913741469E-1	-7.837170362E-1	7.766922712E-1
9.957930643E0	2.548760176E-1	-7.985301018E-1	8.246437907E-1
9.966333664E0	2.276933193E-1	-7.886037827E-1	8.901571631E-1
9.974736685E0	2.226538211E-1	-7.802046537E-1	9.662076235E-1
9.983139706E0	2.374668717E-1	-7.716528177E-1	1.022711039E0
9.991542727E0	2.692309320E-1	-7.458444834E-1	1.057071209E0
9.999945747E0	3.100049794E-1	-6.604785919E-1	1.075396657E0
1.000834877E1	3.671191931E-1	-5.109737515E-1	1.085780978E0
1.001675179E1	4.436278343E-1	-3.330644667E-1	1.099066973E0
1.002515481E1	5.115845799E-1	-1.310267299E-1	1.121668339E0
1.003355783E1	5.520532131E-1	5.940489471E-2	1.144880533E0
1.004196085E1	5.885513425E-1	2.232646793E-1	1.150072694E0
1.005036387E1	6.113054156E-1	3.544441164E-1	1.136328578E0
1.005876689E1	5.992411375E-1	4.663818777E-1	1.116476059E0
1.006716991E1	5.503733754E-1	5.774033666E-1	1.091889501E0
1.007557294E1	4.874561131E-1	6.852179170E-1	1.049282908E0
1.008397596E1	4.294256270E-1	7.820371985E-1	9.448279738E-1
1.009237898E1	3.668137789E-1	8.603783846E-1	7.601994276E-1
1.010078200E1	3.220692277E-1	8.687775135E-1	5.693096519E-1
1.010918502E1	3.122956753E-1	7.163711190E-1	4.370612204E-1
1.011758804E1	3.155026138E-1	3.900259733E-1	3.344388604E-1
1.012599106E1	2.941229641E-1	-5.390727147E-2	2.189887464E-1
1.013439408E1	2.629697323E-1	-5.506787896E-1	9.162709117E-2
1.014279710E1	2.455606014E-1	-9.961391687E-1	-3.665083647E-2
1.015120012E1	2.351761907E-1	-1.252084136E0	-1.606528312E-1
1.015960314E1	2.084516287E-1	-1.310420036E0	-2.916795611E-1
1.016800616E1	1.580567211E-1	-1.257276416E0	-4.362976551E-1
1.017640918E1	9.223793447E-2	-1.151599765E0	-6.105418205E-1
1.018481221E1	1.206423342E-2	-9.996515512E-1	-7.768449783E-1
1.019321523E1	-7.589777559E-2	-8.197570443E-1	-9.133693576E-1
1.020161825E1	-1.748550236E-1	-6.459710002E-1	-1.021794796E0
1.021002127E1	-2.761029601E-1	-4.932591617E-1	-1.124111652E0
1.021842429E1	-3.672719002E-1	-3.432961702E-1	-1.233758807E0
1.022682731E1	-4.390464723E-1	-1.998997629E-1	-1.342795014E0
1.023523033E1	-4.905103445E-1	-7.131642103E-2	-1.447555304E0
1.024363335E1	-5.193728805E-1	2.367033064E-2	-1.550330400E0
1.025203637E1	-5.389199853E-1	6.872031838E-2	-1.637834191E0
1.026043939E1	-5.372401476E-1	6.077930331E-2	-1.700140595E0
1.026884241E1	-5.280774832E-1	1.572931744E-2	-1.757865667E0
1.027724544E1	-5.117372870E-1	-2.626643144E-2	-1.812231064E0
1.028564846E1	-4.917320311E-1	-7.620319724E-2	-1.843231559E0
1.029405148E1	-4.831801951E-1	-1.079672500E-1	-1.878355265E0
1.030245450E1	-4.903576374E-1	-1.125486046E-1	-1.922183633E0
1.031085752E1	-4.996730685E-1	-1.114796251E-1	-1.966928124E0
1.031926054E1	-5.207473040E-1	-9.040539712E-2	-2.011061907E0
1.032766356E1	-5.473191738E-1	-3.206948191E-2	-2.052294016E0
1.033606658E1	-5.668662786E-1	2.886253223E-2	-2.095816851E0
1.034446960E1	-5.876350403E-1	1.012479365E-1	-2.138881683E0
1.035287262E1	-6.116108298E-1	1.704263836E-1	-2.155832767E0
1.036127564E1	-6.416950226E-1	2.562504113E-1	-2.175532579E0
1.036967866E1	-6.642963886E-1	3.710896969E-1	-2.210045338E0
1.037808169E1	-6.853706241E-1	4.863871336E-1	-2.248986959E0
1.038648471E1	-7.050704360E-1	6.082511544E-1	-2.285790443E0
1.039488773E1	-7.162184119E-1	7.241594195E-1	-2.318623543E0
1.040329075E1	-7.156075835E-1	8.197570443E-1	-2.335268974E0
1.041169377E1	-7.134696245E-1	8.895463347E-1	-2.330229521E0
1.042009679E1	-7.102626562E-1	9.365815520E-1	-2.317554474E0
1.042849981E1	-7.015580535E-1	9.681929350E-1	-2.304115772E0
1.043690283E1	-6.890357137E-1	9.909469485E-1	-2.298312902E0
1.044530585E1	-6.575770974E-1	9.848384857E-1	-2.268992186E0
1.045370887E1	-6.161921620E-1	9.176452756E-1	-2.195384979E0
1.046211189E1	-5.954233408E-1	8.382351398E-1	-2.124984980E0
1.047051491E1	-5.635066032E-1	7.623373866E-1	-2.086959600E0
1.047891794E1	-4.790569544E-1	6.285618544E-1	-2.032136202E0
1.048732096E1	-3.788780272E-1	4.329380095E-1	-1.907675982E0
1.049572398E1	-2.961082160E-1	1.600419879E-1	-1.718466043E0
1.050412700E1	-2.548760176E-1	-1.835595965E-1	-1.513221383E0
1.051253002E1	-2.426590770E-1	-5.404471159E-1	-1.343863964E0
1.052093304E1	-2.380777150E-1	-8.415948153E-1	-1.212531805E0
1.052933606E1	-2.341072112E-1	-1.063637733E0	-1.079519868E0
1.053773908E1	-2.173089087E-1	-1.216196895E0	-8.933641315E-1
1.054614210E1	-1.844758689E-1	-1.297592282E0	-6.606312990E-1
1.055454512E1	-1.380514801E-1	-1.314695954E0	-4.081986845E-1
1.056294814E1	-7.574506104E-2	-1.303395391E0	-1.522536725E-1
1.057135116E1	7.788302377E-3	-1.263384819E0	1.146865711E-1
1.057975418E1	9.773556143E-2	-1.183669329E0	4.060607255E-1
1.058815721E1	1.583621502E-1	-1.067455530E0	7.461498976E-1
1.059656023E1	1.484358907E-1	-9.087880254E-1	1.150683522E0
1.060496325E1	-4.718795046E-2	-5.057815313E-1	1.449998736E0
1.061336627E1	-4.941754341E-1	4.280512035E-1	1.253153205E0
1.062176929E1	-9.181034565E-1	1.810703993E0	4.698942602E-1
1.063017231E1	-6.387935281E-1	3.197021723E0	-3.038965166E-1
1.063857533E1	1.484358907E-1	3.845130682E0	1.621799469E-1
1.064697835E1	5.018110275E-1	2.835705757E0	1.640583038E0
1.065538137E1	3.564293683E-1	2.713688910E-1	2.502794027E0
1.066378439E1	1.353026628E-1	-1.375627995E0	1.958987117E0
1.067218741E1	1.516428292E-1	-1.502989650E0	1.050351858E0
1.068059044E1	1.950129867E-1	-1.172826767E0	7.725690603E-1
1.068899346E1	7.742489129E-2	-6.658235192E-1	1.074480295E0
1.069739648E1	-8.093725890E-2	1.198787764E-1	1.168550849E0
1.070579950E1	-1.226275861E-1	6.943806410E-1	9.863656163E-1
1.071420252E1	-7.711946964E-2	7.789829373E-1	7.600467205E-1
1.072260554E1	-3.665083647E-2	6.503996253E-1	6.085565686E-1
1.073100856E1	-4.886778072E-2	4.982986450E-1	5.465555787E-1
1.073941158E1	-1.000262350E-1	3.074088693E-1	5.431959033E-1
1.074781460E1	-1.356080920E-1	9.468132257E-2	5.409052372E-1
1.075621762E1	-1.524063945E-1	-8.444963396E-2	5.422796607E-1
1.076462064E1	-1.479777545E-1	-1.889045089E-1	5.488462448E-1
1.077302366E1	-1.244601309E-1	-1.976090819E-1	5.577035546E-1
1.078142669E1	-1.081199646E-1	-1.430909634E-1	5.766398311E-1
1.078982971E1	-9.437590092E-2	-7.101099193E-2	6.001574397E-1
1.079823273E1	-7.879929990E-2	-1.527118124E-2	6.224533319E-1
1.080663575E1	-6.230641901E-2	-2.596100792E-3	6.470399499E-1
1.081503877E1	-3.771981969E-2	-3.878879920E-2	6.693359017E-1
1.082344179E1	-1.374406368E-2	-1.007898003E-1	6.864396334E-1
1.083184481E1	8.704573847E-3	-1.571404636E-1	7.017107606E-1
1.084024783E1	2.550287358E-2	-1.640124917E-1	7.073611021E-1
1.084865085E1	3.237490356E-2	-1.265980899E-1	6.913263798E-1
1.085705387E1	2.687728032E-2	-7.773031294E-2	6.581879258E-1
1.086545689E1	1.618745178E-2	-4.932591692E-2	6.103891134E-1
1.087385991E1	3.817795310E-3	-3.787253052E-2	5.589252710E-1
1.088226294E1	-1.374406274E-3	-4.398100078E-2	5.123481154E-1
1.089066596E1	-4.581354558E-3	-7.177454978E-2	4.815003574E-1
1.089906898E1	-5.192201585E-3	-1.160609797E-1	4.573718905E-1
1.090747200E1	-8.093725890E-3	-1.563768983E-1	4.306473136E-1
1.091587502E1	-1.740914769E-2	-1.638597846E-1	4.002576768E-1
1.092427804E1	-1.908897609E-2	-1.261399537E-1	3.706315756E-1
1.093268106E1	-1.313321572E-2	-6.062658876E-2	3.526115716E-1
1.094108408E1	-6.719320081E-3	-1.725643501E-2	3.434488773E-1
1.094948710E1	1.527118147E-4	-2.031067200E-2	3.312319219E-1
1.095789012E1	9.773556143E-3	-5.283828825E-2	3.196258247E-1
1.096629314E1	7.177455351E-3	-7.818844914E-2	3.124483824E-1
1.097469616E1	1.374406274E-3	-1.010952219E-1	3.180987239E-1
1.098309918E1	9.162708884E-4	-1.250709742E-1	3.257342875E-1
1.099150221E1	5.039489828E-3	-1.369825006E-1	3.194731176E-1
1.099990523E1	1.313321572E-2	-1.288887709E-1	3.145863414E-1
1.100830825E1	2.275406010E-2	-1.131594554E-1	3.187095523E-1
1.101671127E1	3.329117596E-2	-9.972081333E-2	3.264978528E-1
1.102511429E1	4.367557913E-2	-9.849911928E-2	3.367295563E-1
1.103351731E1	5.405998230E-2	-1.014006436E-1	3.483356535E-1
1.104192033E1	6.322269142E-2	-1.067455560E-1	3.558185399E-1
1.105032335E1	7.162184268E-2	-1.108687744E-1	3.643703759E-1
1.105872637E1	7.620319724E-2	-1.217113137E-1	3.703261614E-1
1.106712939E1	8.002099395E-2	-1.317902952E-1	3.756710589E-1
1.107553241E1	8.964183182E-2	-1.255291104E-1	3.787252903E-1
1.108393544E1	9.376505762E-2	-1.029277667E-1	3.843756318E-1
1.109233846E1	1.015533581E-1	-7.421794534E-2	3.874298632E-1
1.110074148E1	1.088835225E-1	-6.062658876E-2	3.961344361E-1
1.110914450E1	1.185043678E-1	-6.597150117E-2	4.078932703E-1
1.111754752E1	1.270562261E-1	-9.177979827E-2	4.213318825E-1
1.112595054E1	1.304158866E-1	-1.134648770E-1	4.303418994E-1
1.113435356E1	1.380514801E-1	-1.211004704E-1	4.410317242E-1
1.114275658E1	1.443126649E-1	-1.065928489E-1	4.559974670E-1
1.115115960E1	1.525591016E-1	-9.193251282E-2	4.732539058E-1
1.115956262E1	1.585148573E-1	-1.020114943E-1	4.894413650E-1
1.116796564E1	1.650814712E-1	-1.253764033E-1	5.053234100E-1
1.117636866E1	1.724116355E-1	-1.487413049E-1	5.256340504E-1
1.118477169E1	1.795890927E-1	-1.629435122E-1	5.470137000E-1
1.119317471E1	1.878355294E-1	-1.693574041E-1	5.590779781E-1
1.120157773E1	1.931804419E-1	-1.776038408E-1	5.708367825E-1
1.120998075E1	2.002051920E-1	-1.795890927E-1	5.810684562E-1
1.121838377E1	2.066190839E-1	-1.826433241E-1	5.952706337E-1
1.122678679E1	2.092151791E-1	-1.977618039E-1	6.111527085E-1
1.123518981E1	2.157817930E-1	-2.014268786E-1	6.235223413E-1
1.124359283E1	2.174616307E-1	-1.838650256E-1	6.348230243E-1
1.125199585E1	2.208212912E-1	-1.524063945E-1	6.441384554E-1
1.126039887E1	2.226538211E-1	-1.252236813E-1	6.505523324E-1
1.126880189E1	2.286095917E-1	-1.107160673E-1	6.528429985E-1
1.127720491E1	2.336490750E-1	-1.123958975E-1	6.575770974E-1
1.128560794E1	2.362451702E-1	-1.233911440E-1	6.624638438E-1
1.129401096E1	2.382304370E-1	-1.363716573E-1	6.783458591E-1
1.130241398E1	2.305948436E-1	-1.397313178E-1	6.946860552E-1
1.131081700E1	2.215848416E-1	-1.444653720E-1	7.142331600E-1
1.131922002E1	2.107423097E-1	-1.560714692E-1	7.351546884E-1
1.132762304E1	2.093679011E-1	-1.659977436E-1	7.545490861E-1
1.133602606E1	2.195995897E-1	-1.658450365E-1	7.724163532E-1
1.134442908E1	2.392994165E-1	-1.614163816E-1	7.872294188E-1
1.135283210E1	2.695363462E-1	-1.690519750E-1	8.032641411E-1
1.136123512E1	3.014531136E-1	-2.006633282E-1	8.130376935E-1
1.136963814E1	3.113794029E-1	-2.392994165E-1	7.812736630E-1
1.137804116E1	2.933593988E-1	-3.283303976E-1	8.055548072E-1
1.138644418E1	2.776300907E-1	-4.063661397E-1	8.674030900E-1
1.139484721E1	2.519744933E-1	-4.527905285E-1	8.872556686E-1
1.140325023E1	2.315111160E-1	-4.779879749E-1	9.106205702E-1
1.141165325E1	2.330382317E-1	-4.518742561E-1	9.474241138E-1
1.142005627E1	2.342599183E-1	-4.155288339E-1	9.877400398E-1
1.142845929E1	2.357870489E-1	-3.662029207E-1	1.011104941E0
1.143686231E1	2.486148328E-1	-3.150444627E-1	1.023474574E0
1.144526533E1	2.791571915E-1	-2.286095917E-1	1.015380859E0
1.145366835E1	3.292466700E-1	-1.322484314E-1	9.958337545E-1
1.146207137E1	3.765873313E-1	-4.291202128E-2	9.791881442E-1
1.147047439E1	3.923166394E-1	5.222744122E-2	9.852966070E-1
1.147887741E1	3.976615667E-1	1.774511337E-1	1.002705812E0
1.148728044E1	3.972034156E-1	2.985515893E-1	1.010799527E0
1.149568346E1	3.984251320E-1	3.962871730E-1	1.000567794E0
1.150408648E1	3.932329118E-1	4.869979918E-1	9.642223716E-1
1.151248950E1	3.826957941E-1	5.654918551E-1	9.216157794E-1
1.152089252E1	3.662029207E-1	6.001574397E-1	8.741224408E-1
1.152929554E1	3.558185399E-1	5.716003180E-1	8.113578558E-1
1.153769856E1	3.480302393E-1	4.891359508E-1	7.301151752E-1
1.154610158E1	3.297048211E-1	4.306473136E-1	6.148177385E-1
1.155450460E1	3.113794029E-1	4.046863019E-1	4.961606860E-1
1.156290762E1	3.032856584E-1	3.361186981E-1	4.115583301E-1
1.157131064E1	2.767138183E-1	2.240282297E-1	2.954973578E-1
1.157971366E1	2.302894145E-1	1.356080920E-1	1.214058921E-1
1.158811669E1	2.075353563E-1	8.154810965E-2	-6.551336497E-2
1.159651971E1	1.953184158E-1	7.650861889E-2	-2.328855246E-1
1.160492273E1	1.760767251E-1	9.651386738E-2	-3.862081766E-1
1.161332575E1	1.440072358E-1	1.093416587E-1	-5.277720094E-1
1.162172877E1	1.030804738E-1	9.422318637E-2	-6.620057225E-1
1.163013179E1	5.909947306E-2	6.337540597E-2	-7.872294188E-1
1.163853481E1	1.527118124E-2	3.130592033E-2	-8.985562921E-1
1.164693783E1	-2.840439789E-2	4.123218823E-3	-9.970554113E-1
1.165534085E1	-7.101099193E-2	-9.620844387E-3	-1.083643079E0
1.166374387E1	-1.061347127E-1	-4.734066315E-3	-1.155570269E0
1.167214689E1	-1.464506239E-1	1.313321572E-2	-1.250404358E0
1.168054991E1	-1.899735034E-1	4.932591692E-2	-1.366465330E0
1.168895294E1	-2.206685692E-1	5.925218388E-2	-1.457328796E0
1.169735596E1	-2.447970361E-1	6.368082762E-2	-1.554148197E0
1.170575898E1	-2.690782249E-1	6.200099736E-2	-1.651272893E0
1.171416200E1	-2.895416021E-1	4.535540938E-2	-1.721367598E0
1.172256502E1	-3.133646548E-1	2.733541466E-2	-1.780008912E0
1.173096804E1	-3.405473530E-1	2.916795574E-2	-1.841093659E0
1.173937106E1	-3.654393852E-1	3.145863488E-2	-1.886601806E0
1.174777408E1	-3.831539452E-1	5.207473040E-2	-1.953642249E0
1.175617710E1	-4.121691883E-1	7.711946964E-2	-2.010145664E0
1.176458012E1	-4.466820657E-1	7.788302749E-2	-2.041298866E0
1.177298314E1	-4.746283293E-1	7.452336699E-2	-2.080545664E0
1.178138616E1	-4.928010404E-1	7.223268598E-2	-2.123457670E0
1.178978918E1	-5.121954083E-1	7.146912813E-2	-2.160413980E0
1.179819221E1	-5.238015056E-1	7.773031294E-2	-2.194163322E0
1.180659523E1	-5.312843919E-1	9.544488788E-2	-2.222720385E0
1.181499825E1	-5.404471159E-1	1.160609797E-1	-2.258455038E0
1.182340127E1	-5.398362875E-1	1.403421611E-1	-2.295716763E0
1.183180429E1	-5.326588154E-1	1.667613089E-1	-2.314194918E0
1.184020731E1	-5.257867575E-1	1.948602796E-1	-2.327633381E0
1.184861033E1	-5.186093450E-1	2.260134816E-1	-2.338475943E0
1.185701335E1	-5.129590034E-1	2.447970361E-1	-2.337254286E0
1.186541637E1	-5.108210444E-1	2.564031482E-1	-2.328091621E0
1.187381939E1	-4.986040890E-1	2.652604282E-1	-2.321219683E0
1.188222241E1	-4.642439187E-1	2.646495700E-1	-2.315111160E0
1.189062544E1	-4.136963189E-1	2.475458533E-1	-2.278765678E0
1.189902846E1	-3.842229247E-1	2.093679011E-1	-2.171867371E0
1.190743148E1	-3.552076817E-1	1.472141892E-1	-2.048323631E0
1.191583450E1	-2.851129472E-1	7.834116369E-2	-1.919434786E0
1.192423752E1	-1.901262105E-1	2.947338112E-2	-1.768860936E0
1.193264054E1	-1.178935245E-1	2.519745007E-2	-1.579956412E0
1.194104356E1	-7.238540053E-2	2.580829710E-2	-1.381431103E0
1.194944658E1	-6.612421572E-2	4.978405312E-2	-1.232689738E0
1.195784960E1	-2.657185495E-2	4.275930673E-2	-1.070967913E0
1.196625262E1	-1.939439960E-2	-9.468132630E-3	-8.406785131E-1
1.197465564E1	-3.955236077E-2	-6.581879407E-2	-5.690042377E-1
1.198305866E1	-4.291202128E-2	-1.863084137E-1	-2.660239935E-1
1.199146168E1	-4.932591692E-2	-3.272614181E-1	2.901524492E-2
1.199986471E1	-9.727742523E-2	-4.743228853E-1	3.611634374E-1
1.200826773E1	-2.428117841E-1	-6.890357137E-1	8.400676847E-1
1.201667075E1	-3.332171738E-1	-8.768712282E-1	1.488634825E0
1.202507377E1	-2.724378705E-1	-5.755708218E-1	1.886449099E0
1.203347679E1	-4.011739492E-1	6.931589246E-1	1.479319334E0
1.204187981E1	-4.136963189E-1	2.514552832E0	5.063923597E-1
1.205028283E1	-9.345962852E-2	3.934772730E0	-1.908897609E-2
1.205868585E1	2.414373755E-1	4.118026733E0	6.789567471E-1
1.206708887E1	2.325800955E-1	2.668333530E0	1.813147426E0
1.207549189E1	4.978405312E-2	9.620844387E-3	2.049545288E0
1.208389491E1	-7.299624383E-2	-1.543611050E0	1.508181930E0
1.209229794E1	-7.223268598E-2	-1.714190125E0	1.055696726E0
1.210070096E1	-8.139539510E-2	-1.285222650E0	1.114490867E0
1.210910398E1	-1.583621502E-1	-4.518742561E-1	1.292094707E0
1.211750700E1	-1.640124917E-1	4.827220440E-1	1.140604496E0
1.212591002E1	-1.189625040E-1	9.788827300E-1	8.504521251E-1
1.213431304E1	-9.452861547E-2	9.648332596E-1	6.858287454E-1
1.214271606E1	-1.029277667E-1	7.834116220E-1	6.438329816E-1
1.215111908E1	-1.293469071E-1	4.938700199E-1	6.731536984E-1
1.215952210E1	-1.310267299E-1	6.933116168E-2	7.127060294E-1
1.216792512E1	-1.058292910E-1	-2.709107697E-1	6.740699410E-1
1.217632814E1	-8.139539510E-2	-3.245126009E-1	6.058077812E-1
1.218473116E1	-6.261184067E-2	-1.188097894E-1	5.705313683E-1
1.219313418E1	-5.314370990E-2	1.936385781E-1	5.586197972E-1
1.220153721E1	-5.344913527E-2	4.370612204E-1	5.340332389E-1
1.220994023E1	-6.368082762E-2	5.395308137E-1	5.042544007E-1
1.221834325E1	-7.406523079E-2	5.280774832E-1	4.969242513E-1
1.222674627E1	-7.253811508E-2	4.501944184E-1	5.297572613E-1
1.223514929E1	-6.352811307E-2	3.271087110E-1	5.806103349E-1
1.224355231E1	-5.344913527E-2	1.858502775E-1	6.140542030E-1
1.225195533E1	-4.382828996E-2	5.818320066E-2	6.226060390E-1
1.226035835E1	-4.321744293E-2	1.695101149E-2	6.050441861E-1
1.226876137E1	-4.566083103E-2	6.536065787E-2	5.793886185E-1
1.227716439E1	-4.764608666E-2	1.591257155E-1	5.593833923E-1
1.228556741E1	-4.718795046E-2	2.330382317E-1	5.447230339E-1
1.229397044E1	-3.955236077E-2	2.472404242E-1	5.393781066E-1
1.230237346E1	-3.390202299E-2	1.998997629E-1	5.393781066E-1
1.231077648E1	-3.023693897E-2	1.240019947E-1	5.314370990E-1
1.231917950E1	-2.901524492E-2	5.696150661E-2	5.189147592E-1
1.232758252E1	-3.176405653E-2	1.435491070E-2	4.964661002E-1
1.233598554E1	-3.359659761E-2	-2.137965523E-3	4.712686539E-1
1.234438856E1	-3.451287001E-2	1.221694518E-3	4.492781460E-1
1.235279158E1	-3.573456407E-2	2.565558441E-2	4.291202128E-1
1.236119460E1	-3.237490356E-2	4.321744293E-2	4.155288339E-1
1.236959762E1	-3.329117596E-2	4.291202128E-2	4.037700295E-1
1.237800064E1	-3.405473381E-2	1.206423342E-2	3.903313875E-1
1.238640366E1	-3.237490356E-2	-2.580829710E-2	3.776563108E-1
1.239480668E1	-2.779355086E-2	-5.436540768E-2	3.689517379E-1
1.240320971E1	-1.985253580E-2	-7.055285573E-2	3.570402265E-1
1.241161273E1	-6.872031838E-3	-7.757759839E-2	3.420744538E-1
1.242001575E1	1.985253533E-3	-9.987352788E-2	3.264978528E-1
1.242841877E1	8.399149403E-3	-1.319430023E-1	3.119902313E-1
1.243682179E1	1.175880991E-2	-1.542389393E-1	2.991624475E-1
1.244522481E1	1.924168877E-2	-1.562241912E-1	2.945810854E-1
1.245362783E1	2.611372061E-2	-1.440072358E-1	2.968717813E-1
1.246203085E1	3.405473381E-2	-1.360662282E-1	3.032856584E-1
1.247043387E1	3.939964995E-2	-1.276670843E-1	3.092414141E-1
1.247883689E1	4.672981426E-2	-1.191152185E-1	3.176405728E-1
1.248723991E1	5.314370990E-2	-1.111742035E-1	3.264978528E-1
1.249564294E1	5.528167635E-2	-1.133121699E-1	3.350497186E-1
1.250404596E1	5.803048983E-2	-1.195733473E-1	3.387148082E-1
1.251244898E1	6.154286116E-2	-1.175880954E-1	3.468085229E-1
1.252085200E1	6.765133142E-2	-1.111742035E-1	3.529170156E-1
1.252925502E1	7.574506104E-2	-1.148392856E-1	3.617742956E-1
1.253765804E1	8.093725890E-2	-1.320957243E-1	3.657447994E-1
1.254606106E1	8.475505561E-2	-1.543916464E-1	3.675773442E-1
1.255446408E1	9.223793447E-2	-1.815743446E-1	3.675773442E-1
1.256286710E1	9.513945878E-2	-2.009687424E-1	3.700207174E-1
1.257127012E1	9.849911928E-2	-2.082989216E-1	3.723114133E-1
1.257967314E1	1.001789495E-1	-2.086043358E-1	3.752129376E-1
1.258807616E1	1.052184403E-1	-2.014268786E-1	3.773508966E-1
1.259647919E1	1.165191159E-1	-1.849340051E-1	3.833066523E-1
1.260488221E1	1.259872466E-1	-1.638597846E-1	3.929274976E-1
1.261328523E1	1.392731816E-1	-1.401894391E-1	4.025483429E-1
1.262168825E1	1.485885978E-1	-1.090362370E-1	4.172086716E-1
1.263009127E1	1.571404636E-1	-8.246438205E-2	4.344651103E-1
1.263849429E1	1.672194302E-1	-7.009471953E-2	4.561502039E-1
1.264689731E1	1.766875684E-1	-8.261708915E-2	4.784461260E-1
1.265530033E1	1.889045089E-1	-1.137702987E-1	5.034908652E-1
1.266370335E1	1.953184158E-1	-1.540862173E-1	5.294518471E-1
1.267210637E1	2.009687424E-1	-1.856975704E-1	5.538857579E-1
1.268050939E1	2.000524700E-1	-1.948602796E-1	5.821374655E-1
1.268891241E1	2.041756958E-1	-1.954711229E-1	6.087092757E-1
1.269731544E1	2.131856978E-1	-2.021904439E-1	6.316160560E-1
1.270571846E1	2.333436459E-1	-2.286095917E-1	6.496360302E-1
1.271412148E1	2.512109280E-1	-2.709107697E-1	6.693359017E-1
1.272252450E1	2.614426315E-1	-3.364241421E-1	7.052231431E-1
1.273092752E1	2.510582209E-1	-4.373666346E-1	7.508839965E-1
1.273933054E1	2.276933193E-1	-5.534276366E-1	7.895200849E-1
1.274773356E1	2.098260373E-1	-6.523848772E-1	8.199097514E-1
1.275613658E1	2.102841735E-1	-7.113316059E-1	8.513683677E-1
1.276453960E1	2.284568697E-1	-7.321004272E-1	8.938222528E-1
1.277294262E1	2.345653474E-1	-7.053758502E-1	9.173398614E-1
1.278134564E1	2.403683960E-1	-6.502469182E-1	9.196305275E-1
1.278974866E1	2.447970361E-1	-5.761816502E-1	9.139801860E-1
1.279815168E1	2.545706034E-1	-5.041016936E-1	9.080244303E-1
1.280655471E1	2.591519356E-1	-4.561502039E-1	8.938222528E-1
1.281495773E1	2.531961799E-1	-4.422534108E-1	8.840487003E-1
1.282336075E1	2.507528067E-1	-4.472928941E-1	9.020686746E-1
1.283176377E1	2.425063550E-1	-4.378247857E-1	9.061918855E-1
1.284016679E1	2.252499312E-1	-4.239279926E-1	9.118422270E-1
1.284856981E1	2.179197669E-1	-3.965925872E-1	9.245173335E-1
1.285697283E1	2.130329758E-1	-3.503209054E-1	9.466605186E-1
1.286537585E1	2.089097649E-1	-2.877090573E-1	9.564340711E-1
1.287377887E1	2.076880634E-1	-2.215848416E-1	9.575030804E-1
1.288218189E1	2.087570578E-1	-1.612636745E-1	9.546015263E-1
1.289058491E1	2.290677279E-1	-1.258345395E-1	9.394831061E-1
1.289898794E1	2.664821148E-1	-1.285833418E-1	9.419264793E-1
1.290739096E1	2.742704153E-1	-1.615691036E-1	9.741486907E-1
1.291579398E1	2.628170252E-1	-1.908897758E-1	9.863656163E-1
1.292419700E1	2.574721277E-1	-2.194468826E-1	9.376505613E-1
1.293260002E1	2.547233105E-1	-2.655658424E-1	8.715263009E-1
1.294100304E1	2.429644912E-1	-3.046600819E-1	7.857022882E-1
1.294940606E1	2.472404242E-1	-3.446705639E-1	6.591041684E-1
1.295780908E1	2.392994165E-1	-3.857500553E-1	4.796678126E-1
1.296621210E1	2.345653474E-1	-3.903313875E-1	2.747285664E-1
1.297461512E1	2.562504113E-1	-4.413371384E-1	1.586675793E-1
1.298301814E1	2.550287247E-1	-6.003101468E-1	1.310267299E-1
1.299142116E1	2.188360244E-1	-7.660024762E-1	6.902574003E-2
1.299982419E1	1.803526580E-1	-8.912261724E-1	-3.481829539E-2
1.300822721E1	1.426328421E-1	-9.254335761E-1	-1.605001241E-1
1.301663023E1	1.078145429E-1	-8.562551737E-1	-2.832804024E-1
1.302503325E1	7.941014320E-2	-7.456917763E-1	-3.773508966E-1
1.303343627E1	5.451811850E-2	-6.281036735E-1	-4.407263100E-1
1.304183929E1	3.329117596E-2	-5.198310018E-1	-4.990622103E-1
1.305024231E1	1.267508045E-2	-4.294256270E-1	-5.662553906E-1
1.305864533E1	1.007897966E-2	-3.573456407E-1	-6.533011198E-1
1.306704835E1	5.803049076E-3	-3.028275371E-1	-7.412631512E-1
1.307545137E1	-1.023169141E-2	-2.919849753E-1	-7.611156702E-1
1.308385439E1	-5.543438718E-2	-3.403946459E-1	-7.111788988E-1
1.309225741E1	-1.139230132E-1	-4.445441067E-1	-6.375718117E-1
1.310066044E1	-1.317902952E-1	-5.593833923E-1	-6.461237073E-1
1.310906346E1	-1.246128380E-1	-6.111527085E-1	-7.125533223E-1
1.311746648E1	-1.252236813E-1	-5.425850749E-1	-7.722636461E-1
1.312586950E1	-1.499630064E-1	-4.265241027E-1	-7.617265582E-1
1.313427252E1	-1.896680743E-1	-3.831539452E-1	-7.094991207E-1
1.314267554E1	-2.130329758E-1	-3.642176688E-1	-6.954495907E-1
1.315107856E1	-2.405211031E-1	-2.735068500E-1	-7.702783942E-1
1.315948158E1	-2.571666837E-1	-9.086353332E-2	-8.819107413E-1
1.316788460E1	-2.638860047E-1	9.315420687E-2	-9.445225596E-1
1.317628762E1	-2.791571915E-1	2.232646793E-1	-9.813261032E-1
1.318469064E1	-2.947337925E-1	3.145863414E-1	-1.054169655E0
1.319309366E1	-3.038965166E-1	4.214846194E-1	-1.148698330E0
1.320149668E1	-3.118375242E-1	5.329642296E-1	-1.228108406E0
1.320989971E1	-3.139754832E-1	6.026008129E-1	-1.304769754E0
1.321830273E1	-3.165715933E-1	6.363501549E-1	-1.400520086E0
1.322670575E1	-3.182514310E-1	6.233696342E-1	-1.467560530E0
1.323510877E1	-3.226800561E-1	5.761816502E-1	-1.521009684E0
1.324351179E1	-3.193204105E-1	5.207473040E-1	-1.579650998E0
1.325191481E1	-3.229855001E-1	4.367557764E-1	-1.618439794E0
1.326031783E1	-3.358132839E-1	3.739912212E-1	-1.681662560E0
1.326872085E1	-3.474193811E-1	3.414636254E-1	-1.745801449E0
1.327712387E1	-3.646758199E-1	3.170297146E-1	-1.796501756E0
1.328552689E1	-3.878880143E-1	2.880144715E-1	-1.870108843E0
1.329392991E1	-4.175141156E-1	2.698417902E-1	-1.942036152E0
1.330233294E1	-4.488200247E-1	2.826695740E-1	-2.013963461E0
1.331073596E1	-4.720322192E-1	3.384093940E-1	-2.081920147E0
1.331913898E1	-4.990622103E-1	3.921639323E-1	-2.135674715E0
1.332754200E1	-5.398362875E-1	4.391991794E-1	-2.201493502E0
1.333594502E1	-5.654918551E-1	4.428642690E-1	-2.249292374E0
1.334434804E1	-5.806103349E-1	4.106420577E-1	-2.268686771E0
1.335275106E1	-5.827482939E-1	3.680354655E-1	-2.264868975E0
1.336115408E1	-5.602996349E-1	3.049654961E-1	-2.204700470E0
1.336955710E1	-5.447230339E-1	2.165453583E-1	-2.072146654E0
1.337796012E1	-5.418215394E-1	1.727170646E-1	-1.968149900E0
1.338636314E1	-5.328115225E-1	1.765348613E-1	-1.918671250E0
1.339476616E1	-4.758500159E-1	1.898207814E-1	-1.931193590E0
1.340316919E1	-3.854446113E-1	1.585148573E-1	-1.896222591E0
1.341157221E1	-3.480302393E-1	1.163664013E-1	-1.758018374E0
1.341997523E1	-3.455868363E-1	1.466033421E-2	-1.479013920E0
1.342837825E1	-3.788780272E-1	-1.652341783E-1	-1.119377613E0
1.343678127E1	-3.736858070E-1	-3.657447994E-1	-7.908945084E-1
1.344518429E1	-3.347443044E-1	-5.532749295E-1	-4.756973088E-1
1.345358731E1	-2.608317733E-1	-7.156075835E-1	-1.342336833E-1
1.346199033E1	-1.617218107E-1	-8.819107413E-1	2.794626355E-1
1.347039335E1	-9.788827598E-2	-1.114032745E0	8.641961813E-1
1.347879637E1	7.177454978E-2	-1.298355818E0	1.632031202E0
1.348719939E1	1.062874198E-1	-9.594883323E-1	2.124221325E0
1.349560241E1	-2.118112892E-1	5.445703268E-1	1.443737507E0
1.350400544E1	-3.692571819E-1	2.445221663E0	5.053234100E-1
1.351240846E1	-2.391466945E-1	4.035715103E0	1.801999360E-1
1.352081148E1	4.169032723E-2	4.829052925E0	9.226847887E-1
1.352921450E1	1.055238619E-1	4.070380688E0	1.796501756E0
1.353761752E1	1.420219894E-2	1.793753028E0	1.866443753E0
1.354602054E1	-3.161134571E-2	-6.494833231E-1	1.288582325E0
1.355442356E1	1.620272398E-1	-1.802304864E0	8.573241234E-1
1.356282658E1	9.666658193E-2	-1.732820988E0	9.158127308E-1
1.357122960E1	-1.053711548E-1	-7.742488980E-1	1.149003744E0
1.357963262E1	-1.458397806E-1	3.669664860E-1	1.169772506E0
1.358803564E1	-1.490467340E-1	9.567395449E-1	9.295567870E-1
1.359643866E1	-1.466033459E-1	1.077839971E0	6.126797795E-1
1.360484168E1	-1.276670843E-1	1.009883285E0	4.498890042E-1
1.361324471E1	-1.646233350E-1	7.951704264E-1	5.349494815E-1
1.362164773E1	-1.928750277E-1	3.449759781E-1	6.316160560E-1
1.363005075E1	-1.965401024E-1	-1.543916464E-1	6.006155610E-1
1.363845377E1	-1.844758689E-1	-4.034646153E-1	5.233433843E-1
1.364685679E1	-1.435490996E-1	-3.513898849E-1	5.103628635E-1
1.365525981E1	-1.110214889E-1	-1.406475753E-1	4.935645759E-1
1.366366283E1	-8.811471611E-2	6.444438547E-2	4.359922409E-1
1.367206585E1	-7.375980914E-2	1.676775664E-1	3.655920923E-1
1.368046887E1	-5.650337040E-2	1.685938388E-1	3.264978528E-1
1.368887189E1	-3.741439432E-2	9.819369763E-2	3.306210935E-1
1.369727491E1	-2.015795931E-2	-2.764083818E-2	3.633013964E-1
1.370567794E1	7.635590737E-4	-1.757712960E-1	3.733803928E-1
1.371408096E1	2.183778957E-2	-2.559449971E-1	3.484883606E-1
1.372248398E1	3.161134571E-2	-2.328855246E-1	3.170297146E-1
1.373088700E1	3.634541109E-2	-1.507265568E-1	2.921377122E-1
1.373929002E1	3.619270027E-2	-6.429167092E-2	2.615953386E-1
1.374769304E1	3.909422457E-2	-5.039489828E-3	2.344126403E-1
1.375609606E1	4.443913698E-2	-5.497625098E-3	2.217375487E-1
1.376449908E1	4.520269856E-2	-5.665608495E-2	2.105895877E-1
1.377290210E1	4.749337584E-2	-9.422318637E-2	1.939440072E-1
1.378130512E1	4.840964451E-2	-9.651386738E-2	1.782146841E-1
1.378970814E1	5.054761097E-2	-7.437065244E-2	1.582094431E-1
1.379811116E1	5.375456065E-2	-5.971032009E-2	1.420219839E-1
1.380651419E1	5.360184610E-2	-6.230641901E-2	1.256818175E-1
1.381491721E1	6.062658876E-2	-5.803048983E-2	1.134648770E-1
1.382332023E1	6.474980712E-2	-6.673506647E-2	1.194206402E-1
1.383172325E1	6.826218218E-2	-1.073564067E-1	1.366770715E-1
1.384012627E1	7.116370648E-2	-1.531699449E-1	1.498102844E-1
1.384852929E1	7.467607409E-2	-1.736333370E-1	1.617218107E-1
1.385693231E1	7.864658535E-2	-1.860029846E-1	1.801999360E-1
1.386533533E1	8.521319181E-2	-1.869192570E-1	1.963873953E-1
1.387373835E1	1.001789495E-1	-1.737860441E-1	2.104368806E-1
1.388214137E1	1.084253863E-1	-1.818797737E-1	2.368560284E-1
1.389054439E1	1.178935245E-1	-2.166980654E-1	2.605263591E-1
1.389894741E1	1.229330078E-1	-2.432699203E-1	2.828222811E-1
1.390735044E1	1.278197914E-1	-2.324273884E-1	2.971771955E-1
1.391575346E1	1.353026628E-1	-1.853921413E-1	3.173351586E-1
1.392415648E1	1.469087601E-1	-1.230857223E-1	3.407000601E-1
1.393255950E1	1.550024897E-1	-5.787777901E-2	3.694098890E-1
1.394096252E1	1.646233350E-1	-1.404948719E-2	4.077405334E-1
1.394936554E1	1.641651988E-1	-2.168507688E-2	4.526378214E-1
1.395776856E1	1.615691036E-1	-4.978405312E-2	4.958552718E-1
1.396617158E1	1.572931707E-1	-6.368082762E-2	5.361711979E-1
1.397457460E1	1.595838517E-1	-4.856235534E-2	5.731274486E-1
1.398297762E1	1.666085869E-1	-2.015795931E-2	5.981721878E-1
1.399138064E1	1.815743446E-1	-1.985253533E-3	6.186355352E-1
1.399978366E1	2.003578991E-1	4.581354558E-3	6.366555691E-1
1.400818668E1	2.185306102E-1	6.719320081E-3	6.560499668E-1
1.401658971E1	2.301367074E-1	-8.093725890E-3	6.794148684E-1
1.402499273E1	2.405211031E-1	-4.230117425E-2	6.985038519E-1
1.403339575E1	2.492256761E-1	-8.750387281E-2	7.070556879E-1
1.404179877E1	2.600682080E-1	-1.380514801E-1	7.055285573E-1
1.405020179E1	2.719797492E-1	-1.861557066E-1	6.951441765E-1
1.405860481E1	2.820587158E-1	-2.174616307E-1	6.870504618E-1
1.406700783E1	2.974826097E-1	-2.304421216E-1	6.911736727E-1
1.407541085E1	3.113794029E-1	-2.382304370E-1	7.143858671E-1
1.408381387E1	3.226800561E-1	-2.396048307E-1	7.377507687E-1
1.409221689E1	3.217637837E-1	-2.724378705E-1	7.514948249E-1
1.410061991E1	3.063398898E-1	-3.672719002E-1	7.682931423E-1
1.410902294E1	2.860292196E-1	-5.161659122E-1	8.015843034E-1
1.411742596E1	2.362451702E-1	-6.856760383E-1	8.295305967E-1
1.412582898E1	1.456870735E-1	-8.254073858E-1	8.244910836E-1
1.413423200E1	1.272089481E-1	-9.396358132E-1	8.385405540E-1
1.414263502E1	1.637070626E-1	-1.069440842E0	9.298622608E-1
1.415103804E1	1.543916464E-1	-1.162442327E0	1.008966923E0
1.415944106E1	1.603474021E-1	-1.121668339E0	1.011257648E0
1.416784408E1	1.745496094E-1	-1.005759954E0	1.006676316E0
1.417624710E1	1.811162084E-1	-8.134958148E-1	1.011563063E0
1.418465012E1	1.798945218E-1	-5.686988235E-1	1.013090134E0
1.419305314E1	1.823379099E-1	-3.521534503E-1	1.011410356E0
1.420145616E1	1.957765520E-1	-2.096733153E-1	1.016144395E0
1.420985919E1	2.192941606E-1	-1.768402755E-1	1.048061132E0
1.421826221E1	2.620534599E-1	-2.409792393E-1	1.097539783E0
1.422666523E1	2.780882120E-1	-3.498627543E-1	1.155875683E0
1.423506825E1	2.741177082E-1	-4.453076422E-1	1.201689243E0
1.424347127E1	2.597627938E-1	-4.795151055E-1	1.202758312E0
1.425187429E1	2.405211031E-1	-4.621059597E-1	1.165649295E0
1.426027731E1	2.209739983E-1	-4.173613787E-1	1.085017443E0
1.426868033E1	1.966928244E-1	-3.736858070E-1	9.830059409E-1
1.427708335E1	1.776038408E-1	-3.333698809E-1	8.432746530E-1
1.428548637E1	1.777565479E-1	-3.144336343E-1	6.687250137E-1
1.429388939E1	2.060082406E-1	-3.573456407E-1	5.332696438E-1
1.430229241E1	2.440334857E-1	-4.857762754E-1	4.859289825E-1
1.431069544E1	2.495311052E-1	-6.546755433E-1	4.396573007E-1
1.431909846E1	2.341072112E-1	-7.957812548E-1	3.454341292E-1
1.432750148E1	2.240282297E-1	-8.655705452E-1	2.458660156E-1
1.433590450E1	2.092151791E-1	-7.930324674E-1	1.705790907E-1
1.434430752E1	1.855448484E-1	-6.082511544E-1	1.068982705E-1
1.435271054E1	1.487413049E-1	-3.742966652E-1	4.077405483E-2
1.436111356E1	9.743013978E-2	-1.189625040E-1	-6.291726977E-2
1.436951658E1	3.374931216E-2	1.233911440E-1	-1.992889196E-1
1.437791960E1	-1.725643501E-2	3.118375242E-1	-3.170297146E-1
1.438632262E1	-5.268557742E-2	4.443913698E-1	-4.165978432E-1
1.439472564E1	-8.139539510E-2	5.354076028E-1	-5.108210444E-1
1.440312866E1	-1.026223376E-1	5.577035546E-1	-5.755708218E-1
1.441153169E1	-1.285833418E-1	5.839699507E-1	-6.676560640E-1
1.441993471E1	-1.507265568E-1	6.206207871E-1	-7.857022882E-1
1.442833773E1	-1.333174109E-1	5.882459283E-1	-8.809944391E-1
1.443674075E1	-1.275143623E-1	5.438067913E-1	-9.689564705E-1
1.444514377E1	-1.426328421E-1	5.025745630E-1	-1.020267606E0
1.445354679E1	-1.667613089E-1	4.234698713E-1	-1.058750987E0
1.446194981E1	-1.719534993E-1	3.200839758E-1	-1.120446563E0
1.447035283E1	-1.462979168E-1	1.421747059E-1	-1.162747741E0
1.447875585E1	-1.362189353E-1	-2.229592577E-2	-1.235133171E0
1.448715887E1	-1.435490996E-1	-1.809635013E-1	-1.288887739E0
1.449556189E1	-1.679829955E-1	-3.619270027E-1	-1.299119353E0
1.450396491E1	-2.105895877E-1	-5.080721974E-1	-1.327371120E0
1.451236794E1	-2.551814318E-1	-5.263976455E-1	-1.378834963E0
1.452077096E1	-3.180987239E-1	-4.984513521E-1	-1.366465330E0
1.452917398E1	-3.565820754E-1	-3.863608837E-1	-1.434116602E0
1.453757700E1	-3.796415627E-1	-1.676775664E-1	-1.581025362E0
1.454598002E1	-3.990359604E-1	1.801999472E-2	-1.616454601E0
1.455438304E1	-4.338542521E-1	1.204896197E-1	-1.584079623E0
1.456278606E1	-4.566083252E-1	1.612636745E-1	-1.581025362E0
1.457118908E1	-4.428642690E-1	1.401894391E-1	-1.589882731E0
1.457959210E1	-4.362976551E-1	1.608055383E-1	-1.614011168E0
1.458799512E1	-4.057552814E-1	1.620272398E-1	-1.551246643E0
1.459639814E1	-3.926220834E-1	1.168245375E-1	-1.511083364E0
1.460480116E1	-3.866663277E-1	6.963659078E-2	-1.540404081E0
1.461320418E1	-3.813214004E-1	7.650861889E-2	-1.565907001E0
1.462160721E1	-3.619270027E-1	1.079672500E-1	-1.497797489E0
1.463001023E1	-3.620797098E-1	1.540862173E-1	-1.427397370E0
1.463841325E1	-3.500154912E-1	1.801999360E-1	-1.416402102E0
1.464681627E1	-3.260397315E-1	2.087570578E-1	-1.372268319E0
1.465521929E1	-3.182514310E-1	2.855710983E-1	-1.346765518E0
1.466362231E1	-2.933593988E-1	3.894151151E-1	-1.333784938E0
1.467202533E1	-2.264716178E-1	4.480564594E-1	-1.245517612E0
1.468042835E1	-1.727170646E-1	4.775298536E-1	-1.110673070E0
1.468883137E1	-1.617218107E-1	5.105155706E-1	-9.738432169E-1
1.469723439E1	-1.589729935E-1	5.340332389E-1	-8.641961813E-1
1.470563741E1	-1.545443535E-1	5.963396430E-1	-7.597413063E-1
1.471404044E1	-1.568350345E-1	6.998782754E-1	-6.872031689E-1
1.472244346E1	-1.443126649E-1	7.785248160E-1	-6.352811456E-1
1.473084648E1	-1.377460510E-1	8.087617755E-1	-5.719057322E-1
1.473924950E1	-1.366770715E-1	7.805100679E-1	-4.972296655E-1
1.474765252E1	-1.337755471E-1	7.137750387E-1	-4.515688419E-1
1.475605554E1	-1.360662282E-1	6.074876189E-1	-4.417952895E-1
1.476445856E1	-1.430909634E-1	5.537330508E-1	-4.304946065E-1
1.477286158E1	-1.641651988E-1	5.824428797E-1	-4.614951015E-1
1.478126460E1	-1.847812980E-1	6.122216582E-1	-5.071559548E-1
1.478966762E1	-1.899735034E-1	5.777087808E-1	-5.470137000E-1
1.479807064E1	-1.837123185E-1	5.062396526E-1	-5.905365944E-1
1.480647366E1	-1.809635013E-1	3.756710589E-1	-6.197045445E-1
1.481487669E1	-1.998997629E-1	1.826433241E-1	-6.562026739E-1
1.482327971E1	-2.191414535E-1	-7.788302749E-2	-6.891884208E-1
1.483168273E1	-2.223484069E-1	-3.822376728E-1	-6.948387623E-1
1.484008575E1	-2.367033064E-1	-7.059867382E-1	-6.533011198E-1
1.484848877E1	-2.695363462E-1	-1.046228647E0	-5.570927262E-1
1.485689179E1	-3.081724346E-1	-1.380056620E0	-3.978142738E-1
1.486529481E1	-3.720059693E-1	-1.716938972E0	-1.311794519E-1
1.487369783E1	-3.533751369E-1	-2.086501598E0	3.042019308E-1
1.488210085E1	-1.417165697E-1	-2.390092611E0	9.000834227E-1
1.489050387E1	7.543963939E-2	-2.182404518E0	1.381736517E0
1.489890689E1	-6.688777357E-2	-9.468132257E-1	1.333632231E0
1.490730991E1	-3.791834414E-1	1.100594044E0	7.221741676E-1
1.491571294E1	-4.054498672E-1	3.033620119E0	1.528645307E-1
1.492411596E1	-1.988307834E-1	4.250733376E0	1.505738497E-1
1.493251898E1	-7.299624383E-2	4.703829288E0	7.979192138E-1
1.494092200E1	-1.330119967E-1	3.919196129E0	1.287818789E0
1.494932502E1	-1.572931707E-1	1.911035657E0	1.233605981E0
1.495772804E1	-9.712471068E-2	-2.805316150E-1	9.559759498E-1
1.496613106E1	-8.460234851E-2	-1.394411564E0	8.712208867E-1
1.497453408E1	-2.147128135E-1	-1.322637081E0	1.023779988E0
1.498293710E1	-3.255815804E-1	-6.748335361E-1	1.168092728E0
1.499134012E1	-3.504736125E-1	5.848862603E-2	1.090667725E0
1.499974314E1	-3.290939629E-1	5.366293192E-1	7.925743461E-1
1.500814616E1	-2.875563502E-1	7.398887277E-1	5.635066032E-1
1.501654918E1	-2.663294077E-1	7.879929543E-1	5.314370990E-1
1.502495221E1	-2.693836391E-1	6.168029904E-1	5.822901726E-1
1.503335523E1	-2.553341687E-1	1.698155403E-1	5.627430081E-1
1.504175825E1	-2.177670449E-1	-2.762556672E-1	4.996730685E-1
1.505016127E1	-1.702736765E-1	-4.819584787E-1	4.694361091E-1
1.505856429E1	-1.313321590E-1	-4.474456310E-1	4.701996744E-1
1.506696731E1	-1.004843712E-1	-3.003841341E-1	4.362976551E-1
1.507537033E1	-7.513421029E-2	-1.044548824E-1	3.655920923E-1
1.508377335E1	-5.986303091E-2	7.055285573E-2	3.040492237E-1
1.509217637E1	-5.451811850E-2	1.403421611E-1	2.683146596E-1
1.510057939E1	-4.810422286E-2	1.000262350E-1	2.446443290E-1
1.510898241E1	-4.184303805E-2	-1.084253844E-2	2.367033064E-1
1.511738544E1	-3.130592033E-2	-1.380514801E-1	2.397575527E-1
1.512578846E1	-1.908897609E-2	-2.446443290E-1	2.392994165E-1
1.513419148E1	-8.399149403E-3	-3.135173619E-1	2.305948436E-1
1.514259450E1	-2.748812549E-3	-3.185568452E-1	2.192941606E-1
1.515099752E1	0.000000000E0	-2.712161839E-1	2.107423097E-1
1.515940054E1	2.137965523E-3	-2.243336588E-1	2.092151791E-1
1.516780356E1	6.108472589E-3	-1.927223057E-1	2.134911120E-1
1.517620658E1	1.404948719E-2	-1.748550236E-1	2.263189107E-1
1.518460960E1	1.160609815E-2	-1.884463727E-1	2.420482337E-1
1.519301262E1	1.236965694E-2	-2.191414535E-1	2.567085624E-1
1.520141564E1	1.175880991E-2	-2.289150059E-1	2.716743052E-1
1.520981866E1	4.886778072E-3	-2.170034945E-1	3.008422852E-1
1.521822169E1	3.817795310E-3	-1.966928244E-1	3.293993771E-1
1.522662471E1	5.192201585E-3	-1.849340051E-1	3.547495604E-1
1.523502773E1	1.053711493E-2	-1.991362125E-1	3.822376728E-1
1.524343075E1	1.649287529E-2	-2.202104330E-1	4.088095427E-1
1.525183377E1	2.015795931E-2	-2.315111160E-1	4.379774928E-1
1.526023679E1	2.535016090E-2	-2.287622988E-1	4.666872919E-1
1.526863981E1	3.222219273E-2	-2.131856978E-1	4.869979918E-1
1.527704283E1	3.939964995E-2	-2.023431510E-1	4.958552718E-1
1.528544585E1	4.825693369E-2	-1.980672181E-1	4.934118688E-1
1.529384887E1	5.864133686E-2	-1.924168915E-1	4.798205197E-1
1.530225189E1	6.612421572E-2	-1.785201132E-1	4.672981501E-1
1.531065491E1	7.009471953E-2	-1.458397806E-1	4.575245976E-1
1.531905794E1	7.146912813E-2	-7.849387079E-2	4.527905285E-1
1.532746096E1	7.070557028E-2	1.404948719E-2	4.518742561E-1
1.533586398E1	7.177454978E-2	8.536590636E-2	4.555393457E-1
1.534426700E1	7.360709459E-2	1.136175916E-1	4.604261220E-1
1.535267002E1	7.314895838E-2	1.020114943E-1	4.721849263E-1
1.536107304E1	7.207997888E-2	6.566607952E-2	4.975350797E-1
1.536947606E1	8.047912270E-2	3.206948191E-2	5.256340504E-1
1.537787908E1	9.177979827E-2	1.099525020E-2	5.546492934E-1
1.538628210E1	1.055238619E-1	-8.857285604E-3	5.830537081E-1
1.539468512E1	1.241547018E-1	-2.947338112E-2	6.019899845E-1
1.540308814E1	1.369825006E-1	-5.451811850E-2	6.175665855E-1
1.541149116E1	1.484358907E-1	-8.536590636E-2	6.303943992E-1
1.541989418E1	1.559187621E-1	-1.180462316E-1	6.306998134E-1
1.542829721E1	1.629435122E-1	-1.479777545E-1	6.209262609E-1
1.543670023E1	1.695101112E-1	-1.692046970E-1	6.004628539E-1
1.544510325E1	1.760767251E-1	-1.750077456E-1	5.761816502E-1
1.545350627E1	1.879882365E-1	-1.785201132E-1	5.462501645E-1
1.546190929E1	1.899735034E-1	-1.911951900E-1	5.027272701E-1
1.547031231E1	1.860029846E-1	-2.159345001E-1	4.561502039E-1
1.547871533E1	1.806580722E-1	-2.735068500E-1	4.085040987E-1
1.548711835E1	1.608055383E-1	-3.628432751E-1	3.779617548E-1
1.549552137E1	1.438545287E-1	-4.792096615E-1	3.555130959E-1
1.550392439E1	1.418692768E-1	-5.929799676E-1	3.333698809E-1
1.551232741E1	1.420219839E-1	-6.618530154E-1	3.329117596E-1
1.552073044E1	1.572931707E-1	-6.508577466E-1	3.347443044E-1
1.552913346E1	1.707318127E-1	-5.685460567E-1	3.323009014E-1
1.553753648E1	1.890572309E-1	-4.512633979E-1	3.116848171E-1
1.554593950E1	2.116585821E-1	-3.261924386E-1	2.973299026E-1
1.555434252E1	2.205158621E-1	-2.124221325E-1	2.941229641E-1
1.556274554E1	2.309002578E-1	-1.408002973E-1	3.031329513E-1
1.557114856E1	2.312056869E-1	-1.137702987E-1	3.228327632E-1
1.557955158E1	2.232646793E-1	-1.059819981E-1	3.651339412E-1
1.558795460E1	2.130329758E-1	-1.125486046E-1	4.254551232E-1
1.559635762E1	2.002051920E-1	-1.259872466E-1	4.785988331E-1
1.560476064E1	1.957765520E-1	-1.580567211E-1	5.253286362E-1
1.561316366E1	1.950129867E-1	-1.968455315E-1	5.720584393E-1
1.562156669E1	1.895153672E-1	-2.225011140E-1	6.426113248E-1
1.562996971E1	1.855448484E-1	-2.374668717E-1	7.296570539E-1
1.563837273E1	1.759240031E-1	-2.328855246E-1	8.040276766E-1
1.564677575E1	1.676775664E-1	-2.229592502E-1	8.660287261E-1
1.565517877E1	1.675248593E-1	-2.032594234E-1	9.239065051E-1
1.566358179E1	1.803526580E-1	-1.994416267E-1	9.776610136E-1
1.567198481E1	1.947075576E-1	-2.441861928E-1	1.032942772E0
1.568038783E1	1.995943487E-1	-3.196258247E-1	1.086697221E0
1.568879085E1	2.079934925E-1	-3.478775024E-1	1.125791550E0
1.569719387E1	2.104368806E-1	-3.361186981E-1	1.127624035E0
1.570559689E1	2.012741715E-1	-3.266505599E-1	1.108382344E0
1.571399991E1	1.817270666E-1	-3.078670204E-1	1.070509791E0
1.572240294E1	1.637070626E-1	-2.875563502E-1	1.004996419E0
1.573080596E1	1.456870735E-1	-2.759502530E-1	8.716790676E-1
1.573920898E1	1.519482583E-1	-2.864873707E-1	7.108734846E-1
1.574761200E1	1.742441803E-1	-3.248180151E-1	5.894675851E-1
1.575601502E1	1.664558798E-1	-3.035911024E-1	4.256078303E-1
1.576441804E1	1.579040140E-1	-2.568612695E-1	2.310529798E-1
1.577282106E1	1.609582454E-1	-3.490992188E-1	1.151447073E-1
1.578122408E1	1.586675793E-1	-5.590779781E-1	3.970507160E-2
1.578962710E1	1.404948682E-1	-7.362236381E-1	-8.551861346E-2
1.579803012E1	1.339282542E-1	-8.443436027E-1	-2.345653474E-1
1.580643314E1	1.594311297E-1	-8.374716043E-1	-4.052971601E-1
1.581483616E1	1.676775664E-1	-7.102626562E-1	-5.858024955E-1
1.582323918E1	1.476723254E-1	-5.738909841E-1	-7.207997441E-1
1.583164221E1	1.093416587E-1	-5.005893111E-1	-7.905890942E-1
1.584004523E1	5.909947306E-2	-4.947862923E-1	-8.156337738E-1
1.584844825E1	1.908897609E-2	-4.805840850E-1	-8.473978639E-1
1.585685127E1	-4.734066315E-3	-4.040754735E-1	-9.327637553E-1
1.586525429E1	-1.236965694E-2	-2.388412803E-1	-1.040883780E0
1.587365731E1	-1.328592747E-2	-5.375456065E-2	-1.132205367E0
1.588206033E1	-3.848337755E-2	9.513945878E-2	-1.209782958E0
1.589046335E1	-8.842013776E-2	1.649287641E-1	-1.228566527E0
1.589886637E1	-1.464506239E-1	1.892099380E-1	-1.240325332E0
1.590726939E1	-1.669140160E-1	2.170034945E-1	-1.313627005E0
1.591567241E1	-1.534753740E-1	2.715215981E-1	-1.404032469E0
1.592407544E1	-1.424801201E-1	3.422271907E-1	-1.460993886E0
1.593247846E1	-1.392731816E-1	4.063661397E-1	-1.526507258E0
1.594088148E1	-1.369825006E-1	4.549284875E-1	-1.599808931E0
1.594928450E1	-1.391204596E-1	4.680617154E-1	-1.646233320E0
1.595768752E1	-1.459924877E-1	4.282039404E-1	-1.675248623E0
1.596609054E1	-1.550024897E-1	3.878880143E-1	-1.730988383E0
1.597449356E1	-1.634016484E-1	3.451287150E-1	-1.770082593E0
1.598289658E1	-1.666085869E-1	3.144336343E-1	-1.810398579E0
1.599129960E1	-1.736333370E-1	3.309265077E-1	-1.871636033E0
1.599970262E1	-1.934858710E-1	3.390202224E-1	-1.874690294E0
1.600810564E1	-2.254026383E-1	3.223746419E-1	-1.857739210E0
1.601650866E1	-2.476985604E-1	3.445178568E-1	-1.886907220E0
1.602491168E1	-2.467822880E-1	3.396310806E-1	-1.827654958E0
1.603331471E1	-2.423536479E-1	3.202366829E-1	-1.715259075E0
1.604171773E1	-2.817533016E-1	3.222219348E-1	-1.645775199E0
1.605012075E1	-2.670929730E-1	3.158080280E-1	-1.608666301E0
1.605852377E1	-2.509055138E-1	3.080197275E-1	-1.537349820E0
1.606692679E1	-2.414373755E-1	2.878617644E-1	-1.428160906E0
1.607532981E1	-2.305948436E-1	2.173089087E-1	-1.321415305E0
1.608373283E1	-2.192941606E-1	1.166718230E-1	-1.247808218E0
1.609213585E1	-2.073826492E-1	-2.061609551E-2	-1.112047434E0
1.610053887E1	-2.422009408E-1	-1.342336833E-1	-9.739959836E-1
1.610894189E1	-2.779355049E-1	-2.290677279E-1	-8.687775135E-1
1.611734491E1	-2.588465214E-1	-3.571929336E-1	-7.290462255E-1
1.612574794E1	-2.124221325E-1	-4.837910235E-1	-5.250232220E-1
1.613415096E1	-1.809635013E-1	-5.544965863E-1	-3.738385141E-1
1.614255398E1	-1.704263836E-1	-4.979932308E-1	-3.655920923E-1
1.615095700E1	-1.296523362E-1	-3.504736125E-1	-3.370349705E-1
1.615936002E1	-1.181989461E-1	-1.899735034E-1	-1.595838517E-1
1.616776304E1	-1.472141892E-1	-1.562241912E-1	1.632489264E-1
1.617616606E1	-1.533226669E-1	-3.454341292E-1	5.784723759E-1
1.618456908E1	-1.023169160E-1	-5.722111464E-1	9.697200060E-1
1.619297210E1	-3.649812192E-2	-5.303681493E-1	1.115712523E0
1.620137512E1	-4.825693369E-2	1.875301152E-1	7.423321605E-1
1.620977814E1	-5.482354015E-2	1.460230350E0	1.360662282E-1
1.621818116E1	-4.566083103E-2	2.516996145E0	-1.811162084E-1
1.622658418E1	-1.294996142E-1	2.911145210E0	-1.023169141E-2
1.623498721E1	-2.797680497E-1	2.503710270E0	4.770717025E-1
1.624339023E1	-2.924431264E-1	1.447708011E0	7.053758502E-1
1.625179325E1	-1.554606259E-1	2.803788781E-1	4.764608741E-1
1.626019627E1	-4.596625641E-2	-5.010474920E-1	1.743968874E-1
1.626859929E1	-6.505523622E-2	-6.441384554E-1	2.586938143E-1
1.627700231E1	-1.250709742E-1	-3.316900730E-1	4.923428893E-1
1.628540533E1	-1.768402755E-1	9.926267900E-3	5.864133835E-1
1.629380835E1	-1.856975704E-1	1.148392856E-1	4.854708612E-1
1.630221137E1	-1.740914732E-1	1.151447073E-1	3.623851240E-1
1.631061439E1	-1.685938388E-1	1.690519750E-1	3.458922505E-1
1.631901741E1	-1.586675793E-1	2.266243398E-1	4.230117202E-1
1.632742044E1	-1.661504507E-1	1.345391124E-1	4.738647640E-1
1.633582346E1	-1.528645307E-1	-7.635590737E-4	4.614951015E-1
1.634422648E1	-1.363716573E-1	-5.467082933E-2	4.425588250E-1
1.635262950E1	-1.169772521E-1	5.803049076E-3	4.440859556E-1
1.636103252E1	-1.021642014E-1	1.270562261E-1	4.405735731E-1
1.636943554E1	-8.826743066E-2	2.672456801E-1	4.207210541E-1
1.637783856E1	-7.757759839E-2	3.385621011E-1	4.136963189E-1
1.638624158E1	-6.368082762E-2	3.049654961E-1	4.274403751E-1
1.639464460E1	-5.268557742E-2	2.180724740E-1	4.436278343E-1
1.640304762E1	-4.566083103E-2	1.120904684E-1	4.653128982E-1
1.641145064E1	-3.558185324E-2	2.825168520E-2	4.767662883E-1
1.641985366E1	-2.412846684E-2	-1.282779220E-2	4.752391577E-1
1.642825668E1	-1.450762246E-2	-1.939439960E-2	4.708105326E-1
1.643665971E1	1.527118147E-4	-1.695101149E-2	4.614951015E-1
1.644506273E1	9.620844387E-3	1.527118147E-3	4.454603493E-1
1.645346575E1	1.481304597E-2	3.298575059E-2	4.269822240E-1
1.646186877E1	1.969982497E-2	5.299099907E-2	4.097257853E-1
1.647027179E1	2.519745007E-2	4.856235534E-2	3.810159862E-1
1.647867481E1	3.268032894E-2	3.603998944E-2	3.469612300E-1
1.648707783E1	4.092676565E-2	2.641914412E-2	3.251234591E-1
1.649548085E1	4.230117425E-2	1.603474095E-2	3.090887070E-1
1.650388387E1	4.062134400E-2	-7.788302377E-3	2.942756712E-1
1.651228689E1	3.878879920E-2	-3.344388679E-2	2.870981991E-1
1.652068991E1	3.848337755E-2	-4.367557913E-2	2.941229641E-1
1.652909294E1	4.169032723E-2	-5.024218559E-2	3.142809272E-1
1.653749596E1	4.978405312E-2	-5.604523420E-2	3.341334462E-1
1.654589898E1	6.169557199E-2	-6.337540597E-2	3.552076817E-1
1.655430200E1	7.024743408E-2	-6.505523622E-2	3.790307343E-1
1.656270502E1	8.063183725E-2	-6.917845458E-2	4.011739492E-1
1.657110804E1	8.842013776E-2	-8.643488586E-2	4.228590131E-1
1.657951106E1	9.239064902E-2	-1.142284349E-1	4.405735731E-1
1.658791408E1	9.880454093E-2	-1.307213157E-1	4.572191834E-1
1.659631710E1	1.001789495E-1	-1.441599578E-1	4.782933891E-1
1.660472012E1	9.987352788E-2	-1.797417998E-1	4.967715442E-1
1.661312314E1	1.020114943E-1	-2.226538211E-1	5.126535892E-1
1.662152616E1	1.015533581E-1	-2.571666837E-1	5.303681493E-1
1.662992918E1	1.033858955E-1	-2.786990702E-1	5.523586273E-1
1.663833221E1	1.044548824E-1	-2.861819267E-1	5.725166202E-1
1.664673523E1	1.087308154E-1	-2.880144715E-1	5.894675851E-1
1.665513825E1	1.085781008E-1	-2.684673667E-1	6.073349118E-1
1.666354127E1	1.111742035E-1	-2.408265322E-1	6.244385839E-1
1.667194429E1	1.142284349E-1	-2.156290859E-1	6.458182931E-1
1.668034731E1	1.264453828E-1	-1.959292591E-1	6.749862432E-1
1.668875033E1	1.406475753E-1	-1.915006191E-1	7.178982496E-1
1.669715335E1	1.559187621E-1	-2.024958730E-1	7.637118101E-1
1.670555637E1	1.698155403E-1	-2.292204350E-1	8.153283596E-1
1.671395939E1	1.896680743E-1	-2.525853515E-1	8.640434742E-1
1.672236241E1	1.953184158E-1	-2.359397560E-1	9.168817401E-1
1.673076544E1	2.008160353E-1	-2.089097649E-1	9.657495022E-1
1.673916846E1	2.231119573E-1	-2.145601064E-1	9.976662993E-1
1.674757148E1	2.443388999E-1	-2.309002578E-1	9.999569654E-1
1.675597450E1	2.521272004E-1	-2.307475507E-1	9.857547879E-1
1.676437752E1	2.539597452E-1	-2.321219593E-1	9.686510563E-1
1.677278054E1	2.492256761E-1	-2.790044844E-1	9.526162744E-1
1.678118356E1	2.460187376E-1	-3.834593594E-1	9.260444641E-1
